"rt","response","stage","start_time","s","word","word_id","phase","a_cor","a_real","a_ava","trial","tps","task_type","block_typ","pic_typ","block_id","cum_r","a","r","n_Prac","slider_start","pair_type"
"405","null","learn","17:28:12","0","0","0","learn","0","0","[0, 1, 2]","0","0","setsize","99","prac","0","0","1","0","2","",""
"386","null","learn","17:28:12","2","2","2","learn","2","2","[0, 1, 2]","1","0","setsize","99","prac","0","1","2","1","2","",""
"329","null","learn","17:28:12","1","1","1","learn","0","0","[0, 1, 2]","2","0","setsize","99","prac","0","2","0","1","2","",""
"313","null","learn","17:28:12","1","1","1","learn","0","0","[0, 1, 2]","3","1","setsize","99","prac","0","0","1","0","2","",""
"425","null","learn","17:28:12","2","2","2","learn","2","2","[0, 1, 2]","4","1","setsize","99","prac","0","1","2","1","2","",""
"551","null","learn","17:28:12","0","0","0","learn","0","0","[0, 1, 2]","5","1","setsize","99","prac","0","0","1","0","2","",""
"564","null","learn","17:28:12","0","0","0","learn","0","0","[0, 1, 2]","0","0","setsize","99","prac","0","1","0","1","2","",""
"325","null","learn","17:28:12","2","2","2","learn","2","2","[0, 1, 2]","1","0","setsize","99","prac","0","2","2","1","2","",""
"275","null","learn","17:28:12","1","1","1","learn","0","0","[0, 1, 2]","2","0","setsize","99","prac","0","0","1","0","2","",""
"706","null","learn","17:28:12","1","1","1","learn","0","0","[0, 1, 2]","3","1","setsize","99","prac","0","1","0","1","2","",""
"456","null","learn","17:28:12","2","2","2","learn","2","2","[0, 1, 2]","4","1","setsize","99","prac","0","2","2","1","2","",""
"612","null","learn","17:28:12","0","0","0","learn","0","0","[0, 1, 2]","5","1","setsize","99","prac","0","3","0","1","2","",""
"355","null","learn","17:28:12","1","1","1","learn","0","0","[0, 1, 2]","0","0","setsizechunk","3S","sports","1","4","0","1","2","",""
"292","null","learn","17:28:12","0","0","0","learn","0","0","[0, 1, 2]","1","0","setsizechunk","3S","sports","1","0","1","0","2","",""
"553","null","learn","17:28:12","2","2","2","learn","2","2","[0, 1, 2]","2","0","setsizechunk","3S","sports","1","1","2","1","2","",""
"466","null","learn","17:28:12","1","1","1","learn","0","0","[0, 1, 2]","3","1","setsizechunk","3S","sports","1","2","0","1","2","",""
"550","null","learn","17:28:12","2","2","2","learn","2","2","[0, 1, 2]","4","1","setsizechunk","3S","sports","1","3","2","1","2","",""
"480","null","learn","17:28:12","0","0","0","learn","0","0","[0, 1, 2]","5","1","setsizechunk","3S","sports","1","4","0","1","2","",""
"707","null","learn","17:28:12","2","2","2","learn","2","2","[0, 1, 2]","6","2","setsizechunk","3S","sports","1","5","2","1","2","",""
"465","null","learn","17:28:12","1","1","1","learn","0","0","[0, 1, 2]","7","2","setsizechunk","3S","sports","1","6","0","1","2","",""
"335","null","learn","17:28:12","0","0","0","learn","0","0","[0, 1, 2]","8","2","setsizechunk","3S","sports","1","7","0","1","2","",""
"612","null","learn","17:28:12","0","0","0","learn","0","0","[0, 1, 2]","9","3","setsizechunk","3S","sports","1","8","0","1","2","",""
"317","null","learn","17:28:12","2","2","2","learn","2","2","[0, 1, 2]","10","3","setsizechunk","3S","sports","1","9","2","1","2","",""
"410","null","learn","17:28:12","1","1","1","learn","0","0","[0, 1, 2]","11","3","setsizechunk","3S","sports","1","10","0","1","2","",""
"398","null","learn","17:28:12","0","0","0","learn","0","0","[0, 1, 2]","12","4","setsizechunk","3S","sports","1","0","2","0","2","",""
"486","null","learn","17:28:12","2","2","2","learn","2","2","[0, 1, 2]","13","4","setsizechunk","3S","sports","1","1","2","1","2","",""
"392","null","learn","17:28:12","1","1","1","learn","0","0","[0, 1, 2]","14","4","setsizechunk","3S","sports","1","2","0","1","2","",""
"333","null","learn","17:28:12","0","0","0","learn","0","0","[0, 1, 2]","15","5","setsizechunk","3S","sports","1","3","0","1","2","",""
"349","null","learn","17:28:12","2","2","2","learn","2","2","[0, 1, 2]","16","5","setsizechunk","3S","sports","1","4","2","1","2","",""
"408","null","learn","17:28:12","1","1","1","learn","0","0","[0, 1, 2]","17","5","setsizechunk","3S","sports","1","5","0","1","2","",""
"568","null","learn","17:28:12","0","0","0","learn","0","0","[0, 1, 2]","18","6","setsizechunk","3S","sports","1","6","0","1","2","",""
"470","null","learn","17:28:12","1","1","1","learn","0","0","[0, 1, 2]","19","6","setsizechunk","3S","sports","1","7","0","1","2","",""
"396","null","learn","17:28:12","2","2","2","learn","2","2","[0, 1, 2]","20","6","setsizechunk","3S","sports","1","8","2","1","2","",""
"394","null","learn","17:28:12","0","0","0","learn","0","0","[0, 1, 2]","21","7","setsizechunk","3S","sports","1","9","0","1","2","",""
"531","null","learn","17:28:12","1","1","1","learn","0","0","[0, 1, 2]","22","7","setsizechunk","3S","sports","1","10","0","1","2","",""
"317","null","learn","17:28:12","2","2","2","learn","2","2","[0, 1, 2]","23","7","setsizechunk","3S","sports","1","11","2","1","2","",""
"427","null","learn","17:28:12","1","1","1","learn","0","0","[0, 1, 2]","24","8","setsizechunk","3S","sports","1","12","0","1","2","",""
"397","null","learn","17:28:12","0","0","0","learn","0","0","[0, 1, 2]","25","8","setsizechunk","3S","sports","1","13","0","1","2","",""
"360","null","learn","17:28:12","2","2","2","learn","2","2","[0, 1, 2]","26","8","setsizechunk","3S","sports","1","14","2","1","2","",""
"336","null","learn","17:28:12","1","1","1","learn","0","0","[0, 1, 2]","27","9","setsizechunk","3S","sports","1","15","0","1","2","",""
"323","null","learn","17:28:12","0","0","0","learn","0","0","[0, 1, 2]","28","9","setsizechunk","3S","sports","1","16","0","1","2","",""
"298","null","learn","17:28:12","2","2","2","learn","2","2","[0, 1, 2]","29","9","setsizechunk","3S","sports","1","17","2","1","2","",""
"489","null","learn","17:28:12","2","2","2","learn","2","2","[0, 1, 2]","30","10","setsizechunk","3S","sports","1","18","2","1","2","",""
"402","null","learn","17:28:12","0","0","0","learn","0","0","[0, 1, 2]","31","10","setsizechunk","3S","sports","1","19","0","1","2","",""
"344","null","learn","17:28:12","1","1","1","learn","0","0","[0, 1, 2]","32","10","setsizechunk","3S","sports","1","20","0","1","2","",""
"367","null","learn","17:28:12","2","2","2","learn","2","2","[0, 1, 2]","33","11","setsizechunk","3S","sports","1","21","2","1","2","",""
"408","null","learn","17:28:12","1","1","1","learn","0","0","[0, 1, 2]","34","11","setsizechunk","3S","sports","1","22","0","1","2","",""
"385","null","learn","17:28:12","0","0","0","learn","0","0","[0, 1, 2]","35","11","setsizechunk","3S","sports","1","23","0","1","2","",""
"340","null","learn","17:28:12","0","0","0","learn","0","0","[0, 1, 2]","36","12","setsizechunk","3S","sports","1","0","2","0","2","",""
"327","null","learn","17:28:12","2","2","2","learn","2","2","[0, 1, 2]","37","12","setsizechunk","3S","sports","1","1","2","1","2","",""
"550","null","learn","17:28:12","1","1","1","learn","0","0","[0, 1, 2]","38","12","setsizechunk","3S","sports","1","2","0","1","2","",""
"379","null","learn","17:28:12","2","2","2","learn","2","2","[0, 1, 2]","39","13","setsizechunk","3S","sports","1","3","2","1","2","",""
"399","null","learn","17:28:12","0","0","0","learn","0","0","[0, 1, 2]","40","13","setsizechunk","3S","sports","1","4","0","1","2","",""
"383","null","learn","17:28:12","1","1","1","learn","0","0","[0, 1, 2]","41","13","setsizechunk","3S","sports","1","5","0","1","2","",""
"417","null","learn","17:28:12","1","1","1","learn","0","0","[0, 1, 2]","42","14","setsizechunk","3S","sports","1","6","0","1","2","",""
"426","null","learn","17:28:12","0","0","0","learn","0","0","[0, 1, 2]","43","14","setsizechunk","3S","sports","1","7","0","1","2","",""
"301","null","learn","17:28:12","2","2","2","learn","2","2","[0, 1, 2]","44","14","setsizechunk","3S","sports","1","8","2","1","2","",""
"369","null","learn","17:28:12","1","1","1","learn","0","0","[0, 1, 2]","45","15","setsizechunk","3S","sports","1","9","0","1","2","",""
"99","null","memory","17:28:12","0","电池","10","memory","99","","[]","90","0","setsizechunk","3S","sports","1","","99","99","2","",""
"99","null","memory","17:28:12","8","窗帘","3","memory","99","","[]","91","0","setsizechunk","3S","sports","1","","99","99","2","",""
"99","null","memory","17:28:12","0","柔和","15","memory","99","","[]","92","0","setsizechunk","3S","sports","1","","99","99","2","",""
"99","null","memory","17:28:12","8","广阔","13","memory","99","","[]","93","0","setsizechunk","3S","sports","1","","99","99","2","",""
"99","null","memory","17:28:12","2","玻璃","12","memory","99","","[]","94","0","setsizechunk","3S","sports","1","","99","99","2","",""
"99","null","memory","17:28:12","1","峡谷","6","memory","99","","[]","95","0","setsizechunk","3S","sports","1","","99","99","2","",""
"99","null","memory","17:28:12","2","清新","2","memory","99","","[]","96","0","setsizechunk","3S","sports","1","","99","99","2","",""
"99","null","memory","17:28:12","8","深邃","8","memory","99","","[]","97","0","setsizechunk","3S","sports","1","","99","99","2","",""
"99","null","memory","17:28:12","8","钢笔","18","memory","99","","[]","98","0","setsizechunk","3S","sports","1","","99","99","2","",""
"99","null","memory","17:28:12","1","明亮","16","memory","99","","[]","99","0","setsizechunk","3S","sports","1","","99","99","2","",""
"99","null","memory","17:28:12","2","山峰","7","memory","99","","[]","100","0","setsizechunk","3S","sports","1","","99","99","2","",""
"99","null","memory","17:28:12","9","笔墨","4","memory","99","","[]","101","0","setsizechunk","3S","sports","1","","99","99","2","",""
"99","null","memory","17:28:12","1","纸巾","1","memory","99","","[]","102","0","setsizechunk","3S","sports","1","","99","99","2","",""
"99","null","memory","17:28:12","9","雨伞","14","memory","99","","[]","103","0","setsizechunk","3S","sports","1","","99","99","2","",""
"99","null","memory","17:28:12","2","灯泡","17","memory","99","","[]","104","0","setsizechunk","3S","sports","1","","99","99","2","",""
"99","null","memory","17:28:12","9","书本","9","memory","99","","[]","105","0","setsizechunk","3S","sports","1","","99","99","2","",""
"99","null","memory","17:28:12","9","湖泊","19","memory","99","","[]","106","0","setsizechunk","3S","sports","1","","99","99","2","",""
"99","null","memory","17:28:12","0","钥匙","5","memory","99","","[]","107","0","setsizechunk","3S","sports","1","","99","99","2","",""
"99","null","memory","17:28:12","0","纸张","0","memory","99","","[]","108","0","setsizechunk","3S","sports","1","","99","99","2","",""
"99","null","memory","17:28:12","1","沙漠","11","memory","99","","[]","109","0","setsizechunk","3S","sports","1","","99","99","2","",""
"99","null","memory","17:28:12","1","峡谷","6","memory","99","","[]","110","1","setsizechunk","3S","sports","1","","99","99","2","",""
"99","null","memory","17:28:12","8","钢笔","18","memory","99","","[]","111","1","setsizechunk","3S","sports","1","","99","99","2","",""
"99","null","memory","17:28:12","0","柔和","15","memory","99","","[]","112","1","setsizechunk","3S","sports","1","","99","99","2","",""
"99","null","memory","17:28:12","8","深邃","8","memory","99","","[]","113","1","setsizechunk","3S","sports","1","","99","99","2","",""
"99","null","memory","17:28:12","8","窗帘","3","memory","99","","[]","114","1","setsizechunk","3S","sports","1","","99","99","2","",""
"99","null","memory","17:28:12","2","玻璃","12","memory","99","","[]","115","1","setsizechunk","3S","sports","1","","99","99","2","",""
"99","null","memory","17:28:12","2","山峰","7","memory","99","","[]","116","1","setsizechunk","3S","sports","1","","99","99","2","",""
"99","null","memory","17:28:12","1","沙漠","11","memory","99","","[]","117","1","setsizechunk","3S","sports","1","","99","99","2","",""
"99","null","memory","17:28:12","0","电池","10","memory","99","","[]","118","1","setsizechunk","3S","sports","1","","99","99","2","",""
"99","null","memory","17:28:12","1","明亮","16","memory","99","","[]","119","1","setsizechunk","3S","sports","1","","99","99","2","",""
"99","null","memory","17:28:12","2","清新","2","memory","99","","[]","120","1","setsizechunk","3S","sports","1","","99","99","2","",""
"99","null","memory","17:28:12","0","钥匙","5","memory","99","","[]","121","1","setsizechunk","3S","sports","1","","99","99","2","",""
"99","null","memory","17:28:12","9","湖泊","19","memory","99","","[]","122","1","setsizechunk","3S","sports","1","","99","99","2","",""
"99","null","memory","17:28:12","9","书本","9","memory","99","","[]","123","1","setsizechunk","3S","sports","1","","99","99","2","",""
"99","null","memory","17:28:12","2","灯泡","17","memory","99","","[]","124","1","setsizechunk","3S","sports","1","","99","99","2","",""
"99","null","memory","17:28:12","9","笔墨","4","memory","99","","[]","125","1","setsizechunk","3S","sports","1","","99","99","2","",""
"99","null","memory","17:28:12","8","广阔","13","memory","99","","[]","126","1","setsizechunk","3S","sports","1","","99","99","2","",""
"99","null","memory","17:28:12","1","纸巾","1","memory","99","","[]","127","1","setsizechunk","3S","sports","1","","99","99","2","",""
"99","null","memory","17:28:12","9","雨伞","14","memory","99","","[]","128","1","setsizechunk","3S","sports","1","","99","99","2","",""
"99","null","memory","17:28:12","0","纸张","0","memory","99","","[]","129","1","setsizechunk","3S","sports","1","","99","99","2","",""
"4589","100","recognition","17:28:12","8","深邃","8","recognition","1","","[]","130","99","setsizechunk","3S","sports","1","","","1","2","50","0"
"3884","100","recognition","17:28:12","1","明亮","16","recognition","1","","[]","131","99","setsizechunk","3S","sports","1","","","1","2","50","0"
"6300","0","recognition","17:28:12","2","电池","10","recognition","0","","[]","132","99","setsizechunk","3S","sports","1","","","1","2","50","2"
"2044","0","recognition","17:28:12","2","窗帘","3","recognition","0","","[]","133","99","setsizechunk","3S","sports","1","","","1","2","50","3"
"2615","0","recognition","17:28:12","1","钥匙","5","recognition","0","","[]","134","99","setsizechunk","3S","sports","1","","","1","2","50","1"
"2127","0","recognition","17:28:12","0","清新","2","recognition","0","","[]","135","99","setsizechunk","3S","sports","1","","","1","2","50","2"
"12339","57","recognition","17:28:12","8","钢笔","18","recognition","1","","[]","136","99","setsizechunk","3S","sports","1","","","1","2","50","0"
"2413","100","recognition","17:28:12","0","柔和","15","recognition","1","","[]","137","99","setsizechunk","3S","sports","1","","","1","2","50","0"
"1905","100","recognition","17:28:12","8","广阔","13","recognition","1","","[]","138","99","setsizechunk","3S","sports","1","","","1","2","50","0"
"1799","0","recognition","17:28:12","0","峡谷","6","recognition","0","","[]","139","99","setsizechunk","3S","sports","1","","","1","2","50","1"
"1712","100","recognition","17:28:12","9","书本","9","recognition","1","","[]","140","99","setsizechunk","3S","sports","1","","","1","2","50","0"
"2320","0","recognition","17:28:12","1","山峰","7","recognition","0","","[]","141","99","setsizechunk","3S","sports","1","","","1","2","50","2"
"2812","0","recognition","17:28:12","2","沙漠","11","recognition","0","","[]","142","99","setsizechunk","3S","sports","1","","","1","2","50","2"
"1502","100","recognition","17:28:12","9","笔墨","4","recognition","1","","[]","143","99","setsizechunk","3S","sports","1","","","1","2","50","0"
"6612","100","recognition","17:28:12","2","灯泡","17","recognition","1","","[]","144","99","setsizechunk","3S","sports","1","","","1","2","50","0"
"3392","100","recognition","17:28:12","9","雨伞","14","recognition","1","","[]","145","99","setsizechunk","3S","sports","1","","","1","2","50","0"
"2172","100","recognition","17:28:12","9","湖泊","19","recognition","1","","[]","146","99","setsizechunk","3S","sports","1","","","1","2","50","0"
"4259","0","recognition","17:28:12","8","玻璃","12","recognition","0","","[]","147","99","setsizechunk","3S","sports","1","","","1","2","50","3"
"6440","0","recognition","17:28:12","1","纸张","0","recognition","0","","[]","148","99","setsizechunk","3S","sports","1","","","1","2","50","1"
"3511","0","recognition","17:28:12","0","纸巾","1","recognition","0","","[]","149","99","setsizechunk","3S","sports","1","","","1","2","50","1"
"443","null","learn","17:28:12","1","1","1","learn","0","0","[0, 1, 2]","0","0","setsizechunk","6S","animals","2","10","0","1","2","",""
"306","null","learn","17:28:12","0","0","0","learn","0","0","[0, 1, 2]","1","0","setsizechunk","6S","animals","2","0","1","0","2","",""
"835","null","learn","17:28:12","5","5","5","learn","2","2","[0, 1, 2]","2","0","setsizechunk","6S","animals","2","0","0","0","2","",""
"750","null","learn","17:28:12","2","2","2","learn","1","1","[0, 1, 2]","3","0","setsizechunk","6S","animals","2","0","0","0","2","",""
"1901","null","learn","17:28:12","4","4","4","learn","2","2","[0, 1, 2]","4","0","setsizechunk","6S","animals","2","1","2","1","2","",""
"679","null","learn","17:28:12","3","3","3","learn","1","1","[0, 1, 2]","5","0","setsizechunk","6S","animals","2","0","2","0","2","",""
"853","null","learn","17:28:12","4","4","4","learn","2","2","[0, 1, 2]","6","1","setsizechunk","6S","animals","2","0","1","0","2","",""
"641","null","learn","17:28:12","1","1","1","learn","0","0","[0, 1, 2]","7","1","setsizechunk","6S","animals","2","1","0","1","2","",""
"1293","null","learn","17:28:12","2","2","2","learn","1","1","[0, 1, 2]","8","1","setsizechunk","6S","animals","2","0","2","0","2","",""
"607","null","learn","17:28:12","0","0","0","learn","0","0","[0, 1, 2]","9","1","setsizechunk","6S","animals","2","1","0","1","2","",""
"502","null","learn","17:28:12","5","5","5","learn","2","2","[0, 1, 2]","10","1","setsizechunk","6S","animals","2","0","0","0","2","",""
"841","null","learn","17:28:12","3","3","3","learn","1","1","[0, 1, 2]","11","1","setsizechunk","6S","animals","2","0","2","0","2","",""
"848","null","learn","17:28:12","0","0","0","learn","0","0","[0, 1, 2]","12","2","setsizechunk","6S","animals","2","1","0","1","2","",""
"934","null","learn","17:28:12","2","2","2","learn","1","1","[0, 1, 2]","13","2","setsizechunk","6S","animals","2","2","1","1","2","",""
"537","null","learn","17:28:12","3","3","3","learn","1","1","[0, 1, 2]","14","2","setsizechunk","6S","animals","2","3","1","1","2","",""
"509","null","learn","17:28:12","5","5","5","learn","2","2","[0, 1, 2]","15","2","setsizechunk","6S","animals","2","4","2","1","2","",""
"600","null","learn","17:28:12","1","1","1","learn","0","0","[0, 1, 2]","16","2","setsizechunk","6S","animals","2","5","0","1","2","",""
"720","null","learn","17:28:12","4","4","4","learn","2","2","[0, 1, 2]","17","2","setsizechunk","6S","animals","2","6","2","1","2","",""
"541","null","learn","17:28:12","0","0","0","learn","0","0","[0, 1, 2]","18","3","setsizechunk","6S","animals","2","7","0","1","2","",""
"680","null","learn","17:28:12","5","5","5","learn","2","2","[0, 1, 2]","19","3","setsizechunk","6S","animals","2","0","1","0","2","",""
"709","null","learn","17:28:12","3","3","3","learn","1","1","[0, 1, 2]","20","3","setsizechunk","6S","animals","2","1","1","1","2","",""
"558","null","learn","17:28:12","1","1","1","learn","0","0","[0, 1, 2]","21","3","setsizechunk","6S","animals","2","2","0","1","2","",""
"578","null","learn","17:28:12","2","2","2","learn","1","1","[0, 1, 2]","22","3","setsizechunk","6S","animals","2","3","1","1","2","",""
"626","null","learn","17:28:12","4","4","4","learn","2","2","[0, 1, 2]","23","3","setsizechunk","6S","animals","2","4","2","1","2","",""
"802","null","learn","17:28:12","2","2","2","learn","1","1","[0, 1, 2]","24","4","setsizechunk","6S","animals","2","5","1","1","2","",""
"1102","null","learn","17:28:12","3","3","3","learn","1","1","[0, 1, 2]","25","4","setsizechunk","6S","animals","2","6","1","1","2","",""
"487","null","learn","17:28:12","1","1","1","learn","0","0","[0, 1, 2]","26","4","setsizechunk","6S","animals","2","7","0","1","2","",""
"687","null","learn","17:28:12","5","5","5","learn","2","2","[0, 1, 2]","27","4","setsizechunk","6S","animals","2","8","2","1","2","",""
"629","null","learn","17:28:12","0","0","0","learn","0","0","[0, 1, 2]","28","4","setsizechunk","6S","animals","2","9","0","1","2","",""
"843","null","learn","17:28:12","4","4","4","learn","2","2","[0, 1, 2]","29","4","setsizechunk","6S","animals","2","10","2","1","2","",""
"609","null","learn","17:28:12","0","0","0","learn","0","0","[0, 1, 2]","30","5","setsizechunk","6S","animals","2","11","0","1","2","",""
"582","null","learn","17:28:12","4","4","4","learn","2","2","[0, 1, 2]","31","5","setsizechunk","6S","animals","2","12","2","1","2","",""
"883","null","learn","17:28:12","3","3","3","learn","1","1","[0, 1, 2]","32","5","setsizechunk","6S","animals","2","13","1","1","2","",""
"573","null","learn","17:28:12","1","1","1","learn","0","0","[0, 1, 2]","33","5","setsizechunk","6S","animals","2","14","0","1","2","",""
"747","null","learn","17:28:12","5","5","5","learn","2","2","[0, 1, 2]","34","5","setsizechunk","6S","animals","2","15","2","1","2","",""
"617","null","learn","17:28:12","2","2","2","learn","1","1","[0, 1, 2]","35","5","setsizechunk","6S","animals","2","16","1","1","2","",""
"808","null","learn","17:28:12","4","4","4","learn","2","2","[0, 1, 2]","36","6","setsizechunk","6S","animals","2","17","2","1","2","",""
"609","null","learn","17:28:12","0","0","0","learn","0","0","[0, 1, 2]","37","6","setsizechunk","6S","animals","2","18","0","1","2","",""
"615","null","learn","17:28:12","2","2","2","learn","1","1","[0, 1, 2]","38","6","setsizechunk","6S","animals","2","19","1","1","2","",""
"997","null","learn","17:28:12","3","3","3","learn","1","1","[0, 1, 2]","39","6","setsizechunk","6S","animals","2","20","1","1","2","",""
"513","null","learn","17:28:12","1","1","1","learn","0","0","[0, 1, 2]","40","6","setsizechunk","6S","animals","2","21","0","1","2","",""
"618","null","learn","17:28:12","5","5","5","learn","2","2","[0, 1, 2]","41","6","setsizechunk","6S","animals","2","22","2","1","2","",""
"547","null","learn","17:28:12","3","3","3","learn","1","1","[0, 1, 2]","42","7","setsizechunk","6S","animals","2","23","1","1","2","",""
"779","null","learn","17:28:12","0","0","0","learn","0","0","[0, 1, 2]","43","7","setsizechunk","6S","animals","2","24","0","1","2","",""
"614","null","learn","17:28:12","2","2","2","learn","1","1","[0, 1, 2]","44","7","setsizechunk","6S","animals","2","25","1","1","2","",""
"536","null","learn","17:28:12","1","1","1","learn","0","0","[0, 1, 2]","45","7","setsizechunk","6S","animals","2","26","0","1","2","",""
"630","null","learn","17:28:12","5","5","5","learn","2","2","[0, 1, 2]","46","7","setsizechunk","6S","animals","2","27","2","1","2","",""
"578","null","learn","17:28:12","4","4","4","learn","2","2","[0, 1, 2]","47","7","setsizechunk","6S","animals","2","28","2","1","2","",""
"624","null","learn","17:28:12","3","3","3","learn","1","1","[0, 1, 2]","48","8","setsizechunk","6S","animals","2","29","1","1","2","",""
"602","null","learn","17:28:12","4","4","4","learn","2","2","[0, 1, 2]","49","8","setsizechunk","6S","animals","2","30","2","1","2","",""
"523","null","learn","17:28:12","2","2","2","learn","1","1","[0, 1, 2]","50","8","setsizechunk","6S","animals","2","31","1","1","2","",""
"522","null","learn","17:28:12","5","5","5","learn","2","2","[0, 1, 2]","51","8","setsizechunk","6S","animals","2","32","2","1","2","",""
"516","null","learn","17:28:12","0","0","0","learn","0","0","[0, 1, 2]","52","8","setsizechunk","6S","animals","2","33","0","1","2","",""
"549","null","learn","17:28:12","1","1","1","learn","0","0","[0, 1, 2]","53","8","setsizechunk","6S","animals","2","34","0","1","2","",""
"495","null","learn","17:28:12","2","2","2","learn","1","1","[0, 1, 2]","54","9","setsizechunk","6S","animals","2","35","1","1","2","",""
"516","null","learn","17:28:12","0","0","0","learn","0","0","[0, 1, 2]","55","9","setsizechunk","6S","animals","2","36","0","1","2","",""
"547","null","learn","17:28:12","5","5","5","learn","2","2","[0, 1, 2]","56","9","setsizechunk","6S","animals","2","37","2","1","2","",""
"555","null","learn","17:28:12","1","1","1","learn","0","0","[0, 1, 2]","57","9","setsizechunk","6S","animals","2","38","0","1","2","",""
"528","null","learn","17:28:12","4","4","4","learn","2","2","[0, 1, 2]","58","9","setsizechunk","6S","animals","2","39","2","1","2","",""
"520","null","learn","17:28:12","3","3","3","learn","1","1","[0, 1, 2]","59","9","setsizechunk","6S","animals","2","40","1","1","2","",""
"601","null","learn","17:28:12","0","0","0","learn","0","0","[0, 1, 2]","60","10","setsizechunk","6S","animals","2","41","0","1","2","",""
"606","null","learn","17:28:12","1","1","1","learn","0","0","[0, 1, 2]","61","10","setsizechunk","6S","animals","2","42","0","1","2","",""
"485","null","learn","17:28:12","3","3","3","learn","1","1","[0, 1, 2]","62","10","setsizechunk","6S","animals","2","43","1","1","2","",""
"657","null","learn","17:28:12","4","4","4","learn","2","2","[0, 1, 2]","63","10","setsizechunk","6S","animals","2","44","2","1","2","",""
"545","null","learn","17:28:12","2","2","2","learn","1","1","[0, 1, 2]","64","10","setsizechunk","6S","animals","2","45","1","1","2","",""
"570","null","learn","17:28:12","5","5","5","learn","2","2","[0, 1, 2]","65","10","setsizechunk","6S","animals","2","46","2","1","2","",""
"493","null","learn","17:28:12","0","0","0","learn","0","0","[0, 1, 2]","66","11","setsizechunk","6S","animals","2","47","0","1","2","",""
"658","null","learn","17:28:12","3","3","3","learn","1","1","[0, 1, 2]","67","11","setsizechunk","6S","animals","2","48","1","1","2","",""
"517","null","learn","17:28:12","1","1","1","learn","0","0","[0, 1, 2]","68","11","setsizechunk","6S","animals","2","49","0","1","2","",""
"544","null","learn","17:28:12","2","2","2","learn","1","1","[0, 1, 2]","69","11","setsizechunk","6S","animals","2","50","1","1","2","",""
"430","null","learn","17:28:12","5","5","5","learn","2","2","[0, 1, 2]","70","11","setsizechunk","6S","animals","2","51","2","1","2","",""
"561","null","learn","17:28:12","4","4","4","learn","2","2","[0, 1, 2]","71","11","setsizechunk","6S","animals","2","52","2","1","2","",""
"571","null","learn","17:28:12","0","0","0","learn","0","0","[0, 1, 2]","72","12","setsizechunk","6S","animals","2","53","0","1","2","",""
"523","null","learn","17:28:12","1","1","1","learn","0","0","[0, 1, 2]","73","12","setsizechunk","6S","animals","2","54","0","1","2","",""
"617","null","learn","17:28:12","5","5","5","learn","2","2","[0, 1, 2]","74","12","setsizechunk","6S","animals","2","55","2","1","2","",""
"604","null","learn","17:28:12","2","2","2","learn","1","1","[0, 1, 2]","75","12","setsizechunk","6S","animals","2","56","1","1","2","",""
"604","null","learn","17:28:12","3","3","3","learn","1","1","[0, 1, 2]","76","12","setsizechunk","6S","animals","2","57","1","1","2","",""
"565","null","learn","17:28:12","4","4","4","learn","2","2","[0, 1, 2]","77","12","setsizechunk","6S","animals","2","58","2","1","2","",""
"577","null","learn","17:28:12","2","2","2","learn","1","1","[0, 1, 2]","78","13","setsizechunk","6S","animals","2","59","1","1","2","",""
"483","null","learn","17:28:12","3","3","3","learn","1","1","[0, 1, 2]","79","13","setsizechunk","6S","animals","2","60","1","1","2","",""
"747","null","learn","17:28:12","4","4","4","learn","2","2","[0, 1, 2]","80","13","setsizechunk","6S","animals","2","61","2","1","2","",""
"571","null","learn","17:28:12","1","1","1","learn","0","0","[0, 1, 2]","81","13","setsizechunk","6S","animals","2","62","0","1","2","",""
"570","null","learn","17:28:12","5","5","5","learn","2","2","[0, 1, 2]","82","13","setsizechunk","6S","animals","2","63","2","1","2","",""
"551","null","learn","17:28:12","0","0","0","learn","0","0","[0, 1, 2]","83","13","setsizechunk","6S","animals","2","64","0","1","2","",""
"661","null","learn","17:28:12","4","4","4","learn","2","2","[0, 1, 2]","84","14","setsizechunk","6S","animals","2","65","2","1","2","",""
"637","null","learn","17:28:12","3","3","3","learn","1","1","[0, 1, 2]","85","14","setsizechunk","6S","animals","2","66","1","1","2","",""
"623","null","learn","17:28:12","5","5","5","learn","2","2","[0, 1, 2]","86","14","setsizechunk","6S","animals","2","67","2","1","2","",""
"559","null","learn","17:28:12","0","0","0","learn","0","0","[0, 1, 2]","87","14","setsizechunk","6S","animals","2","68","0","1","2","",""
"733","null","learn","17:28:12","1","1","1","learn","0","0","[0, 1, 2]","88","14","setsizechunk","6S","animals","2","69","0","1","2","",""
"1042","null","learn","17:28:12","2","2","2","learn","1","1","[0, 1, 2]","89","14","setsizechunk","6S","animals","2","70","1","1","2","",""
"602","null","learn","17:28:12","1","1","1","learn","0","0","[0, 1, 2]","90","15","setsizechunk","6S","animals","2","71","0","1","2","",""
"99","null","memory","17:28:12","2","瀑布","17","memory","99","","[]","180","0","setsizechunk","6S","animals","2","","99","99","2","",""
"99","null","memory","17:28:12","0","雪山","5","memory","99","","[]","181","0","setsizechunk","6S","animals","2","","99","99","2","",""
"99","null","memory","17:28:12","2","沉稳","12","memory","99","","[]","182","0","setsizechunk","6S","animals","2","","99","99","2","",""
"99","null","memory","17:28:12","1","淡雅","16","memory","99","","[]","183","0","setsizechunk","6S","animals","2","","99","99","2","",""
"99","null","memory","17:28:12","9","镜子","4","memory","99","","[]","184","0","setsizechunk","6S","animals","2","","99","99","2","",""
"99","null","memory","17:28:12","1","沉稳","11","memory","99","","[]","185","0","setsizechunk","6S","animals","2","","99","99","2","",""
"99","null","memory","17:28:12","9","橡皮","19","memory","99","","[]","186","0","setsizechunk","6S","animals","2","","99","99","2","",""
"99","null","memory","17:28:12","9","纯净","9","memory","99","","[]","187","0","setsizechunk","6S","animals","2","","99","99","2","",""
"99","null","memory","17:28:12","9","纸袋","14","memory","99","","[]","188","0","setsizechunk","6S","animals","2","","99","99","2","",""
"99","null","memory","17:28:12","0","岩石","10","memory","99","","[]","189","0","setsizechunk","6S","animals","2","","99","99","2","",""
"99","null","memory","17:28:12","2","粉笔","7","memory","99","","[]","190","0","setsizechunk","6S","animals","2","","99","99","2","",""
"99","null","memory","17:28:12","0","纸盒","15","memory","99","","[]","191","0","setsizechunk","6S","animals","2","","99","99","2","",""
"99","null","memory","17:28:12","0","针线","0","memory","99","","[]","192","0","setsizechunk","6S","animals","2","","99","99","2","",""
"99","null","memory","17:28:12","8","湿地","18","memory","99","","[]","193","0","setsizechunk","6S","animals","2","","99","99","2","",""
"99","null","memory","17:28:12","8","书包","8","memory","99","","[]","194","0","setsizechunk","6S","animals","2","","99","99","2","",""
"99","null","memory","17:28:12","8","书架","13","memory","99","","[]","195","0","setsizechunk","6S","animals","2","","99","99","2","",""
"99","null","memory","17:28:12","1","插头","6","memory","99","","[]","196","0","setsizechunk","6S","animals","2","","99","99","2","",""
"99","null","memory","17:28:12","1","线缆","1","memory","99","","[]","197","0","setsizechunk","6S","animals","2","","99","99","2","",""
"99","null","memory","17:28:12","8","书签","3","memory","99","","[]","198","0","setsizechunk","6S","animals","2","","99","99","2","",""
"99","null","memory","17:28:12","2","丘陵","2","memory","99","","[]","199","0","setsizechunk","6S","animals","2","","99","99","2","",""
"99","null","memory","17:28:12","8","湿地","18","memory","99","","[]","200","1","setsizechunk","6S","animals","2","","99","99","2","",""
"99","null","memory","17:28:12","0","岩石","10","memory","99","","[]","201","1","setsizechunk","6S","animals","2","","99","99","2","",""
"99","null","memory","17:28:12","9","橡皮","19","memory","99","","[]","202","1","setsizechunk","6S","animals","2","","99","99","2","",""
"99","null","memory","17:28:12","2","沉稳","12","memory","99","","[]","203","1","setsizechunk","6S","animals","2","","99","99","2","",""
"99","null","memory","17:28:12","1","插头","6","memory","99","","[]","204","1","setsizechunk","6S","animals","2","","99","99","2","",""
"99","null","memory","17:28:12","9","纸袋","14","memory","99","","[]","205","1","setsizechunk","6S","animals","2","","99","99","2","",""
"99","null","memory","17:28:12","2","粉笔","7","memory","99","","[]","206","1","setsizechunk","6S","animals","2","","99","99","2","",""
"99","null","memory","17:28:12","1","线缆","1","memory","99","","[]","207","1","setsizechunk","6S","animals","2","","99","99","2","",""
"99","null","memory","17:28:12","9","纯净","9","memory","99","","[]","208","1","setsizechunk","6S","animals","2","","99","99","2","",""
"99","null","memory","17:28:12","0","雪山","5","memory","99","","[]","209","1","setsizechunk","6S","animals","2","","99","99","2","",""
"99","null","memory","17:28:12","0","针线","0","memory","99","","[]","210","1","setsizechunk","6S","animals","2","","99","99","2","",""
"99","null","memory","17:28:12","1","淡雅","16","memory","99","","[]","211","1","setsizechunk","6S","animals","2","","99","99","2","",""
"99","null","memory","17:28:12","1","沉稳","11","memory","99","","[]","212","1","setsizechunk","6S","animals","2","","99","99","2","",""
"99","null","memory","17:28:12","0","纸盒","15","memory","99","","[]","213","1","setsizechunk","6S","animals","2","","99","99","2","",""
"99","null","memory","17:28:12","8","书签","3","memory","99","","[]","214","1","setsizechunk","6S","animals","2","","99","99","2","",""
"99","null","memory","17:28:12","9","镜子","4","memory","99","","[]","215","1","setsizechunk","6S","animals","2","","99","99","2","",""
"99","null","memory","17:28:12","2","丘陵","2","memory","99","","[]","216","1","setsizechunk","6S","animals","2","","99","99","2","",""
"99","null","memory","17:28:12","8","书架","13","memory","99","","[]","217","1","setsizechunk","6S","animals","2","","99","99","2","",""
"99","null","memory","17:28:12","2","瀑布","17","memory","99","","[]","218","1","setsizechunk","6S","animals","2","","99","99","2","",""
"99","null","memory","17:28:12","8","书包","8","memory","99","","[]","219","1","setsizechunk","6S","animals","2","","99","99","2","",""
"2607","0","recognition","17:28:12","2","岩石","10","recognition","0","","[]","220","99","setsizechunk","6S","animals","2","","","1","2","50","2"
"1986","0","recognition","17:28:12","1","雪山","5","recognition","0","","[]","221","99","setsizechunk","6S","animals","2","","","1","2","50","1"
"2594","100","recognition","17:28:12","2","瀑布","17","recognition","1","","[]","222","99","setsizechunk","6S","animals","2","","","1","2","50","0"
"2171","100","recognition","17:28:12","2","沉稳","11","recognition","0","","[]","223","99","setsizechunk","6S","animals","2","","","0","2","50","2"
"1927","0","recognition","17:28:12","0","插头","6","recognition","0","","[]","224","99","setsizechunk","6S","animals","2","","","1","2","50","1"
"3993","0","recognition","17:28:12","0","线缆","1","recognition","0","","[]","225","99","setsizechunk","6S","animals","2","","","1","2","50","1"
"2401","0","recognition","17:28:12","0","丘陵","2","recognition","0","","[]","226","99","setsizechunk","6S","animals","2","","","1","2","50","2"
"1499","100","recognition","17:28:12","8","湿地","18","recognition","1","","[]","227","99","setsizechunk","6S","animals","2","","","1","2","50","0"
"1481","100","recognition","17:28:12","9","橡皮","19","recognition","1","","[]","228","99","setsizechunk","6S","animals","2","","","1","2","50","0"
"1475","100","recognition","17:28:12","8","书架","13","recognition","1","","[]","229","99","setsizechunk","6S","animals","2","","","1","2","50","0"
"1572","100","recognition","17:28:12","9","镜子","4","recognition","1","","[]","230","99","setsizechunk","6S","animals","2","","","1","2","50","0"
"1800","0","recognition","17:28:12","1","粉笔","7","recognition","0","","[]","231","99","setsizechunk","6S","animals","2","","","1","2","50","2"
"1801","0","recognition","17:28:12","8","沉稳","12","recognition","0","","[]","232","99","setsizechunk","6S","animals","2","","","1","2","50","3"
"1445","100","recognition","17:28:12","8","书包","8","recognition","1","","[]","233","99","setsizechunk","6S","animals","2","","","1","2","50","0"
"4037","0","recognition","17:28:12","1","针线","0","recognition","0","","[]","234","99","setsizechunk","6S","animals","2","","","1","2","50","1"
"1855","0","recognition","17:28:12","2","书签","3","recognition","0","","[]","235","99","setsizechunk","6S","animals","2","","","1","2","50","3"
"2177","100","recognition","17:28:12","9","纸袋","14","recognition","1","","[]","236","99","setsizechunk","6S","animals","2","","","1","2","50","0"
"2017","100","recognition","17:28:12","9","纯净","9","recognition","1","","[]","237","99","setsizechunk","6S","animals","2","","","1","2","50","0"
"1526","100","recognition","17:28:12","1","淡雅","16","recognition","1","","[]","238","99","setsizechunk","6S","animals","2","","","1","2","50","0"
"5346","100","recognition","17:28:12","0","纸盒","15","recognition","1","","[]","239","99","setsizechunk","6S","animals","2","","","1","2","50","0"
