"rt","response","stage","start_time","s","word","word_id","phase","a_cor","a_real","a_ava","trial","tps","task_type","block_typ","pic_typ","block_id","cum_r","a","r","n_Prac","slider_start","pair_type"
"1474","null","learn","18:12:06","1","1","1","learn","0","0","[0, 1, 2]","0","0","setsize","99","prac","0","0","2","0","3","",""
"856","null","learn","18:12:06","0","0","0","learn","0","0","[0, 1, 2]","1","0","setsize","99","prac","0","0","1","0","3","",""
"1052","null","learn","18:12:06","2","2","2","learn","2","2","[0, 1, 2]","2","0","setsize","99","prac","0","0","0","0","3","",""
"977","null","learn","18:12:06","0","0","0","learn","0","0","[0, 1, 2]","3","1","setsize","99","prac","0","1","0","1","3","",""
"1977","null","learn","18:12:06","1","1","1","learn","0","0","[0, 1, 2]","4","1","setsize","99","prac","0","2","0","1","3","",""
"1496","null","learn","18:12:06","2","2","2","learn","2","2","[0, 1, 2]","5","1","setsize","99","prac","0","0","1","0","3","",""
"596","null","learn","18:12:06","1","1","1","learn","0","0","[0, 1, 2]","0","0","setsize","99","prac","0","1","0","1","3","",""
"907","null","learn","18:12:06","0","0","0","learn","0","0","[0, 1, 2]","1","0","setsize","99","prac","0","0","2","0","3","",""
"761","null","learn","18:12:06","2","2","2","learn","2","2","[0, 1, 2]","2","0","setsize","99","prac","0","0","1","0","3","",""
"745","null","learn","18:12:06","0","0","0","learn","0","0","[0, 1, 2]","3","1","setsize","99","prac","0","1","0","1","3","",""
"551","null","learn","18:12:06","1","1","1","learn","0","0","[0, 1, 2]","4","1","setsize","99","prac","0","2","0","1","3","",""
"971","null","learn","18:12:06","2","2","2","learn","2","2","[0, 1, 2]","5","1","setsize","99","prac","0","3","2","1","3","",""
"312","null","learn","18:12:06","1","1","1","learn","0","0","[0, 1, 2]","0","0","setsize","99","prac","0","4","0","1","3","",""
"537","null","learn","18:12:06","0","0","0","learn","0","0","[0, 1, 2]","1","0","setsize","99","prac","0","5","0","1","3","",""
"496","null","learn","18:12:06","2","2","2","learn","2","2","[0, 1, 2]","2","0","setsize","99","prac","0","6","2","1","3","",""
"899","null","learn","18:12:06","0","0","0","learn","0","0","[0, 1, 2]","3","1","setsize","99","prac","0","7","0","1","3","",""
"540","null","learn","18:12:06","1","1","1","learn","0","0","[0, 1, 2]","4","1","setsize","99","prac","0","8","0","1","3","",""
"899","null","learn","18:12:06","2","2","2","learn","2","2","[0, 1, 2]","5","1","setsize","99","prac","0","9","2","1","3","",""
"624","null","learn","18:12:06","3","3","3","learn","1","1","[0, 1, 2]","0","0","setsizechunk","6S","animals","1","10","1","1","3","",""
"796","null","learn","18:12:06","2","2","2","learn","1","1","[0, 1, 2]","1","0","setsizechunk","6S","animals","1","0","0","0","3","",""
"740","null","learn","18:12:06","5","5","5","learn","2","2","[0, 1, 2]","2","0","setsizechunk","6S","animals","1","0","1","0","3","",""
"600","null","learn","18:12:06","1","1","1","learn","0","0","[0, 1, 2]","3","0","setsizechunk","6S","animals","1","0","1","0","3","",""
"777","null","learn","18:12:06","4","4","4","learn","2","2","[0, 1, 2]","4","0","setsizechunk","6S","animals","1","0","1","0","3","",""
"561","null","learn","18:12:06","0","0","0","learn","0","0","[0, 1, 2]","5","0","setsizechunk","6S","animals","1","0","1","0","3","",""
"527","null","learn","18:12:06","3","3","3","learn","1","1","[0, 1, 2]","6","1","setsizechunk","6S","animals","1","1","1","1","3","",""
"793","null","learn","18:12:06","0","0","0","learn","0","0","[0, 1, 2]","7","1","setsizechunk","6S","animals","1","2","0","1","3","",""
"605","null","learn","18:12:06","5","5","5","learn","2","2","[0, 1, 2]","8","1","setsizechunk","6S","animals","1","0","0","0","3","",""
"1040","null","learn","18:12:06","4","4","4","learn","2","2","[0, 1, 2]","9","1","setsizechunk","6S","animals","1","0","0","0","3","",""
"1041","null","learn","18:12:06","1","1","1","learn","0","0","[0, 1, 2]","10","1","setsizechunk","6S","animals","1","1","0","1","3","",""
"952","null","learn","18:12:06","2","2","2","learn","1","1","[0, 1, 2]","11","1","setsizechunk","6S","animals","1","0","0","0","3","",""
"1328","null","learn","18:12:06","3","3","3","learn","1","1","[0, 1, 2]","12","2","setsizechunk","6S","animals","1","0","0","0","3","",""
"1081","null","learn","18:12:06","1","1","1","learn","0","0","[0, 1, 2]","13","2","setsizechunk","6S","animals","1","0","2","0","3","",""
"885","null","learn","18:12:06","2","2","2","learn","1","1","[0, 1, 2]","14","2","setsizechunk","6S","animals","1","0","2","0","3","",""
"1664","null","learn","18:12:06","4","4","4","learn","2","2","[0, 1, 2]","15","2","setsizechunk","6S","animals","1","1","2","1","3","",""
"1231","null","learn","18:12:06","0","0","0","learn","0","0","[0, 1, 2]","16","2","setsizechunk","6S","animals","1","2","0","1","3","",""
"2213","null","learn","18:12:06","5","5","5","learn","2","2","[0, 1, 2]","17","2","setsizechunk","6S","animals","1","3","2","1","3","",""
"1195","null","learn","18:12:06","0","0","0","learn","0","0","[0, 1, 2]","18","3","setsizechunk","6S","animals","1","4","0","1","3","",""
"2056","null","learn","18:12:06","1","1","1","learn","0","0","[0, 1, 2]","19","3","setsizechunk","6S","animals","1","0","2","0","3","",""
"1561","null","learn","18:12:06","5","5","5","learn","2","2","[0, 1, 2]","20","3","setsizechunk","6S","animals","1","1","2","1","3","",""
"886","null","learn","18:12:06","3","3","3","learn","1","1","[0, 1, 2]","21","3","setsizechunk","6S","animals","1","2","1","1","3","",""
"1241","null","learn","18:12:06","4","4","4","learn","2","2","[0, 1, 2]","22","3","setsizechunk","6S","animals","1","3","2","1","3","",""
"1591","null","learn","18:12:06","2","2","2","learn","1","1","[0, 1, 2]","23","3","setsizechunk","6S","animals","1","0","2","0","3","",""
"1131","null","learn","18:12:06","5","5","5","learn","2","2","[0, 1, 2]","24","4","setsizechunk","6S","animals","1","1","2","1","3","",""
"1296","null","learn","18:12:06","4","4","4","learn","2","2","[0, 1, 2]","25","4","setsizechunk","6S","animals","1","0","0","0","3","",""
"1379","null","learn","18:12:06","2","2","2","learn","1","1","[0, 1, 2]","26","4","setsizechunk","6S","animals","1","0","0","0","3","",""
"1248","null","learn","18:12:06","0","0","0","learn","0","0","[0, 1, 2]","27","4","setsizechunk","6S","animals","1","1","0","1","3","",""
"1301","null","learn","18:12:06","3","3","3","learn","1","1","[0, 1, 2]","28","4","setsizechunk","6S","animals","1","2","1","1","3","",""
"2045","null","learn","18:12:06","1","1","1","learn","0","0","[0, 1, 2]","29","4","setsizechunk","6S","animals","1","0","1","0","3","",""
"1120","null","learn","18:12:06","5","5","5","learn","2","2","[0, 1, 2]","30","5","setsizechunk","6S","animals","1","1","2","1","3","",""
"1992","null","learn","18:12:06","4","4","4","learn","2","2","[0, 1, 2]","31","5","setsizechunk","6S","animals","1","2","2","1","3","",""
"939","null","learn","18:12:06","3","3","3","learn","1","1","[0, 1, 2]","32","5","setsizechunk","6S","animals","1","3","1","1","3","",""
"982","null","learn","18:12:06","0","0","0","learn","0","0","[0, 1, 2]","33","5","setsizechunk","6S","animals","1","4","0","1","3","",""
"1099","null","learn","18:12:06","1","1","1","learn","0","0","[0, 1, 2]","34","5","setsizechunk","6S","animals","1","0","1","0","3","",""
"1633","null","learn","18:12:06","2","2","2","learn","1","1","[0, 1, 2]","35","5","setsizechunk","6S","animals","1","0","2","0","3","",""
"null","null","learn","18:12:06","4","4","4","learn","2","2","[0, 1, 2]","36","6","setsizechunk","6S","animals","1","0","999","0","3","",""
"671","null","learn","18:12:06","3","3","3","learn","1","1","[0, 1, 2]","37","6","setsizechunk","6S","animals","1","1","1","1","3","",""
"1018","null","learn","18:12:06","2","2","2","learn","1","1","[0, 1, 2]","38","6","setsizechunk","6S","animals","1","0","0","0","3","",""
"1363","null","learn","18:12:06","5","5","5","learn","2","2","[0, 1, 2]","39","6","setsizechunk","6S","animals","1","0","0","0","3","",""
"1519","null","learn","18:12:06","1","1","1","learn","0","0","[0, 1, 2]","40","6","setsizechunk","6S","animals","1","0","1","0","3","",""
"1033","null","learn","18:12:06","0","0","0","learn","0","0","[0, 1, 2]","41","6","setsizechunk","6S","animals","1","1","0","1","3","",""
"780","null","learn","18:12:06","0","0","0","learn","0","0","[0, 1, 2]","42","7","setsizechunk","6S","animals","1","2","0","1","3","",""
"996","null","learn","18:12:06","1","1","1","learn","0","0","[0, 1, 2]","43","7","setsizechunk","6S","animals","1","0","2","0","3","",""
"1537","null","learn","18:12:06","5","5","5","learn","2","2","[0, 1, 2]","44","7","setsizechunk","6S","animals","1","1","2","1","3","",""
"1182","null","learn","18:12:06","3","3","3","learn","1","1","[0, 1, 2]","45","7","setsizechunk","6S","animals","1","2","1","1","3","",""
"712","null","learn","18:12:06","2","2","2","learn","1","1","[0, 1, 2]","46","7","setsizechunk","6S","animals","1","0","0","0","3","",""
"964","null","learn","18:12:06","4","4","4","learn","2","2","[0, 1, 2]","47","7","setsizechunk","6S","animals","1","0","0","0","3","",""
"537","null","learn","18:12:06","3","3","3","learn","1","1","[0, 1, 2]","48","8","setsizechunk","6S","animals","1","1","1","1","3","",""
"1390","null","learn","18:12:06","0","0","0","learn","0","0","[0, 1, 2]","49","8","setsizechunk","6S","animals","1","2","0","1","3","",""
"908","null","learn","18:12:06","1","1","1","learn","0","0","[0, 1, 2]","50","8","setsizechunk","6S","animals","1","0","2","0","3","",""
"824","null","learn","18:12:06","4","4","4","learn","2","2","[0, 1, 2]","51","8","setsizechunk","6S","animals","1","1","2","1","3","",""
"1384","null","learn","18:12:06","5","5","5","learn","2","2","[0, 1, 2]","52","8","setsizechunk","6S","animals","1","2","2","1","3","",""
"783","null","learn","18:12:06","2","2","2","learn","1","1","[0, 1, 2]","53","8","setsizechunk","6S","animals","1","0","2","0","3","",""
"994","null","learn","18:12:06","4","4","4","learn","2","2","[0, 1, 2]","54","9","setsizechunk","6S","animals","1","1","2","1","3","",""
"976","null","learn","18:12:06","5","5","5","learn","2","2","[0, 1, 2]","55","9","setsizechunk","6S","animals","1","2","2","1","3","",""
"1142","null","learn","18:12:06","2","2","2","learn","1","1","[0, 1, 2]","56","9","setsizechunk","6S","animals","1","3","1","1","3","",""
"521","null","learn","18:12:06","1","1","1","learn","0","0","[0, 1, 2]","57","9","setsizechunk","6S","animals","1","0","1","0","3","",""
"804","null","learn","18:12:06","0","0","0","learn","0","0","[0, 1, 2]","58","9","setsizechunk","6S","animals","1","1","0","1","3","",""
"620","null","learn","18:12:06","3","3","3","learn","1","1","[0, 1, 2]","59","9","setsizechunk","6S","animals","1","2","1","1","3","",""
"798","null","learn","18:12:06","5","5","5","learn","2","2","[0, 1, 2]","60","10","setsizechunk","6S","animals","1","3","2","1","3","",""
"536","null","learn","18:12:06","1","1","1","learn","0","0","[0, 1, 2]","61","10","setsizechunk","6S","animals","1","4","0","1","3","",""
"1168","null","learn","18:12:06","4","4","4","learn","2","2","[0, 1, 2]","62","10","setsizechunk","6S","animals","1","5","2","1","3","",""
"814","null","learn","18:12:06","0","0","0","learn","0","0","[0, 1, 2]","63","10","setsizechunk","6S","animals","1","6","0","1","3","",""
"517","null","learn","18:12:06","3","3","3","learn","1","1","[0, 1, 2]","64","10","setsizechunk","6S","animals","1","7","1","1","3","",""
"991","null","learn","18:12:06","2","2","2","learn","1","1","[0, 1, 2]","65","10","setsizechunk","6S","animals","1","0","2","0","3","",""
"512","null","learn","18:12:06","2","2","2","learn","1","1","[0, 1, 2]","66","11","setsizechunk","6S","animals","1","1","1","1","3","",""
"914","null","learn","18:12:06","1","1","1","learn","0","0","[0, 1, 2]","67","11","setsizechunk","6S","animals","1","2","0","1","3","",""
"768","null","learn","18:12:06","3","3","3","learn","1","1","[0, 1, 2]","68","11","setsizechunk","6S","animals","1","3","1","1","3","",""
"734","null","learn","18:12:06","5","5","5","learn","2","2","[0, 1, 2]","69","11","setsizechunk","6S","animals","1","4","2","1","3","",""
"775","null","learn","18:12:06","0","0","0","learn","0","0","[0, 1, 2]","70","11","setsizechunk","6S","animals","1","5","0","1","3","",""
"1356","null","learn","18:12:06","4","4","4","learn","2","2","[0, 1, 2]","71","11","setsizechunk","6S","animals","1","6","2","1","3","",""
"728","null","learn","18:12:06","2","2","2","learn","1","1","[0, 1, 2]","72","12","setsizechunk","6S","animals","1","7","1","1","3","",""
"520","null","learn","18:12:06","0","0","0","learn","0","0","[0, 1, 2]","73","12","setsizechunk","6S","animals","1","8","0","1","3","",""
"838","null","learn","18:12:06","5","5","5","learn","2","2","[0, 1, 2]","74","12","setsizechunk","6S","animals","1","9","2","1","3","",""
"802","null","learn","18:12:06","1","1","1","learn","0","0","[0, 1, 2]","75","12","setsizechunk","6S","animals","1","10","0","1","3","",""
"1132","null","learn","18:12:06","4","4","4","learn","2","2","[0, 1, 2]","76","12","setsizechunk","6S","animals","1","11","2","1","3","",""
"657","null","learn","18:12:06","3","3","3","learn","1","1","[0, 1, 2]","77","12","setsizechunk","6S","animals","1","12","1","1","3","",""
"797","null","learn","18:12:06","5","5","5","learn","2","2","[0, 1, 2]","78","13","setsizechunk","6S","animals","1","13","2","1","3","",""
"774","null","learn","18:12:06","4","4","4","learn","2","2","[0, 1, 2]","79","13","setsizechunk","6S","animals","1","0","0","0","3","",""
"574","null","learn","18:12:06","3","3","3","learn","1","1","[0, 1, 2]","80","13","setsizechunk","6S","animals","1","1","1","1","3","",""
"694","null","learn","18:12:06","0","0","0","learn","0","0","[0, 1, 2]","81","13","setsizechunk","6S","animals","1","2","0","1","3","",""
"661","null","learn","18:12:06","2","2","2","learn","1","1","[0, 1, 2]","82","13","setsizechunk","6S","animals","1","0","0","0","3","",""
"1271","null","learn","18:12:06","1","1","1","learn","0","0","[0, 1, 2]","83","13","setsizechunk","6S","animals","1","1","0","1","3","",""
"556","null","learn","18:12:06","1","1","1","learn","0","0","[0, 1, 2]","84","14","setsizechunk","6S","animals","1","2","0","1","3","",""
"891","null","learn","18:12:06","2","2","2","learn","1","1","[0, 1, 2]","85","14","setsizechunk","6S","animals","1","3","1","1","3","",""
"826","null","learn","18:12:06","3","3","3","learn","1","1","[0, 1, 2]","86","14","setsizechunk","6S","animals","1","4","1","1","3","",""
"776","null","learn","18:12:06","5","5","5","learn","2","2","[0, 1, 2]","87","14","setsizechunk","6S","animals","1","5","2","1","3","",""
"780","null","learn","18:12:06","0","0","0","learn","0","0","[0, 1, 2]","88","14","setsizechunk","6S","animals","1","6","0","1","3","",""
"751","null","learn","18:12:06","4","4","4","learn","2","2","[0, 1, 2]","89","14","setsizechunk","6S","animals","1","7","2","1","3","",""
"601","null","learn","18:12:06","2","2","2","learn","1","1","[0, 1, 2]","90","15","setsizechunk","6S","animals","1","8","1","1","3","",""
"99","null","memory","18:12:06","9","岩石","4","memory","99","","[]","180","0","setsizechunk","6S","animals","1","","99","99","3","",""
"99","null","memory","18:12:06","8","沉稳","18","memory","99","","[]","181","0","setsizechunk","6S","animals","1","","99","99","3","",""
"99","null","memory","18:12:06","9","书包","14","memory","99","","[]","182","0","setsizechunk","6S","animals","1","","99","99","3","",""
"99","null","memory","18:12:06","0","瀑布","15","memory","99","","[]","183","0","setsizechunk","6S","animals","1","","99","99","3","",""
"99","null","memory","18:12:06","1","镜子","1","memory","99","","[]","184","0","setsizechunk","6S","animals","1","","99","99","3","",""
"99","null","memory","18:12:06","0","纸盒","10","memory","99","","[]","185","0","setsizechunk","6S","animals","1","","99","99","3","",""
"99","null","memory","18:12:06","2","纯净","7","memory","99","","[]","186","0","setsizechunk","6S","animals","1","","99","99","3","",""
"99","null","memory","18:12:06","1","纸袋","11","memory","99","","[]","187","0","setsizechunk","6S","animals","1","","99","99","3","",""
"99","null","memory","18:12:06","2","沉稳","17","memory","99","","[]","188","0","setsizechunk","6S","animals","1","","99","99","3","",""
"99","null","memory","18:12:06","2","线缆","2","memory","99","","[]","189","0","setsizechunk","6S","animals","1","","99","99","3","",""
"99","null","memory","18:12:06","9","插头","9","memory","99","","[]","190","0","setsizechunk","6S","animals","1","","99","99","3","",""
"99","null","memory","18:12:06","0","针线","0","memory","99","","[]","191","0","setsizechunk","6S","animals","1","","99","99","3","",""
"99","null","memory","18:12:06","0","丘陵","5","memory","99","","[]","192","0","setsizechunk","6S","animals","1","","99","99","3","",""
"99","null","memory","18:12:06","8","书架","3","memory","99","","[]","193","0","setsizechunk","6S","animals","1","","99","99","3","",""
"99","null","memory","18:12:06","1","雪山","6","memory","99","","[]","194","0","setsizechunk","6S","animals","1","","99","99","3","",""
"99","null","memory","18:12:06","9","书签","19","memory","99","","[]","195","0","setsizechunk","6S","animals","1","","99","99","3","",""
"99","null","memory","18:12:06","8","淡雅","8","memory","99","","[]","196","0","setsizechunk","6S","animals","1","","99","99","3","",""
"99","null","memory","18:12:06","2","橡皮","12","memory","99","","[]","197","0","setsizechunk","6S","animals","1","","99","99","3","",""
"99","null","memory","18:12:06","8","粉笔","13","memory","99","","[]","198","0","setsizechunk","6S","animals","1","","99","99","3","",""
"99","null","memory","18:12:06","1","湿地","16","memory","99","","[]","199","0","setsizechunk","6S","animals","1","","99","99","3","",""
"99","null","memory","18:12:06","9","岩石","4","memory","99","","[]","200","1","setsizechunk","6S","animals","1","","99","99","3","",""
"99","null","memory","18:12:06","1","镜子","1","memory","99","","[]","201","1","setsizechunk","6S","animals","1","","99","99","3","",""
"99","null","memory","18:12:06","8","书架","3","memory","99","","[]","202","1","setsizechunk","6S","animals","1","","99","99","3","",""
"99","null","memory","18:12:06","9","书签","19","memory","99","","[]","203","1","setsizechunk","6S","animals","1","","99","99","3","",""
"99","null","memory","18:12:06","9","书包","14","memory","99","","[]","204","1","setsizechunk","6S","animals","1","","99","99","3","",""
"99","null","memory","18:12:06","1","湿地","16","memory","99","","[]","205","1","setsizechunk","6S","animals","1","","99","99","3","",""
"99","null","memory","18:12:06","2","橡皮","12","memory","99","","[]","206","1","setsizechunk","6S","animals","1","","99","99","3","",""
"99","null","memory","18:12:06","8","沉稳","18","memory","99","","[]","207","1","setsizechunk","6S","animals","1","","99","99","3","",""
"99","null","memory","18:12:06","8","粉笔","13","memory","99","","[]","208","1","setsizechunk","6S","animals","1","","99","99","3","",""
"99","null","memory","18:12:06","1","雪山","6","memory","99","","[]","209","1","setsizechunk","6S","animals","1","","99","99","3","",""
"99","null","memory","18:12:06","1","纸袋","11","memory","99","","[]","210","1","setsizechunk","6S","animals","1","","99","99","3","",""
"99","null","memory","18:12:06","0","瀑布","15","memory","99","","[]","211","1","setsizechunk","6S","animals","1","","99","99","3","",""
"99","null","memory","18:12:06","2","沉稳","17","memory","99","","[]","212","1","setsizechunk","6S","animals","1","","99","99","3","",""
"99","null","memory","18:12:06","9","插头","9","memory","99","","[]","213","1","setsizechunk","6S","animals","1","","99","99","3","",""
"99","null","memory","18:12:06","8","淡雅","8","memory","99","","[]","214","1","setsizechunk","6S","animals","1","","99","99","3","",""
"99","null","memory","18:12:06","0","丘陵","5","memory","99","","[]","215","1","setsizechunk","6S","animals","1","","99","99","3","",""
"99","null","memory","18:12:06","2","纯净","7","memory","99","","[]","216","1","setsizechunk","6S","animals","1","","99","99","3","",""
"99","null","memory","18:12:06","2","线缆","2","memory","99","","[]","217","1","setsizechunk","6S","animals","1","","99","99","3","",""
"99","null","memory","18:12:06","0","纸盒","10","memory","99","","[]","218","1","setsizechunk","6S","animals","1","","99","99","3","",""
"99","null","memory","18:12:06","0","针线","0","memory","99","","[]","219","1","setsizechunk","6S","animals","1","","99","99","3","",""
"5009","84","recognition","18:12:06","1","纯净","7","recognition","0","","[]","220","99","setsizechunk","6S","animals","1","","","0","3","50","2"
"5773","70","recognition","18:12:06","8","淡雅","8","recognition","1","","[]","221","99","setsizechunk","6S","animals","1","","","1","3","50","0"
"5973","100","recognition","18:12:06","0","瀑布","15","recognition","1","","[]","222","99","setsizechunk","6S","animals","1","","","1","3","50","0"
"3179","100","recognition","18:12:06","2","沉稳","17","recognition","1","","[]","223","99","setsizechunk","6S","animals","1","","","1","3","50","0"
"3940","48","recognition","18:12:06","8","粉笔","13","recognition","1","","[]","224","99","setsizechunk","6S","animals","1","","","0","3","50","0"
"2654","46","recognition","18:12:06","2","纸盒","10","recognition","0","","[]","225","99","setsizechunk","6S","animals","1","","","1","3","50","2"
"2647","31","recognition","18:12:06","0","镜子","1","recognition","0","","[]","226","99","setsizechunk","6S","animals","1","","","1","3","50","1"
"2207","100","recognition","18:12:06","8","沉稳","18","recognition","1","","[]","227","99","setsizechunk","6S","animals","1","","","1","3","50","0"
"2375","44","recognition","18:12:06","9","插头","9","recognition","1","","[]","228","99","setsizechunk","6S","animals","1","","","0","3","50","0"
"2560","39","recognition","18:12:06","8","橡皮","12","recognition","0","","[]","229","99","setsizechunk","6S","animals","1","","","1","3","50","3"
"4427","38","recognition","18:12:06","2","纸袋","11","recognition","0","","[]","230","99","setsizechunk","6S","animals","1","","","1","3","50","2"
"5004","78","recognition","18:12:06","1","湿地","16","recognition","1","","[]","231","99","setsizechunk","6S","animals","1","","","1","3","50","0"
"2607","64","recognition","18:12:06","1","针线","0","recognition","0","","[]","232","99","setsizechunk","6S","animals","1","","","0","3","50","1"
"3785","37","recognition","18:12:06","9","书包","14","recognition","1","","[]","233","99","setsizechunk","6S","animals","1","","","0","3","50","0"
"3442","37","recognition","18:12:06","1","丘陵","5","recognition","0","","[]","234","99","setsizechunk","6S","animals","1","","","1","3","50","1"
"3183","41","recognition","18:12:06","2","书架","3","recognition","0","","[]","235","99","setsizechunk","6S","animals","1","","","1","3","50","3"
"3621","100","recognition","18:12:06","9","岩石","4","recognition","1","","[]","236","99","setsizechunk","6S","animals","1","","","1","3","50","0"
"3358","91","recognition","18:12:06","9","书签","19","recognition","1","","[]","237","99","setsizechunk","6S","animals","1","","","1","3","50","0"
"3314","41","recognition","18:12:06","0","雪山","6","recognition","0","","[]","238","99","setsizechunk","6S","animals","1","","","1","3","50","1"
"8365","9","recognition","18:12:06","0","线缆","2","recognition","0","","[]","239","99","setsizechunk","6S","animals","1","","","1","3","50","2"
"277","null","learn","18:12:06","2","2","2","learn","2","2","[0, 1, 2]","0","0","setsizechunk","3S","furniture","2","0","0","0","3","",""
"281","null","learn","18:12:06","1","1","1","learn","0","0","[0, 1, 2]","1","0","setsizechunk","3S","furniture","2","1","0","1","3","",""
"347","null","learn","18:12:06","0","0","0","learn","0","0","[0, 1, 2]","2","0","setsizechunk","3S","furniture","2","2","0","1","3","",""
"685","null","learn","18:12:06","1","1","1","learn","0","0","[0, 1, 2]","3","1","setsizechunk","3S","furniture","2","3","0","1","3","",""
"1092","null","learn","18:12:06","2","2","2","learn","2","2","[0, 1, 2]","4","1","setsizechunk","3S","furniture","2","0","1","0","3","",""
"430","null","learn","18:12:06","0","0","0","learn","0","0","[0, 1, 2]","5","1","setsizechunk","3S","furniture","2","1","0","1","3","",""
"485","null","learn","18:12:06","1","1","1","learn","0","0","[0, 1, 2]","6","2","setsizechunk","3S","furniture","2","2","0","1","3","",""
"373","null","learn","18:12:06","2","2","2","learn","2","2","[0, 1, 2]","7","2","setsizechunk","3S","furniture","2","3","2","1","3","",""
"424","null","learn","18:12:06","0","0","0","learn","0","0","[0, 1, 2]","8","2","setsizechunk","3S","furniture","2","4","0","1","3","",""
"740","null","learn","18:12:06","0","0","0","learn","0","0","[0, 1, 2]","9","3","setsizechunk","3S","furniture","2","5","0","1","3","",""
"900","null","learn","18:12:06","2","2","2","learn","2","2","[0, 1, 2]","10","3","setsizechunk","3S","furniture","2","6","2","1","3","",""
"531","null","learn","18:12:06","1","1","1","learn","0","0","[0, 1, 2]","11","3","setsizechunk","3S","furniture","2","7","0","1","3","",""
"844","null","learn","18:12:06","2","2","2","learn","2","2","[0, 1, 2]","12","4","setsizechunk","3S","furniture","2","8","2","1","3","",""
"676","null","learn","18:12:06","0","0","0","learn","0","0","[0, 1, 2]","13","4","setsizechunk","3S","furniture","2","9","0","1","3","",""
"1109","null","learn","18:12:06","1","1","1","learn","0","0","[0, 1, 2]","14","4","setsizechunk","3S","furniture","2","10","0","1","3","",""
"1146","null","learn","18:12:06","1","1","1","learn","0","0","[0, 1, 2]","15","5","setsizechunk","3S","furniture","2","11","0","1","3","",""
"770","null","learn","18:12:06","0","0","0","learn","0","0","[0, 1, 2]","16","5","setsizechunk","3S","furniture","2","12","0","1","3","",""
"493","null","learn","18:12:06","2","2","2","learn","2","2","[0, 1, 2]","17","5","setsizechunk","3S","furniture","2","13","2","1","3","",""
"651","null","learn","18:12:06","0","0","0","learn","0","0","[0, 1, 2]","18","6","setsizechunk","3S","furniture","2","14","0","1","3","",""
"591","null","learn","18:12:06","1","1","1","learn","0","0","[0, 1, 2]","19","6","setsizechunk","3S","furniture","2","15","0","1","3","",""
"498","null","learn","18:12:06","2","2","2","learn","2","2","[0, 1, 2]","20","6","setsizechunk","3S","furniture","2","16","2","1","3","",""
"546","null","learn","18:12:06","2","2","2","learn","2","2","[0, 1, 2]","21","7","setsizechunk","3S","furniture","2","17","2","1","3","",""
"638","null","learn","18:12:06","1","1","1","learn","0","0","[0, 1, 2]","22","7","setsizechunk","3S","furniture","2","18","0","1","3","",""
"695","null","learn","18:12:06","0","0","0","learn","0","0","[0, 1, 2]","23","7","setsizechunk","3S","furniture","2","19","0","1","3","",""
"993","null","learn","18:12:06","0","0","0","learn","0","0","[0, 1, 2]","24","8","setsizechunk","3S","furniture","2","0","2","0","3","",""
"453","null","learn","18:12:06","2","2","2","learn","2","2","[0, 1, 2]","25","8","setsizechunk","3S","furniture","2","1","2","1","3","",""
"489","null","learn","18:12:06","1","1","1","learn","0","0","[0, 1, 2]","26","8","setsizechunk","3S","furniture","2","2","0","1","3","",""
"486","null","learn","18:12:06","0","0","0","learn","0","0","[0, 1, 2]","27","9","setsizechunk","3S","furniture","2","3","0","1","3","",""
"998","null","learn","18:12:06","1","1","1","learn","0","0","[0, 1, 2]","28","9","setsizechunk","3S","furniture","2","4","0","1","3","",""
"613","null","learn","18:12:06","2","2","2","learn","2","2","[0, 1, 2]","29","9","setsizechunk","3S","furniture","2","5","2","1","3","",""
"715","null","learn","18:12:06","2","2","2","learn","2","2","[0, 1, 2]","30","10","setsizechunk","3S","furniture","2","6","2","1","3","",""
"664","null","learn","18:12:06","0","0","0","learn","0","0","[0, 1, 2]","31","10","setsizechunk","3S","furniture","2","7","0","1","3","",""
"962","null","learn","18:12:06","1","1","1","learn","0","0","[0, 1, 2]","32","10","setsizechunk","3S","furniture","2","8","0","1","3","",""
"568","null","learn","18:12:06","1","1","1","learn","0","0","[0, 1, 2]","33","11","setsizechunk","3S","furniture","2","9","0","1","3","",""
"1124","null","learn","18:12:06","2","2","2","learn","2","2","[0, 1, 2]","34","11","setsizechunk","3S","furniture","2","10","2","1","3","",""
"608","null","learn","18:12:06","0","0","0","learn","0","0","[0, 1, 2]","35","11","setsizechunk","3S","furniture","2","11","0","1","3","",""
"569","null","learn","18:12:06","2","2","2","learn","2","2","[0, 1, 2]","36","12","setsizechunk","3S","furniture","2","12","2","1","3","",""
"718","null","learn","18:12:06","0","0","0","learn","0","0","[0, 1, 2]","37","12","setsizechunk","3S","furniture","2","13","0","1","3","",""
"693","null","learn","18:12:06","1","1","1","learn","0","0","[0, 1, 2]","38","12","setsizechunk","3S","furniture","2","14","0","1","3","",""
"532","null","learn","18:12:06","1","1","1","learn","0","0","[0, 1, 2]","39","13","setsizechunk","3S","furniture","2","15","0","1","3","",""
"791","null","learn","18:12:06","0","0","0","learn","0","0","[0, 1, 2]","40","13","setsizechunk","3S","furniture","2","16","0","1","3","",""
"825","null","learn","18:12:06","2","2","2","learn","2","2","[0, 1, 2]","41","13","setsizechunk","3S","furniture","2","17","2","1","3","",""
"613","null","learn","18:12:06","2","2","2","learn","2","2","[0, 1, 2]","42","14","setsizechunk","3S","furniture","2","18","2","1","3","",""
"981","null","learn","18:12:06","0","0","0","learn","0","0","[0, 1, 2]","43","14","setsizechunk","3S","furniture","2","0","2","0","3","",""
"578","null","learn","18:12:06","1","1","1","learn","0","0","[0, 1, 2]","44","14","setsizechunk","3S","furniture","2","1","0","1","3","",""
"1628","null","learn","18:12:06","0","0","0","learn","0","0","[0, 1, 2]","45","15","setsizechunk","3S","furniture","2","2","0","1","3","",""
"1411","null","learn","18:12:06","2","2","2","learn","2","2","[0, 1, 2]","46","15","setsizechunk","3S","furniture","2","3","2","1","3","",""
"661","null","learn","18:12:06","1","1","1","learn","0","0","[0, 1, 2]","47","15","setsizechunk","3S","furniture","2","4","0","1","3","",""
"491","null","learn","18:12:06","1","1","1","learn","0","0","[0, 1, 2]","48","16","setsizechunk","3S","furniture","2","5","0","1","3","",""
"99","null","memory","18:12:06","1","清新","11","memory","99","","[]","90","0","setsizechunk","3S","furniture","2","","99","99","3","",""
"99","null","memory","18:12:06","1","沙漠","1","memory","99","","[]","91","0","setsizechunk","3S","furniture","2","","99","99","3","",""
"99","null","memory","18:12:06","8","灯泡","18","memory","99","","[]","92","0","setsizechunk","3S","furniture","2","","99","99","3","",""
"99","null","memory","18:12:06","0","深邃","10","memory","99","","[]","93","0","setsizechunk","3S","furniture","2","","99","99","3","",""
"99","null","memory","18:12:06","0","书本","15","memory","99","","[]","94","0","setsizechunk","3S","furniture","2","","99","99","3","",""
"99","null","memory","18:12:06","8","电池","13","memory","99","","[]","95","0","setsizechunk","3S","furniture","2","","99","99","3","",""
"99","null","memory","18:12:06","9","纸张","4","memory","99","","[]","96","0","setsizechunk","3S","furniture","2","","99","99","3","",""
"99","null","memory","18:12:06","2","钥匙","2","memory","99","","[]","97","0","setsizechunk","3S","furniture","2","","99","99","3","",""
"99","null","memory","18:12:06","2","广阔","12","memory","99","","[]","98","0","setsizechunk","3S","furniture","2","","99","99","3","",""
"99","null","memory","18:12:06","9","明亮","14","memory","99","","[]","99","0","setsizechunk","3S","furniture","2","","99","99","3","",""
"99","null","memory","18:12:06","8","钢笔","3","memory","99","","[]","100","0","setsizechunk","3S","furniture","2","","99","99","3","",""
"99","null","memory","18:12:06","1","纸巾","6","memory","99","","[]","101","0","setsizechunk","3S","furniture","2","","99","99","3","",""
"99","null","memory","18:12:06","0","峡谷","0","memory","99","","[]","102","0","setsizechunk","3S","furniture","2","","99","99","3","",""
"99","null","memory","18:12:06","1","笔墨","16","memory","99","","[]","103","0","setsizechunk","3S","furniture","2","","99","99","3","",""
"99","null","memory","18:12:06","9","雨伞","9","memory","99","","[]","104","0","setsizechunk","3S","furniture","2","","99","99","3","",""
"99","null","memory","18:12:06","8","柔和","8","memory","99","","[]","105","0","setsizechunk","3S","furniture","2","","99","99","3","",""
"99","null","memory","18:12:06","9","山峰","19","memory","99","","[]","106","0","setsizechunk","3S","furniture","2","","99","99","3","",""
"99","null","memory","18:12:06","0","窗帘","5","memory","99","","[]","107","0","setsizechunk","3S","furniture","2","","99","99","3","",""
"99","null","memory","18:12:06","2","湖泊","17","memory","99","","[]","108","0","setsizechunk","3S","furniture","2","","99","99","3","",""
"99","null","memory","18:12:06","2","玻璃","7","memory","99","","[]","109","0","setsizechunk","3S","furniture","2","","99","99","3","",""
"99","null","memory","18:12:06","0","深邃","10","memory","99","","[]","110","1","setsizechunk","3S","furniture","2","","99","99","3","",""
"99","null","memory","18:12:06","2","湖泊","17","memory","99","","[]","111","1","setsizechunk","3S","furniture","2","","99","99","3","",""
"99","null","memory","18:12:06","8","电池","13","memory","99","","[]","112","1","setsizechunk","3S","furniture","2","","99","99","3","",""
"99","null","memory","18:12:06","9","明亮","14","memory","99","","[]","113","1","setsizechunk","3S","furniture","2","","99","99","3","",""
"99","null","memory","18:12:06","1","纸巾","6","memory","99","","[]","114","1","setsizechunk","3S","furniture","2","","99","99","3","",""
"99","null","memory","18:12:06","8","柔和","8","memory","99","","[]","115","1","setsizechunk","3S","furniture","2","","99","99","3","",""
"99","null","memory","18:12:06","2","钥匙","2","memory","99","","[]","116","1","setsizechunk","3S","furniture","2","","99","99","3","",""
"99","null","memory","18:12:06","2","玻璃","7","memory","99","","[]","117","1","setsizechunk","3S","furniture","2","","99","99","3","",""
"99","null","memory","18:12:06","1","笔墨","16","memory","99","","[]","118","1","setsizechunk","3S","furniture","2","","99","99","3","",""
"99","null","memory","18:12:06","8","灯泡","18","memory","99","","[]","119","1","setsizechunk","3S","furniture","2","","99","99","3","",""
"99","null","memory","18:12:06","2","广阔","12","memory","99","","[]","120","1","setsizechunk","3S","furniture","2","","99","99","3","",""
"99","null","memory","18:12:06","0","书本","15","memory","99","","[]","121","1","setsizechunk","3S","furniture","2","","99","99","3","",""
"99","null","memory","18:12:06","9","雨伞","9","memory","99","","[]","122","1","setsizechunk","3S","furniture","2","","99","99","3","",""
"99","null","memory","18:12:06","0","窗帘","5","memory","99","","[]","123","1","setsizechunk","3S","furniture","2","","99","99","3","",""
"99","null","memory","18:12:06","0","峡谷","0","memory","99","","[]","124","1","setsizechunk","3S","furniture","2","","99","99","3","",""
"99","null","memory","18:12:06","8","钢笔","3","memory","99","","[]","125","1","setsizechunk","3S","furniture","2","","99","99","3","",""
"99","null","memory","18:12:06","9","山峰","19","memory","99","","[]","126","1","setsizechunk","3S","furniture","2","","99","99","3","",""
"99","null","memory","18:12:06","1","沙漠","1","memory","99","","[]","127","1","setsizechunk","3S","furniture","2","","99","99","3","",""
"99","null","memory","18:12:06","1","清新","11","memory","99","","[]","128","1","setsizechunk","3S","furniture","2","","99","99","3","",""
"99","null","memory","18:12:06","9","纸张","4","memory","99","","[]","129","1","setsizechunk","3S","furniture","2","","99","99","3","",""
"3121","35","recognition","18:12:06","1","玻璃","7","recognition","0","","[]","130","99","setsizechunk","3S","furniture","2","","","1","3","50","2"
"4775","24","recognition","18:12:06","0","纸巾","6","recognition","0","","[]","131","99","setsizechunk","3S","furniture","2","","","1","3","50","1"
"3330","79","recognition","18:12:06","9","明亮","14","recognition","1","","[]","132","99","setsizechunk","3S","furniture","2","","","1","3","50","0"
"3350","39","recognition","18:12:06","0","沙漠","1","recognition","0","","[]","133","99","setsizechunk","3S","furniture","2","","","1","3","50","1"
"4035","37","recognition","18:12:06","1","窗帘","5","recognition","0","","[]","134","99","setsizechunk","3S","furniture","2","","","1","3","50","1"
"3608","58","recognition","18:12:06","2","清新","11","recognition","0","","[]","135","99","setsizechunk","3S","furniture","2","","","0","3","50","2"
"3210","100","recognition","18:12:06","0","书本","15","recognition","1","","[]","136","99","setsizechunk","3S","furniture","2","","","1","3","50","0"
"2937","100","recognition","18:12:06","9","山峰","19","recognition","1","","[]","137","99","setsizechunk","3S","furniture","2","","","1","3","50","0"
"5482","0","recognition","18:12:06","2","深邃","10","recognition","0","","[]","138","99","setsizechunk","3S","furniture","2","","","1","3","50","2"
"3140","100","recognition","18:12:06","1","笔墨","16","recognition","1","","[]","139","99","setsizechunk","3S","furniture","2","","","1","3","50","0"
"4676","46","recognition","18:12:06","9","纸张","4","recognition","1","","[]","140","99","setsizechunk","3S","furniture","2","","","0","3","50","0"
"4624","38","recognition","18:12:06","8","电池","13","recognition","1","","[]","141","99","setsizechunk","3S","furniture","2","","","0","3","50","0"
"3707","34","recognition","18:12:06","8","广阔","12","recognition","0","","[]","142","99","setsizechunk","3S","furniture","2","","","1","3","50","3"
"4606","61","recognition","18:12:06","2","钢笔","3","recognition","0","","[]","143","99","setsizechunk","3S","furniture","2","","","0","3","50","3"
"2862","39","recognition","18:12:06","0","钥匙","2","recognition","0","","[]","144","99","setsizechunk","3S","furniture","2","","","1","3","50","2"
"5496","33","recognition","18:12:06","8","灯泡","18","recognition","1","","[]","145","99","setsizechunk","3S","furniture","2","","","0","3","50","0"
"3701","100","recognition","18:12:06","9","雨伞","9","recognition","1","","[]","146","99","setsizechunk","3S","furniture","2","","","1","3","50","0"
"3215","96","recognition","18:12:06","8","柔和","8","recognition","1","","[]","147","99","setsizechunk","3S","furniture","2","","","1","3","50","0"
"2362","99","recognition","18:12:06","1","峡谷","0","recognition","0","","[]","148","99","setsizechunk","3S","furniture","2","","","0","3","50","1"
"5761","66","recognition","18:12:06","2","湖泊","17","recognition","1","","[]","149","99","setsizechunk","3S","furniture","2","","","1","3","50","0"
