"rt","response","stage","start_time","s","word","word_id","phase","a_cor","a_real","a_ava","trial","tps","task_type","block_typ","pic_typ","block_id","cum_r","a","r","n_Prac","slider_start","pair_type"
"null","null","learn","16:32:00","1","1","1","learn","0","0","[0, 1, 2]","0","0","setsize","99","prac","0","0","999","0","4","",""
"1296","null","learn","16:32:00","0","0","0","learn","0","0","[0, 1, 2]","1","0","setsize","99","prac","0","1","0","1","4","",""
"897","null","learn","16:32:00","2","2","2","learn","2","2","[0, 1, 2]","2","0","setsize","99","prac","0","0","1","0","4","",""
"1098","null","learn","16:32:00","1","1","1","learn","0","0","[0, 1, 2]","3","1","setsize","99","prac","0","0","2","0","4","",""
"1209","null","learn","16:32:00","0","0","0","learn","0","0","[0, 1, 2]","4","1","setsize","99","prac","0","0","2","0","4","",""
"1654","null","learn","16:32:00","2","2","2","learn","2","2","[0, 1, 2]","5","1","setsize","99","prac","0","0","0","0","4","",""
"1028","null","learn","16:32:00","1","1","1","learn","0","0","[0, 1, 2]","0","0","setsize","99","prac","0","0","1","0","4","",""
"460","null","learn","16:32:00","0","0","0","learn","0","0","[0, 1, 2]","1","0","setsize","99","prac","0","1","0","1","4","",""
"1348","null","learn","16:32:00","2","2","2","learn","2","2","[0, 1, 2]","2","0","setsize","99","prac","0","0","1","0","4","",""
"2024","null","learn","16:32:00","1","1","1","learn","0","0","[0, 1, 2]","3","1","setsize","99","prac","0","0","2","0","4","",""
"1524","null","learn","16:32:00","0","0","0","learn","0","0","[0, 1, 2]","4","1","setsize","99","prac","0","1","0","1","4","",""
"837","null","learn","16:32:00","2","2","2","learn","2","2","[0, 1, 2]","5","1","setsize","99","prac","0","0","1","0","4","",""
"1218","null","learn","16:32:00","1","1","1","learn","0","0","[0, 1, 2]","0","0","setsize","99","prac","0","0","2","0","4","",""
"666","null","learn","16:32:00","0","0","0","learn","0","0","[0, 1, 2]","1","0","setsize","99","prac","0","1","0","1","4","",""
"870","null","learn","16:32:00","2","2","2","learn","2","2","[0, 1, 2]","2","0","setsize","99","prac","0","2","2","1","4","",""
"686","null","learn","16:32:00","1","1","1","learn","0","0","[0, 1, 2]","3","1","setsize","99","prac","0","0","1","0","4","",""
"711","null","learn","16:32:00","0","0","0","learn","0","0","[0, 1, 2]","4","1","setsize","99","prac","0","1","0","1","4","",""
"1075","null","learn","16:32:00","2","2","2","learn","2","2","[0, 1, 2]","5","1","setsize","99","prac","0","2","2","1","4","",""
"2048","null","learn","16:32:00","1","1","1","learn","0","0","[0, 1, 2]","0","0","setsize","99","prac","0","3","0","1","4","",""
"810","null","learn","16:32:00","0","0","0","learn","0","0","[0, 1, 2]","1","0","setsize","99","prac","0","4","0","1","4","",""
"473","null","learn","16:32:00","2","2","2","learn","2","2","[0, 1, 2]","2","0","setsize","99","prac","0","5","2","1","4","",""
"488","null","learn","16:32:00","1","1","1","learn","0","0","[0, 1, 2]","3","1","setsize","99","prac","0","6","0","1","4","",""
"383","null","learn","16:32:00","0","0","0","learn","0","0","[0, 1, 2]","4","1","setsize","99","prac","0","7","0","1","4","",""
"392","null","learn","16:32:00","2","2","2","learn","2","2","[0, 1, 2]","5","1","setsize","99","prac","0","8","2","1","4","",""
"1139","null","learn","16:32:00","0","0","0","learn","0","0","[0, 1, 2]","0","0","setsizechunk","3S","furniture","1","9","0","1","4","",""
"913","null","learn","16:32:00","1","1","1","learn","0","0","[0, 1, 2]","1","0","setsizechunk","3S","furniture","1","0","1","0","4","",""
"332","null","learn","16:32:00","2","2","2","learn","2","2","[0, 1, 2]","2","0","setsizechunk","3S","furniture","1","0","1","0","4","",""
"1405","null","learn","16:32:00","1","1","1","learn","0","0","[0, 1, 2]","3","1","setsizechunk","3S","furniture","1","0","2","0","4","",""
"643","null","learn","16:32:00","0","0","0","learn","0","0","[0, 1, 2]","4","1","setsizechunk","3S","furniture","1","1","0","1","4","",""
"1005","null","learn","16:32:00","2","2","2","learn","2","2","[0, 1, 2]","5","1","setsizechunk","3S","furniture","1","0","1","0","4","",""
"596","null","learn","16:32:00","0","0","0","learn","0","0","[0, 1, 2]","6","2","setsizechunk","3S","furniture","1","0","1","0","4","",""
"422","null","learn","16:32:00","1","1","1","learn","0","0","[0, 1, 2]","7","2","setsizechunk","3S","furniture","1","1","0","1","4","",""
"362","null","learn","16:32:00","2","2","2","learn","2","2","[0, 1, 2]","8","2","setsizechunk","3S","furniture","1","0","0","0","4","",""
"1152","null","learn","16:32:00","2","2","2","learn","2","2","[0, 1, 2]","9","3","setsizechunk","3S","furniture","1","1","2","1","4","",""
"925","null","learn","16:32:00","0","0","0","learn","0","0","[0, 1, 2]","10","3","setsizechunk","3S","furniture","1","2","0","1","4","",""
"1224","null","learn","16:32:00","1","1","1","learn","0","0","[0, 1, 2]","11","3","setsizechunk","3S","furniture","1","0","2","0","4","",""
"818","null","learn","16:32:00","1","1","1","learn","0","0","[0, 1, 2]","12","4","setsizechunk","3S","furniture","1","0","1","0","4","",""
"862","null","learn","16:32:00","2","2","2","learn","2","2","[0, 1, 2]","13","4","setsizechunk","3S","furniture","1","0","0","0","4","",""
"880","null","learn","16:32:00","0","0","0","learn","0","0","[0, 1, 2]","14","4","setsizechunk","3S","furniture","1","1","0","1","4","",""
"null","null","learn","16:32:00","1","1","1","learn","0","0","[0, 1, 2]","15","5","setsizechunk","3S","furniture","1","0","999","0","4","",""
"694","null","learn","16:32:00","2","2","2","learn","2","2","[0, 1, 2]","16","5","setsizechunk","3S","furniture","1","0","0","0","4","",""
"450","null","learn","16:32:00","0","0","0","learn","0","0","[0, 1, 2]","17","5","setsizechunk","3S","furniture","1","1","0","1","4","",""
"422","null","learn","16:32:00","2","2","2","learn","2","2","[0, 1, 2]","18","6","setsizechunk","3S","furniture","1","2","2","1","4","",""
"693","null","learn","16:32:00","1","1","1","learn","0","0","[0, 1, 2]","19","6","setsizechunk","3S","furniture","1","0","1","0","4","",""
"516","null","learn","16:32:00","0","0","0","learn","0","0","[0, 1, 2]","20","6","setsizechunk","3S","furniture","1","1","0","1","4","",""
"555","null","learn","16:32:00","0","0","0","learn","0","0","[0, 1, 2]","21","7","setsizechunk","3S","furniture","1","2","0","1","4","",""
"1051","null","learn","16:32:00","1","1","1","learn","0","0","[0, 1, 2]","22","7","setsizechunk","3S","furniture","1","0","1","0","4","",""
"510","null","learn","16:32:00","2","2","2","learn","2","2","[0, 1, 2]","23","7","setsizechunk","3S","furniture","1","0","0","0","4","",""
"582","null","learn","16:32:00","2","2","2","learn","2","2","[0, 1, 2]","24","8","setsizechunk","3S","furniture","1","1","2","1","4","",""
"533","null","learn","16:32:00","0","0","0","learn","0","0","[0, 1, 2]","25","8","setsizechunk","3S","furniture","1","2","0","1","4","",""
"351","null","learn","16:32:00","1","1","1","learn","0","0","[0, 1, 2]","26","8","setsizechunk","3S","furniture","1","3","0","1","4","",""
"648","null","learn","16:32:00","0","0","0","learn","0","0","[0, 1, 2]","27","9","setsizechunk","3S","furniture","1","4","0","1","4","",""
"1291","null","learn","16:32:00","1","1","1","learn","0","0","[0, 1, 2]","28","9","setsizechunk","3S","furniture","1","5","0","1","4","",""
"1018","null","learn","16:32:00","2","2","2","learn","2","2","[0, 1, 2]","29","9","setsizechunk","3S","furniture","1","6","2","1","4","",""
"1072","null","learn","16:32:00","2","2","2","learn","2","2","[0, 1, 2]","30","10","setsizechunk","3S","furniture","1","7","2","1","4","",""
"623","null","learn","16:32:00","0","0","0","learn","0","0","[0, 1, 2]","31","10","setsizechunk","3S","furniture","1","8","0","1","4","",""
"1094","null","learn","16:32:00","1","1","1","learn","0","0","[0, 1, 2]","32","10","setsizechunk","3S","furniture","1","9","0","1","4","",""
"784","null","learn","16:32:00","2","2","2","learn","2","2","[0, 1, 2]","33","11","setsizechunk","3S","furniture","1","10","2","1","4","",""
"691","null","learn","16:32:00","0","0","0","learn","0","0","[0, 1, 2]","34","11","setsizechunk","3S","furniture","1","11","0","1","4","",""
"879","null","learn","16:32:00","1","1","1","learn","0","0","[0, 1, 2]","35","11","setsizechunk","3S","furniture","1","12","0","1","4","",""
"679","null","learn","16:32:00","0","0","0","learn","0","0","[0, 1, 2]","36","12","setsizechunk","3S","furniture","1","13","0","1","4","",""
"1784","null","learn","16:32:00","1","1","1","learn","0","0","[0, 1, 2]","37","12","setsizechunk","3S","furniture","1","0","2","0","4","",""
"1336","null","learn","16:32:00","2","2","2","learn","2","2","[0, 1, 2]","38","12","setsizechunk","3S","furniture","1","1","2","1","4","",""
"907","null","learn","16:32:00","2","2","2","learn","2","2","[0, 1, 2]","39","13","setsizechunk","3S","furniture","1","2","2","1","4","",""
"1288","null","learn","16:32:00","1","1","1","learn","0","0","[0, 1, 2]","40","13","setsizechunk","3S","furniture","1","3","0","1","4","",""
"363","null","learn","16:32:00","0","0","0","learn","0","0","[0, 1, 2]","41","13","setsizechunk","3S","furniture","1","4","0","1","4","",""
"1643","null","learn","16:32:00","2","2","2","learn","2","2","[0, 1, 2]","42","14","setsizechunk","3S","furniture","1","5","2","1","4","",""
"439","null","learn","16:32:00","0","0","0","learn","0","0","[0, 1, 2]","43","14","setsizechunk","3S","furniture","1","6","0","1","4","",""
"1693","null","learn","16:32:00","1","1","1","learn","0","0","[0, 1, 2]","44","14","setsizechunk","3S","furniture","1","7","0","1","4","",""
"686","null","learn","16:32:00","1","1","1","learn","0","0","[0, 1, 2]","45","15","setsizechunk","3S","furniture","1","8","0","1","4","",""
"99","null","memory","16:32:00","9","笔墨","19","memory","99","","[]","90","0","setsizechunk","3S","furniture","1","","99","99","4","",""
"99","null","memory","16:32:00","8","峡谷","3","memory","99","","[]","91","0","setsizechunk","3S","furniture","1","","99","99","4","",""
"99","null","memory","16:32:00","2","书本","17","memory","99","","[]","92","0","setsizechunk","3S","furniture","1","","99","99","4","",""
"99","null","memory","16:32:00","2","灯泡","2","memory","99","","[]","93","0","setsizechunk","3S","furniture","1","","99","99","4","",""
"99","null","memory","16:32:00","1","沙漠","6","memory","99","","[]","94","0","setsizechunk","3S","furniture","1","","99","99","4","",""
"99","null","memory","16:32:00","1","窗帘","11","memory","99","","[]","95","0","setsizechunk","3S","furniture","1","","99","99","4","",""
"99","null","memory","16:32:00","0","钥匙","10","memory","99","","[]","96","0","setsizechunk","3S","furniture","1","","99","99","4","",""
"99","null","memory","16:32:00","8","深邃","18","memory","99","","[]","97","0","setsizechunk","3S","furniture","1","","99","99","4","",""
"99","null","memory","16:32:00","9","明亮","9","memory","99","","[]","98","0","setsizechunk","3S","furniture","1","","99","99","4","",""
"99","null","memory","16:32:00","1","玻璃","16","memory","99","","[]","99","0","setsizechunk","3S","furniture","1","","99","99","4","",""
"99","null","memory","16:32:00","9","山峰","14","memory","99","","[]","100","0","setsizechunk","3S","furniture","1","","99","99","4","",""
"99","null","memory","16:32:00","8","纸张","8","memory","99","","[]","101","0","setsizechunk","3S","furniture","1","","99","99","4","",""
"99","null","memory","16:32:00","1","雨伞","1","memory","99","","[]","102","0","setsizechunk","3S","furniture","1","","99","99","4","",""
"99","null","memory","16:32:00","0","清新","0","memory","99","","[]","103","0","setsizechunk","3S","furniture","1","","99","99","4","",""
"99","null","memory","16:32:00","0","钢笔","5","memory","99","","[]","104","0","setsizechunk","3S","furniture","1","","99","99","4","",""
"99","null","memory","16:32:00","2","湖泊","12","memory","99","","[]","105","0","setsizechunk","3S","furniture","1","","99","99","4","",""
"99","null","memory","16:32:00","8","柔和","13","memory","99","","[]","106","0","setsizechunk","3S","furniture","1","","99","99","4","",""
"99","null","memory","16:32:00","2","纸巾","7","memory","99","","[]","107","0","setsizechunk","3S","furniture","1","","99","99","4","",""
"99","null","memory","16:32:00","9","电池","4","memory","99","","[]","108","0","setsizechunk","3S","furniture","1","","99","99","4","",""
"99","null","memory","16:32:00","0","广阔","15","memory","99","","[]","109","0","setsizechunk","3S","furniture","1","","99","99","4","",""
"99","null","memory","16:32:00","0","钥匙","10","memory","99","","[]","110","1","setsizechunk","3S","furniture","1","","99","99","4","",""
"99","null","memory","16:32:00","8","峡谷","3","memory","99","","[]","111","1","setsizechunk","3S","furniture","1","","99","99","4","",""
"99","null","memory","16:32:00","2","湖泊","12","memory","99","","[]","112","1","setsizechunk","3S","furniture","1","","99","99","4","",""
"99","null","memory","16:32:00","1","玻璃","16","memory","99","","[]","113","1","setsizechunk","3S","furniture","1","","99","99","4","",""
"99","null","memory","16:32:00","1","窗帘","11","memory","99","","[]","114","1","setsizechunk","3S","furniture","1","","99","99","4","",""
"99","null","memory","16:32:00","2","纸巾","7","memory","99","","[]","115","1","setsizechunk","3S","furniture","1","","99","99","4","",""
"99","null","memory","16:32:00","9","明亮","9","memory","99","","[]","116","1","setsizechunk","3S","furniture","1","","99","99","4","",""
"99","null","memory","16:32:00","8","柔和","13","memory","99","","[]","117","1","setsizechunk","3S","furniture","1","","99","99","4","",""
"99","null","memory","16:32:00","1","沙漠","6","memory","99","","[]","118","1","setsizechunk","3S","furniture","1","","99","99","4","",""
"99","null","memory","16:32:00","8","深邃","18","memory","99","","[]","119","1","setsizechunk","3S","furniture","1","","99","99","4","",""
"99","null","memory","16:32:00","0","清新","0","memory","99","","[]","120","1","setsizechunk","3S","furniture","1","","99","99","4","",""
"99","null","memory","16:32:00","1","雨伞","1","memory","99","","[]","121","1","setsizechunk","3S","furniture","1","","99","99","4","",""
"99","null","memory","16:32:00","2","灯泡","2","memory","99","","[]","122","1","setsizechunk","3S","furniture","1","","99","99","4","",""
"99","null","memory","16:32:00","9","山峰","14","memory","99","","[]","123","1","setsizechunk","3S","furniture","1","","99","99","4","",""
"99","null","memory","16:32:00","9","笔墨","19","memory","99","","[]","124","1","setsizechunk","3S","furniture","1","","99","99","4","",""
"99","null","memory","16:32:00","2","书本","17","memory","99","","[]","125","1","setsizechunk","3S","furniture","1","","99","99","4","",""
"99","null","memory","16:32:00","0","钢笔","5","memory","99","","[]","126","1","setsizechunk","3S","furniture","1","","99","99","4","",""
"99","null","memory","16:32:00","8","纸张","8","memory","99","","[]","127","1","setsizechunk","3S","furniture","1","","99","99","4","",""
"99","null","memory","16:32:00","0","广阔","15","memory","99","","[]","128","1","setsizechunk","3S","furniture","1","","99","99","4","",""
"99","null","memory","16:32:00","9","电池","4","memory","99","","[]","129","1","setsizechunk","3S","furniture","1","","99","99","4","",""
"6128","0","recognition","16:32:00","2","钥匙","10","recognition","0","","[]","130","99","setsizechunk","3S","furniture","1","","","1","4","50","2"
"3750","100","recognition","16:32:00","8","柔和","13","recognition","1","","[]","131","99","setsizechunk","3S","furniture","1","","","1","4","50","0"
"2492","100","recognition","16:32:00","9","山峰","14","recognition","1","","[]","132","99","setsizechunk","3S","furniture","1","","","1","4","50","0"
"3384","0","recognition","16:32:00","0","灯泡","2","recognition","0","","[]","133","99","setsizechunk","3S","furniture","1","","","1","4","50","2"
"2297","100","recognition","16:32:00","8","纸张","8","recognition","1","","[]","134","99","setsizechunk","3S","furniture","1","","","1","4","50","0"
"5792","100","recognition","16:32:00","1","玻璃","16","recognition","1","","[]","135","99","setsizechunk","3S","furniture","1","","","1","4","50","0"
"4816","0","recognition","16:32:00","1","钢笔","5","recognition","0","","[]","136","99","setsizechunk","3S","furniture","1","","","1","4","50","1"
"3004","100","recognition","16:32:00","9","明亮","9","recognition","1","","[]","137","99","setsizechunk","3S","furniture","1","","","1","4","50","0"
"2248","100","recognition","16:32:00","9","笔墨","19","recognition","1","","[]","138","99","setsizechunk","3S","furniture","1","","","1","4","50","0"
"2567","0","recognition","16:32:00","2","峡谷","3","recognition","0","","[]","139","99","setsizechunk","3S","furniture","1","","","1","4","50","3"
"6617","0","recognition","16:32:00","1","纸巾","7","recognition","0","","[]","140","99","setsizechunk","3S","furniture","1","","","1","4","50","2"
"8407","20","recognition","16:32:00","0","雨伞","1","recognition","0","","[]","141","99","setsizechunk","3S","furniture","1","","","1","4","50","1"
"2393","100","recognition","16:32:00","2","书本","17","recognition","1","","[]","142","99","setsizechunk","3S","furniture","1","","","1","4","50","0"
"6821","100","recognition","16:32:00","8","深邃","18","recognition","1","","[]","143","99","setsizechunk","3S","furniture","1","","","1","4","50","0"
"2298","100","recognition","16:32:00","0","广阔","15","recognition","1","","[]","144","99","setsizechunk","3S","furniture","1","","","1","4","50","0"
"1746","100","recognition","16:32:00","9","电池","4","recognition","1","","[]","145","99","setsizechunk","3S","furniture","1","","","1","4","50","0"
"2223","0","recognition","16:32:00","0","沙漠","6","recognition","0","","[]","146","99","setsizechunk","3S","furniture","1","","","1","4","50","1"
"1779","0","recognition","16:32:00","1","清新","0","recognition","0","","[]","147","99","setsizechunk","3S","furniture","1","","","1","4","50","1"
"2632","0","recognition","16:32:00","8","湖泊","12","recognition","0","","[]","148","99","setsizechunk","3S","furniture","1","","","1","4","50","3"
"6698","0","recognition","16:32:00","2","窗帘","11","recognition","0","","[]","149","99","setsizechunk","3S","furniture","1","","","1","4","50","2"
"984","null","learn","16:32:00","4","4","4","learn","2","2","[0, 1, 2]","0","0","setsizechunk","6S","sports","2","0","0","0","4","",""
"824","null","learn","16:32:00","2","2","2","learn","1","1","[0, 1, 2]","1","0","setsizechunk","6S","sports","2","0","0","0","4","",""
"898","null","learn","16:32:00","3","3","3","learn","1","1","[0, 1, 2]","2","0","setsizechunk","6S","sports","2","0","0","0","4","",""
"1027","null","learn","16:32:00","1","1","1","learn","0","0","[0, 1, 2]","3","0","setsizechunk","6S","sports","2","1","0","1","4","",""
"1485","null","learn","16:32:00","5","5","5","learn","2","2","[0, 1, 2]","4","0","setsizechunk","6S","sports","2","0","0","0","4","",""
"744","null","learn","16:32:00","0","0","0","learn","0","0","[0, 1, 2]","5","0","setsizechunk","6S","sports","2","1","0","1","4","",""
"905","null","learn","16:32:00","2","2","2","learn","1","1","[0, 1, 2]","6","1","setsizechunk","6S","sports","2","2","1","1","4","",""
"461","null","learn","16:32:00","5","5","5","learn","2","2","[0, 1, 2]","7","1","setsizechunk","6S","sports","2","0","1","0","4","",""
"1999","null","learn","16:32:00","4","4","4","learn","2","2","[0, 1, 2]","8","1","setsizechunk","6S","sports","2","0","1","0","4","",""
"1198","null","learn","16:32:00","0","0","0","learn","0","0","[0, 1, 2]","9","1","setsizechunk","6S","sports","2","1","0","1","4","",""
"870","null","learn","16:32:00","1","1","1","learn","0","0","[0, 1, 2]","10","1","setsizechunk","6S","sports","2","2","0","1","4","",""
"1462","null","learn","16:32:00","3","3","3","learn","1","1","[0, 1, 2]","11","1","setsizechunk","6S","sports","2","3","1","1","4","",""
"672","null","learn","16:32:00","3","3","3","learn","1","1","[0, 1, 2]","12","2","setsizechunk","6S","sports","2","4","1","1","4","",""
"872","null","learn","16:32:00","1","1","1","learn","0","0","[0, 1, 2]","13","2","setsizechunk","6S","sports","2","5","0","1","4","",""
"1090","null","learn","16:32:00","4","4","4","learn","2","2","[0, 1, 2]","14","2","setsizechunk","6S","sports","2","6","2","1","4","",""
"885","null","learn","16:32:00","2","2","2","learn","1","1","[0, 1, 2]","15","2","setsizechunk","6S","sports","2","0","2","0","4","",""
"1324","null","learn","16:32:00","0","0","0","learn","0","0","[0, 1, 2]","16","2","setsizechunk","6S","sports","2","1","0","1","4","",""
"1821","null","learn","16:32:00","5","5","5","learn","2","2","[0, 1, 2]","17","2","setsizechunk","6S","sports","2","0","1","0","4","",""
"null","null","learn","16:32:00","4","4","4","learn","2","2","[0, 1, 2]","18","3","setsizechunk","6S","sports","2","0","999","0","4","",""
"1085","null","learn","16:32:00","2","2","2","learn","1","1","[0, 1, 2]","19","3","setsizechunk","6S","sports","2","1","1","1","4","",""
"1467","null","learn","16:32:00","5","5","5","learn","2","2","[0, 1, 2]","20","3","setsizechunk","6S","sports","2","0","1","0","4","",""
"783","null","learn","16:32:00","1","1","1","learn","0","0","[0, 1, 2]","21","3","setsizechunk","6S","sports","2","1","0","1","4","",""
"1160","null","learn","16:32:00","3","3","3","learn","1","1","[0, 1, 2]","22","3","setsizechunk","6S","sports","2","2","1","1","4","",""
"1509","null","learn","16:32:00","0","0","0","learn","0","0","[0, 1, 2]","23","3","setsizechunk","6S","sports","2","0","2","0","4","",""
"1193","null","learn","16:32:00","4","4","4","learn","2","2","[0, 1, 2]","24","4","setsizechunk","6S","sports","2","0","1","0","4","",""
"864","null","learn","16:32:00","2","2","2","learn","1","1","[0, 1, 2]","25","4","setsizechunk","6S","sports","2","0","0","0","4","",""
"811","null","learn","16:32:00","5","5","5","learn","2","2","[0, 1, 2]","26","4","setsizechunk","6S","sports","2","0","0","0","4","",""
"595","null","learn","16:32:00","1","1","1","learn","0","0","[0, 1, 2]","27","4","setsizechunk","6S","sports","2","1","0","1","4","",""
"872","null","learn","16:32:00","0","0","0","learn","0","0","[0, 1, 2]","28","4","setsizechunk","6S","sports","2","0","1","0","4","",""
"1000","null","learn","16:32:00","3","3","3","learn","1","1","[0, 1, 2]","29","4","setsizechunk","6S","sports","2","1","1","1","4","",""
"2072","null","learn","16:32:00","5","5","5","learn","2","2","[0, 1, 2]","30","5","setsizechunk","6S","sports","2","0","1","0","4","",""
"868","null","learn","16:32:00","3","3","3","learn","1","1","[0, 1, 2]","31","5","setsizechunk","6S","sports","2","1","1","1","4","",""
"1007","null","learn","16:32:00","2","2","2","learn","1","1","[0, 1, 2]","32","5","setsizechunk","6S","sports","2","2","1","1","4","",""
"1129","null","learn","16:32:00","4","4","4","learn","2","2","[0, 1, 2]","33","5","setsizechunk","6S","sports","2","0","0","0","4","",""
"705","null","learn","16:32:00","1","1","1","learn","0","0","[0, 1, 2]","34","5","setsizechunk","6S","sports","2","1","0","1","4","",""
"1022","null","learn","16:32:00","0","0","0","learn","0","0","[0, 1, 2]","35","5","setsizechunk","6S","sports","2","0","2","0","4","",""
"1045","null","learn","16:32:00","0","0","0","learn","0","0","[0, 1, 2]","36","6","setsizechunk","6S","sports","2","0","1","0","4","",""
"1389","null","learn","16:32:00","4","4","4","learn","2","2","[0, 1, 2]","37","6","setsizechunk","6S","sports","2","1","2","1","4","",""
"1574","null","learn","16:32:00","5","5","5","learn","2","2","[0, 1, 2]","38","6","setsizechunk","6S","sports","2","0","0","0","4","",""
"750","null","learn","16:32:00","3","3","3","learn","1","1","[0, 1, 2]","39","6","setsizechunk","6S","sports","2","1","1","1","4","",""
"1241","null","learn","16:32:00","2","2","2","learn","1","1","[0, 1, 2]","40","6","setsizechunk","6S","sports","2","0","2","0","4","",""
"610","null","learn","16:32:00","1","1","1","learn","0","0","[0, 1, 2]","41","6","setsizechunk","6S","sports","2","1","0","1","4","",""
"1264","null","learn","16:32:00","4","4","4","learn","2","2","[0, 1, 2]","42","7","setsizechunk","6S","sports","2","0","1","0","4","",""
"671","null","learn","16:32:00","2","2","2","learn","1","1","[0, 1, 2]","43","7","setsizechunk","6S","sports","2","0","0","0","4","",""
"819","null","learn","16:32:00","0","0","0","learn","0","0","[0, 1, 2]","44","7","setsizechunk","6S","sports","2","1","0","1","4","",""
"563","null","learn","16:32:00","1","1","1","learn","0","0","[0, 1, 2]","45","7","setsizechunk","6S","sports","2","2","0","1","4","",""
"424","null","learn","16:32:00","3","3","3","learn","1","1","[0, 1, 2]","46","7","setsizechunk","6S","sports","2","3","1","1","4","",""
"1290","null","learn","16:32:00","5","5","5","learn","2","2","[0, 1, 2]","47","7","setsizechunk","6S","sports","2","4","2","1","4","",""
"548","null","learn","16:32:00","4","4","4","learn","2","2","[0, 1, 2]","48","8","setsizechunk","6S","sports","2","5","2","1","4","",""
"1665","null","learn","16:32:00","5","5","5","learn","2","2","[0, 1, 2]","49","8","setsizechunk","6S","sports","2","6","2","1","4","",""
"469","null","learn","16:32:00","0","0","0","learn","0","0","[0, 1, 2]","50","8","setsizechunk","6S","sports","2","0","2","0","4","",""
"1040","null","learn","16:32:00","3","3","3","learn","1","1","[0, 1, 2]","51","8","setsizechunk","6S","sports","2","1","1","1","4","",""
"819","null","learn","16:32:00","1","1","1","learn","0","0","[0, 1, 2]","52","8","setsizechunk","6S","sports","2","2","0","1","4","",""
"1521","null","learn","16:32:00","2","2","2","learn","1","1","[0, 1, 2]","53","8","setsizechunk","6S","sports","2","0","2","0","4","",""
"1377","null","learn","16:32:00","4","4","4","learn","2","2","[0, 1, 2]","54","9","setsizechunk","6S","sports","2","0","1","0","4","",""
"697","null","learn","16:32:00","2","2","2","learn","1","1","[0, 1, 2]","55","9","setsizechunk","6S","sports","2","0","0","0","4","",""
"1212","null","learn","16:32:00","5","5","5","learn","2","2","[0, 1, 2]","56","9","setsizechunk","6S","sports","2","1","2","1","4","",""
"954","null","learn","16:32:00","0","0","0","learn","0","0","[0, 1, 2]","57","9","setsizechunk","6S","sports","2","2","0","1","4","",""
"527","null","learn","16:32:00","1","1","1","learn","0","0","[0, 1, 2]","58","9","setsizechunk","6S","sports","2","3","0","1","4","",""
"425","null","learn","16:32:00","3","3","3","learn","1","1","[0, 1, 2]","59","9","setsizechunk","6S","sports","2","4","1","1","4","",""
"842","null","learn","16:32:00","1","1","1","learn","0","0","[0, 1, 2]","60","10","setsizechunk","6S","sports","2","5","0","1","4","",""
"1280","null","learn","16:32:00","5","5","5","learn","2","2","[0, 1, 2]","61","10","setsizechunk","6S","sports","2","0","1","0","4","",""
"636","null","learn","16:32:00","3","3","3","learn","1","1","[0, 1, 2]","62","10","setsizechunk","6S","sports","2","1","1","1","4","",""
"1007","null","learn","16:32:00","2","2","2","learn","1","1","[0, 1, 2]","63","10","setsizechunk","6S","sports","2","0","0","0","4","",""
"725","null","learn","16:32:00","0","0","0","learn","0","0","[0, 1, 2]","64","10","setsizechunk","6S","sports","2","1","0","1","4","",""
"677","null","learn","16:32:00","4","4","4","learn","2","2","[0, 1, 2]","65","10","setsizechunk","6S","sports","2","2","2","1","4","",""
"676","null","learn","16:32:00","3","3","3","learn","1","1","[0, 1, 2]","66","11","setsizechunk","6S","sports","2","3","1","1","4","",""
"894","null","learn","16:32:00","0","0","0","learn","0","0","[0, 1, 2]","67","11","setsizechunk","6S","sports","2","4","0","1","4","",""
"673","null","learn","16:32:00","1","1","1","learn","0","0","[0, 1, 2]","68","11","setsizechunk","6S","sports","2","5","0","1","4","",""
"539","null","learn","16:32:00","5","5","5","learn","2","2","[0, 1, 2]","69","11","setsizechunk","6S","sports","2","6","2","1","4","",""
"565","null","learn","16:32:00","2","2","2","learn","1","1","[0, 1, 2]","70","11","setsizechunk","6S","sports","2","0","2","0","4","",""
"878","null","learn","16:32:00","4","4","4","learn","2","2","[0, 1, 2]","71","11","setsizechunk","6S","sports","2","1","2","1","4","",""
"850","null","learn","16:32:00","4","4","4","learn","2","2","[0, 1, 2]","72","12","setsizechunk","6S","sports","2","2","2","1","4","",""
"1185","null","learn","16:32:00","2","2","2","learn","1","1","[0, 1, 2]","73","12","setsizechunk","6S","sports","2","0","2","0","4","",""
"785","null","learn","16:32:00","3","3","3","learn","1","1","[0, 1, 2]","74","12","setsizechunk","6S","sports","2","1","1","1","4","",""
"582","null","learn","16:32:00","1","1","1","learn","0","0","[0, 1, 2]","75","12","setsizechunk","6S","sports","2","2","0","1","4","",""
"1072","null","learn","16:32:00","0","0","0","learn","0","0","[0, 1, 2]","76","12","setsizechunk","6S","sports","2","0","1","0","4","",""
"1051","null","learn","16:32:00","5","5","5","learn","2","2","[0, 1, 2]","77","12","setsizechunk","6S","sports","2","1","2","1","4","",""
"817","null","learn","16:32:00","4","4","4","learn","2","2","[0, 1, 2]","78","13","setsizechunk","6S","sports","2","2","2","1","4","",""
"879","null","learn","16:32:00","3","3","3","learn","1","1","[0, 1, 2]","79","13","setsizechunk","6S","sports","2","0","2","0","4","",""
"758","null","learn","16:32:00","2","2","2","learn","1","1","[0, 1, 2]","80","13","setsizechunk","6S","sports","2","0","0","0","4","",""
"843","null","learn","16:32:00","0","0","0","learn","0","0","[0, 1, 2]","81","13","setsizechunk","6S","sports","2","1","0","1","4","",""
"1259","null","learn","16:32:00","1","1","1","learn","0","0","[0, 1, 2]","82","13","setsizechunk","6S","sports","2","2","0","1","4","",""
"922","null","learn","16:32:00","5","5","5","learn","2","2","[0, 1, 2]","83","13","setsizechunk","6S","sports","2","3","2","1","4","",""
"649","null","learn","16:32:00","1","1","1","learn","0","0","[0, 1, 2]","84","14","setsizechunk","6S","sports","2","4","0","1","4","",""
"833","null","learn","16:32:00","5","5","5","learn","2","2","[0, 1, 2]","85","14","setsizechunk","6S","sports","2","5","2","1","4","",""
"822","null","learn","16:32:00","4","4","4","learn","2","2","[0, 1, 2]","86","14","setsizechunk","6S","sports","2","6","2","1","4","",""
"847","null","learn","16:32:00","0","0","0","learn","0","0","[0, 1, 2]","87","14","setsizechunk","6S","sports","2","7","0","1","4","",""
"672","null","learn","16:32:00","2","2","2","learn","1","1","[0, 1, 2]","88","14","setsizechunk","6S","sports","2","0","0","0","4","",""
"675","null","learn","16:32:00","3","3","3","learn","1","1","[0, 1, 2]","89","14","setsizechunk","6S","sports","2","1","1","1","4","",""
"711","null","learn","16:32:00","4","4","4","learn","2","2","[0, 1, 2]","90","15","setsizechunk","6S","sports","2","2","2","1","4","",""
"727","null","learn","16:32:00","2","2","2","learn","1","1","[0, 1, 2]","91","15","setsizechunk","6S","sports","2","3","1","1","4","",""
"640","null","learn","16:32:00","1","1","1","learn","0","0","[0, 1, 2]","92","15","setsizechunk","6S","sports","2","4","0","1","4","",""
"609","null","learn","16:32:00","3","3","3","learn","1","1","[0, 1, 2]","93","15","setsizechunk","6S","sports","2","5","1","1","4","",""
"99","null","memory","16:32:00","8","书架","8","memory","99","","[]","180","0","setsizechunk","6S","sports","2","","99","99","4","",""
"99","null","memory","16:32:00","8","瀑布","3","memory","99","","[]","181","0","setsizechunk","6S","sports","2","","99","99","4","",""
"99","null","memory","16:32:00","2","纯净","2","memory","99","","[]","182","0","setsizechunk","6S","sports","2","","99","99","4","",""
"99","null","memory","16:32:00","9","湿地","19","memory","99","","[]","183","0","setsizechunk","6S","sports","2","","99","99","4","",""
"99","null","memory","16:32:00","2","纸盒","17","memory","99","","[]","184","0","setsizechunk","6S","sports","2","","99","99","4","",""
"99","null","memory","16:32:00","1","针线","6","memory","99","","[]","185","0","setsizechunk","6S","sports","2","","99","99","4","",""
"99","null","memory","16:32:00","8","淡雅","13","memory","99","","[]","186","0","setsizechunk","6S","sports","2","","99","99","4","",""
"99","null","memory","16:32:00","9","书签","9","memory","99","","[]","187","0","setsizechunk","6S","sports","2","","99","99","4","",""
"99","null","memory","16:32:00","0","线缆","10","memory","99","","[]","188","0","setsizechunk","6S","sports","2","","99","99","4","",""
"99","null","memory","16:32:00","0","纸袋","15","memory","99","","[]","189","0","setsizechunk","6S","sports","2","","99","99","4","",""
"99","null","memory","16:32:00","8","橡皮","18","memory","99","","[]","190","0","setsizechunk","6S","sports","2","","99","99","4","",""
"99","null","memory","16:32:00","2","书包","12","memory","99","","[]","191","0","setsizechunk","6S","sports","2","","99","99","4","",""
"99","null","memory","16:32:00","2","岩石","7","memory","99","","[]","192","0","setsizechunk","6S","sports","2","","99","99","4","",""
"99","null","memory","16:32:00","1","粉笔","11","memory","99","","[]","193","0","setsizechunk","6S","sports","2","","99","99","4","",""
"99","null","memory","16:32:00","1","沉稳","1","memory","99","","[]","194","0","setsizechunk","6S","sports","2","","99","99","4","",""
"99","null","memory","16:32:00","1","插头","16","memory","99","","[]","195","0","setsizechunk","6S","sports","2","","99","99","4","",""
"99","null","memory","16:32:00","0","雪山","5","memory","99","","[]","196","0","setsizechunk","6S","sports","2","","99","99","4","",""
"99","null","memory","16:32:00","9","沉稳","14","memory","99","","[]","197","0","setsizechunk","6S","sports","2","","99","99","4","",""
"99","null","memory","16:32:00","9","丘陵","4","memory","99","","[]","198","0","setsizechunk","6S","sports","2","","99","99","4","",""
"99","null","memory","16:32:00","0","镜子","0","memory","99","","[]","199","0","setsizechunk","6S","sports","2","","99","99","4","",""
"99","null","memory","16:32:00","8","书架","8","memory","99","","[]","200","1","setsizechunk","6S","sports","2","","99","99","4","",""
"99","null","memory","16:32:00","2","岩石","7","memory","99","","[]","201","1","setsizechunk","6S","sports","2","","99","99","4","",""
"99","null","memory","16:32:00","1","粉笔","11","memory","99","","[]","202","1","setsizechunk","6S","sports","2","","99","99","4","",""
"99","null","memory","16:32:00","2","纯净","2","memory","99","","[]","203","1","setsizechunk","6S","sports","2","","99","99","4","",""
"99","null","memory","16:32:00","0","雪山","5","memory","99","","[]","204","1","setsizechunk","6S","sports","2","","99","99","4","",""
"99","null","memory","16:32:00","2","纸盒","17","memory","99","","[]","205","1","setsizechunk","6S","sports","2","","99","99","4","",""
"99","null","memory","16:32:00","9","湿地","19","memory","99","","[]","206","1","setsizechunk","6S","sports","2","","99","99","4","",""
"99","null","memory","16:32:00","8","淡雅","13","memory","99","","[]","207","1","setsizechunk","6S","sports","2","","99","99","4","",""
"99","null","memory","16:32:00","2","书包","12","memory","99","","[]","208","1","setsizechunk","6S","sports","2","","99","99","4","",""
"99","null","memory","16:32:00","0","镜子","0","memory","99","","[]","209","1","setsizechunk","6S","sports","2","","99","99","4","",""
"99","null","memory","16:32:00","8","橡皮","18","memory","99","","[]","210","1","setsizechunk","6S","sports","2","","99","99","4","",""
"99","null","memory","16:32:00","9","书签","9","memory","99","","[]","211","1","setsizechunk","6S","sports","2","","99","99","4","",""
"99","null","memory","16:32:00","9","沉稳","14","memory","99","","[]","212","1","setsizechunk","6S","sports","2","","99","99","4","",""
"99","null","memory","16:32:00","0","线缆","10","memory","99","","[]","213","1","setsizechunk","6S","sports","2","","99","99","4","",""
"99","null","memory","16:32:00","1","针线","6","memory","99","","[]","214","1","setsizechunk","6S","sports","2","","99","99","4","",""
"99","null","memory","16:32:00","0","纸袋","15","memory","99","","[]","215","1","setsizechunk","6S","sports","2","","99","99","4","",""
"99","null","memory","16:32:00","9","丘陵","4","memory","99","","[]","216","1","setsizechunk","6S","sports","2","","99","99","4","",""
"99","null","memory","16:32:00","1","插头","16","memory","99","","[]","217","1","setsizechunk","6S","sports","2","","99","99","4","",""
"99","null","memory","16:32:00","1","沉稳","1","memory","99","","[]","218","1","setsizechunk","6S","sports","2","","99","99","4","",""
"99","null","memory","16:32:00","8","瀑布","3","memory","99","","[]","219","1","setsizechunk","6S","sports","2","","99","99","4","",""
"12753","0","recognition","16:32:00","0","沉稳","1","recognition","0","","[]","220","99","setsizechunk","6S","sports","2","","","1","4","50","1"
"3945","100","recognition","16:32:00","9","丘陵","4","recognition","1","","[]","221","99","setsizechunk","6S","sports","2","","","1","4","50","0"
"5452","100","recognition","16:32:00","9","书签","9","recognition","1","","[]","222","99","setsizechunk","6S","sports","2","","","1","4","50","0"
"2617","0","recognition","16:32:00","1","岩石","7","recognition","0","","[]","223","99","setsizechunk","6S","sports","2","","","1","4","50","2"
"2031","100","recognition","16:32:00","8","橡皮","18","recognition","1","","[]","224","99","setsizechunk","6S","sports","2","","","1","4","50","0"
"2465","100","recognition","16:32:00","1","插头","16","recognition","1","","[]","225","99","setsizechunk","6S","sports","2","","","1","4","50","0"
"2377","100","recognition","16:32:00","8","淡雅","13","recognition","1","","[]","226","99","setsizechunk","6S","sports","2","","","1","4","50","0"
"2631","100","recognition","16:32:00","2","纸盒","17","recognition","1","","[]","227","99","setsizechunk","6S","sports","2","","","1","4","50","0"
"2395","0","recognition","16:32:00","1","雪山","5","recognition","0","","[]","228","99","setsizechunk","6S","sports","2","","","1","4","50","1"
"2905","0","recognition","16:32:00","2","粉笔","11","recognition","0","","[]","229","99","setsizechunk","6S","sports","2","","","1","4","50","2"
"2429","100","recognition","16:32:00","9","沉稳","14","recognition","1","","[]","230","99","setsizechunk","6S","sports","2","","","1","4","50","0"
"3468","100","recognition","16:32:00","0","纯净","2","recognition","0","","[]","231","99","setsizechunk","6S","sports","2","","","0","4","50","2"
"3202","100","recognition","16:32:00","0","纸袋","15","recognition","1","","[]","232","99","setsizechunk","6S","sports","2","","","1","4","50","0"
"2232","0","recognition","16:32:00","2","线缆","10","recognition","0","","[]","233","99","setsizechunk","6S","sports","2","","","1","4","50","2"
"3680","0","recognition","16:32:00","1","镜子","0","recognition","0","","[]","234","99","setsizechunk","6S","sports","2","","","1","4","50","1"
"2016","100","recognition","16:32:00","9","湿地","19","recognition","1","","[]","235","99","setsizechunk","6S","sports","2","","","1","4","50","0"
"2523","0","recognition","16:32:00","2","瀑布","3","recognition","0","","[]","236","99","setsizechunk","6S","sports","2","","","1","4","50","3"
"1711","100","recognition","16:32:00","8","书架","8","recognition","1","","[]","237","99","setsizechunk","6S","sports","2","","","1","4","50","0"
"2422","0","recognition","16:32:00","8","书包","12","recognition","0","","[]","238","99","setsizechunk","6S","sports","2","","","1","4","50","3"
"1711","0","recognition","16:32:00","0","针线","6","recognition","0","","[]","239","99","setsizechunk","6S","sports","2","","","1","4","50","1"
