"rt","response","stage","start_time","s","word","word_id","phase","a_cor","a_real","a_ava","trial","tps","task_type","block_typ","pic_typ","block_id","cum_r","a","r","n_Prac","slider_start","pair_type"
"1032","null","learn","12:28:35","1","1","1","learn","0","0","[0, 1, 2]","0","0","setsize","99","prac","0","1","0","1","3","",""
"1953","null","learn","12:28:35","0","0","0","learn","0","0","[0, 1, 2]","1","0","setsize","99","prac","0","0","1","0","3","",""
"927","null","learn","12:28:35","2","2","2","learn","2","2","[0, 1, 2]","2","0","setsize","99","prac","0","0","1","0","3","",""
"1161","null","learn","12:28:35","1","1","1","learn","0","0","[0, 1, 2]","3","1","setsize","99","prac","0","1","0","1","3","",""
"673","null","learn","12:28:35","2","2","2","learn","2","2","[0, 1, 2]","4","1","setsize","99","prac","0","2","2","1","3","",""
"440","null","learn","12:28:35","0","0","0","learn","0","0","[0, 1, 2]","5","1","setsize","99","prac","0","0","2","0","3","",""
"664","null","learn","12:28:35","1","1","1","learn","0","0","[0, 1, 2]","0","0","setsize","99","prac","0","1","0","1","3","",""
"1805","null","learn","12:28:35","0","0","0","learn","0","0","[0, 1, 2]","1","0","setsize","99","prac","0","2","0","1","3","",""
"484","null","learn","12:28:35","2","2","2","learn","2","2","[0, 1, 2]","2","0","setsize","99","prac","0","3","2","1","3","",""
"455","null","learn","12:28:35","1","1","1","learn","0","0","[0, 1, 2]","3","1","setsize","99","prac","0","4","0","1","3","",""
"391","null","learn","12:28:35","2","2","2","learn","2","2","[0, 1, 2]","4","1","setsize","99","prac","0","0","0","0","3","",""
"735","null","learn","12:28:35","0","0","0","learn","0","0","[0, 1, 2]","5","1","setsize","99","prac","0","0","2","0","3","",""
"806","null","learn","12:28:35","1","1","1","learn","0","0","[0, 1, 2]","0","0","setsize","99","prac","0","1","0","1","3","",""
"2105","null","learn","12:28:35","0","0","0","learn","0","0","[0, 1, 2]","1","0","setsize","99","prac","0","2","0","1","3","",""
"1026","null","learn","12:28:35","2","2","2","learn","2","2","[0, 1, 2]","2","0","setsize","99","prac","0","3","2","1","3","",""
"549","null","learn","12:28:35","1","1","1","learn","0","0","[0, 1, 2]","3","1","setsize","99","prac","0","4","0","1","3","",""
"1065","null","learn","12:28:35","2","2","2","learn","2","2","[0, 1, 2]","4","1","setsize","99","prac","0","5","2","1","3","",""
"1193","null","learn","12:28:35","0","0","0","learn","0","0","[0, 1, 2]","5","1","setsize","99","prac","0","6","0","1","3","",""
"1937","null","learn","12:28:35","0","0","0","learn","0","0","[0, 1, 2]","0","0","setsizechunk","3S","food","1","0","1","0","3","",""
"1345","null","learn","12:28:35","1","1","1","learn","0","0","[0, 1, 2]","1","0","setsizechunk","3S","food","1","0","1","0","3","",""
"810","null","learn","12:28:35","2","2","2","learn","2","2","[0, 1, 2]","2","0","setsizechunk","3S","food","1","0","1","0","3","",""
"872","null","learn","12:28:35","1","1","1","learn","0","0","[0, 1, 2]","3","1","setsizechunk","3S","food","1","1","0","1","3","",""
"1461","null","learn","12:28:35","2","2","2","learn","2","2","[0, 1, 2]","4","1","setsizechunk","3S","food","1","2","2","1","3","",""
"1372","null","learn","12:28:35","0","0","0","learn","0","0","[0, 1, 2]","5","1","setsizechunk","3S","food","1","3","0","1","3","",""
"2717","null","learn","12:28:35","2","2","2","learn","2","2","[0, 1, 2]","6","2","setsizechunk","3S","food","1","4","2","1","3","",""
"561","null","learn","12:28:35","0","0","0","learn","0","0","[0, 1, 2]","7","2","setsizechunk","3S","food","1","5","0","1","3","",""
"493","null","learn","12:28:35","1","1","1","learn","0","0","[0, 1, 2]","8","2","setsizechunk","3S","food","1","6","0","1","3","",""
"454","null","learn","12:28:35","2","2","2","learn","2","2","[0, 1, 2]","9","3","setsizechunk","3S","food","1","7","2","1","3","",""
"716","null","learn","12:28:35","0","0","0","learn","0","0","[0, 1, 2]","10","3","setsizechunk","3S","food","1","8","0","1","3","",""
"666","null","learn","12:28:35","1","1","1","learn","0","0","[0, 1, 2]","11","3","setsizechunk","3S","food","1","9","0","1","3","",""
"512","null","learn","12:28:35","0","0","0","learn","0","0","[0, 1, 2]","12","4","setsizechunk","3S","food","1","10","0","1","3","",""
"538","null","learn","12:28:35","2","2","2","learn","2","2","[0, 1, 2]","13","4","setsizechunk","3S","food","1","11","2","1","3","",""
"577","null","learn","12:28:35","1","1","1","learn","0","0","[0, 1, 2]","14","4","setsizechunk","3S","food","1","12","0","1","3","",""
"470","null","learn","12:28:35","1","1","1","learn","0","0","[0, 1, 2]","15","5","setsizechunk","3S","food","1","13","0","1","3","",""
"511","null","learn","12:28:35","2","2","2","learn","2","2","[0, 1, 2]","16","5","setsizechunk","3S","food","1","14","2","1","3","",""
"657","null","learn","12:28:35","0","0","0","learn","0","0","[0, 1, 2]","17","5","setsizechunk","3S","food","1","15","0","1","3","",""
"556","null","learn","12:28:35","2","2","2","learn","2","2","[0, 1, 2]","18","6","setsizechunk","3S","food","1","16","2","1","3","",""
"519","null","learn","12:28:35","1","1","1","learn","0","0","[0, 1, 2]","19","6","setsizechunk","3S","food","1","17","0","1","3","",""
"592","null","learn","12:28:35","0","0","0","learn","0","0","[0, 1, 2]","20","6","setsizechunk","3S","food","1","18","0","1","3","",""
"533","null","learn","12:28:35","2","2","2","learn","2","2","[0, 1, 2]","21","7","setsizechunk","3S","food","1","19","2","1","3","",""
"511","null","learn","12:28:35","1","1","1","learn","0","0","[0, 1, 2]","22","7","setsizechunk","3S","food","1","20","0","1","3","",""
"651","null","learn","12:28:35","0","0","0","learn","0","0","[0, 1, 2]","23","7","setsizechunk","3S","food","1","21","0","1","3","",""
"570","null","learn","12:28:35","1","1","1","learn","0","0","[0, 1, 2]","24","8","setsizechunk","3S","food","1","22","0","1","3","",""
"455","null","learn","12:28:35","2","2","2","learn","2","2","[0, 1, 2]","25","8","setsizechunk","3S","food","1","23","2","1","3","",""
"503","null","learn","12:28:35","0","0","0","learn","0","0","[0, 1, 2]","26","8","setsizechunk","3S","food","1","24","0","1","3","",""
"850","null","learn","12:28:35","2","2","2","learn","2","2","[0, 1, 2]","27","9","setsizechunk","3S","food","1","25","2","1","3","",""
"393","null","learn","12:28:35","0","0","0","learn","0","0","[0, 1, 2]","28","9","setsizechunk","3S","food","1","26","0","1","3","",""
"415","null","learn","12:28:35","1","1","1","learn","0","0","[0, 1, 2]","29","9","setsizechunk","3S","food","1","27","0","1","3","",""
"1015","null","learn","12:28:35","2","2","2","learn","2","2","[0, 1, 2]","30","10","setsizechunk","3S","food","1","28","2","1","3","",""
"1756","null","learn","12:28:35","1","1","1","learn","0","0","[0, 1, 2]","31","10","setsizechunk","3S","food","1","29","0","1","3","",""
"383","null","learn","12:28:35","0","0","0","learn","0","0","[0, 1, 2]","32","10","setsizechunk","3S","food","1","30","0","1","3","",""
"626","null","learn","12:28:35","2","2","2","learn","2","2","[0, 1, 2]","33","11","setsizechunk","3S","food","1","31","2","1","3","",""
"392","null","learn","12:28:35","0","0","0","learn","0","0","[0, 1, 2]","34","11","setsizechunk","3S","food","1","32","0","1","3","",""
"398","null","learn","12:28:35","1","1","1","learn","0","0","[0, 1, 2]","35","11","setsizechunk","3S","food","1","33","0","1","3","",""
"777","null","learn","12:28:35","2","2","2","learn","2","2","[0, 1, 2]","36","12","setsizechunk","3S","food","1","34","2","1","3","",""
"569","null","learn","12:28:35","0","0","0","learn","0","0","[0, 1, 2]","37","12","setsizechunk","3S","food","1","35","0","1","3","",""
"600","null","learn","12:28:35","1","1","1","learn","0","0","[0, 1, 2]","38","12","setsizechunk","3S","food","1","36","0","1","3","",""
"530","null","learn","12:28:35","0","0","0","learn","0","0","[0, 1, 2]","39","13","setsizechunk","3S","food","1","37","0","1","3","",""
"409","null","learn","12:28:35","1","1","1","learn","0","0","[0, 1, 2]","40","13","setsizechunk","3S","food","1","38","0","1","3","",""
"401","null","learn","12:28:35","2","2","2","learn","2","2","[0, 1, 2]","41","13","setsizechunk","3S","food","1","39","2","1","3","",""
"610","null","learn","12:28:35","2","2","2","learn","2","2","[0, 1, 2]","42","14","setsizechunk","3S","food","1","40","2","1","3","",""
"471","null","learn","12:28:35","0","0","0","learn","0","0","[0, 1, 2]","43","14","setsizechunk","3S","food","1","41","0","1","3","",""
"374","null","learn","12:28:35","1","1","1","learn","0","0","[0, 1, 2]","44","14","setsizechunk","3S","food","1","42","0","1","3","",""
"778","null","learn","12:28:35","2","2","2","learn","2","2","[0, 1, 2]","45","15","setsizechunk","3S","food","1","43","2","1","3","",""
"99","null","memory","12:28:35","2","钥匙","12","memory","99","","[]","90","0","setsizechunk","3S","food","1","","99","99","3","",""
"99","null","memory","12:28:35","0","峡谷","15","memory","99","","[]","91","0","setsizechunk","3S","food","1","","99","99","3","",""
"99","null","memory","12:28:35","9","清新","14","memory","99","","[]","92","0","setsizechunk","3S","food","1","","99","99","3","",""
"99","null","memory","12:28:35","8","深邃","8","memory","99","","[]","93","0","setsizechunk","3S","food","1","","99","99","3","",""
"99","null","memory","12:28:35","8","明亮","3","memory","99","","[]","94","0","setsizechunk","3S","food","1","","99","99","3","",""
"99","null","memory","12:28:35","8","笔墨","18","memory","99","","[]","95","0","setsizechunk","3S","food","1","","99","99","3","",""
"99","null","memory","12:28:35","8","雨伞","13","memory","99","","[]","96","0","setsizechunk","3S","food","1","","99","99","3","",""
"99","null","memory","12:28:35","1","书本","1","memory","99","","[]","97","0","setsizechunk","3S","food","1","","99","99","3","",""
"99","null","memory","12:28:35","1","窗帘","16","memory","99","","[]","98","0","setsizechunk","3S","food","1","","99","99","3","",""
"99","null","memory","12:28:35","1","电池","6","memory","99","","[]","99","0","setsizechunk","3S","food","1","","99","99","3","",""
"99","null","memory","12:28:35","0","山峰","5","memory","99","","[]","100","0","setsizechunk","3S","food","1","","99","99","3","",""
"99","null","memory","12:28:35","2","纸张","2","memory","99","","[]","101","0","setsizechunk","3S","food","1","","99","99","3","",""
"99","null","memory","12:28:35","9","广阔","4","memory","99","","[]","102","0","setsizechunk","3S","food","1","","99","99","3","",""
"99","null","memory","12:28:35","2","钢笔","17","memory","99","","[]","103","0","setsizechunk","3S","food","1","","99","99","3","",""
"99","null","memory","12:28:35","2","纸巾","7","memory","99","","[]","104","0","setsizechunk","3S","food","1","","99","99","3","",""
"99","null","memory","12:28:35","9","灯泡","9","memory","99","","[]","105","0","setsizechunk","3S","food","1","","99","99","3","",""
"99","null","memory","12:28:35","0","玻璃","10","memory","99","","[]","106","0","setsizechunk","3S","food","1","","99","99","3","",""
"99","null","memory","12:28:35","9","柔和","19","memory","99","","[]","107","0","setsizechunk","3S","food","1","","99","99","3","",""
"99","null","memory","12:28:35","1","沙漠","11","memory","99","","[]","108","0","setsizechunk","3S","food","1","","99","99","3","",""
"99","null","memory","12:28:35","0","湖泊","0","memory","99","","[]","109","0","setsizechunk","3S","food","1","","99","99","3","",""
"99","null","memory","12:28:35","1","沙漠","11","memory","99","","[]","110","1","setsizechunk","3S","food","1","","99","99","3","",""
"99","null","memory","12:28:35","0","湖泊","0","memory","99","","[]","111","1","setsizechunk","3S","food","1","","99","99","3","",""
"99","null","memory","12:28:35","1","窗帘","16","memory","99","","[]","112","1","setsizechunk","3S","food","1","","99","99","3","",""
"99","null","memory","12:28:35","9","柔和","19","memory","99","","[]","113","1","setsizechunk","3S","food","1","","99","99","3","",""
"99","null","memory","12:28:35","8","深邃","8","memory","99","","[]","114","1","setsizechunk","3S","food","1","","99","99","3","",""
"99","null","memory","12:28:35","9","清新","14","memory","99","","[]","115","1","setsizechunk","3S","food","1","","99","99","3","",""
"99","null","memory","12:28:35","0","山峰","5","memory","99","","[]","116","1","setsizechunk","3S","food","1","","99","99","3","",""
"99","null","memory","12:28:35","8","雨伞","13","memory","99","","[]","117","1","setsizechunk","3S","food","1","","99","99","3","",""
"99","null","memory","12:28:35","1","书本","1","memory","99","","[]","118","1","setsizechunk","3S","food","1","","99","99","3","",""
"99","null","memory","12:28:35","8","明亮","3","memory","99","","[]","119","1","setsizechunk","3S","food","1","","99","99","3","",""
"99","null","memory","12:28:35","2","纸巾","7","memory","99","","[]","120","1","setsizechunk","3S","food","1","","99","99","3","",""
"99","null","memory","12:28:35","2","钢笔","17","memory","99","","[]","121","1","setsizechunk","3S","food","1","","99","99","3","",""
"99","null","memory","12:28:35","9","灯泡","9","memory","99","","[]","122","1","setsizechunk","3S","food","1","","99","99","3","",""
"99","null","memory","12:28:35","9","广阔","4","memory","99","","[]","123","1","setsizechunk","3S","food","1","","99","99","3","",""
"99","null","memory","12:28:35","0","玻璃","10","memory","99","","[]","124","1","setsizechunk","3S","food","1","","99","99","3","",""
"99","null","memory","12:28:35","0","峡谷","15","memory","99","","[]","125","1","setsizechunk","3S","food","1","","99","99","3","",""
"99","null","memory","12:28:35","8","笔墨","18","memory","99","","[]","126","1","setsizechunk","3S","food","1","","99","99","3","",""
"99","null","memory","12:28:35","2","钥匙","12","memory","99","","[]","127","1","setsizechunk","3S","food","1","","99","99","3","",""
"99","null","memory","12:28:35","2","纸张","2","memory","99","","[]","128","1","setsizechunk","3S","food","1","","99","99","3","",""
"99","null","memory","12:28:35","1","电池","6","memory","99","","[]","129","1","setsizechunk","3S","food","1","","99","99","3","",""
"6487","42","recognition","12:28:35","1","窗帘","16","recognition","1","","[]","130","99","setsizechunk","3S","food","1","","","0","3","50","0"
"8460","16","recognition","12:28:35","2","明亮","3","recognition","0","","[]","131","99","setsizechunk","3S","food","1","","","1","3","50","3"
"3514","100","recognition","12:28:35","8","深邃","8","recognition","1","","[]","132","99","setsizechunk","3S","food","1","","","1","3","50","0"
"2248","100","recognition","12:28:35","9","灯泡","9","recognition","1","","[]","133","99","setsizechunk","3S","food","1","","","1","3","50","0"
"2167","100","recognition","12:28:35","9","柔和","19","recognition","1","","[]","134","99","setsizechunk","3S","food","1","","","1","3","50","0"
"2014","100","recognition","12:28:35","8","雨伞","13","recognition","1","","[]","135","99","setsizechunk","3S","food","1","","","1","3","50","0"
"3228","1","recognition","12:28:35","0","电池","6","recognition","0","","[]","136","99","setsizechunk","3S","food","1","","","1","3","50","1"
"2424","100","recognition","12:28:35","0","峡谷","15","recognition","1","","[]","137","99","setsizechunk","3S","food","1","","","1","3","50","0"
"3993","0","recognition","12:28:35","1","山峰","5","recognition","0","","[]","138","99","setsizechunk","3S","food","1","","","1","3","50","1"
"3338","2","recognition","12:28:35","1","湖泊","0","recognition","0","","[]","139","99","setsizechunk","3S","food","1","","","1","3","50","1"
"2918","0","recognition","12:28:35","0","纸张","2","recognition","0","","[]","140","99","setsizechunk","3S","food","1","","","1","3","50","2"
"3001","0","recognition","12:28:35","2","沙漠","11","recognition","0","","[]","141","99","setsizechunk","3S","food","1","","","1","3","50","2"
"1967","100","recognition","12:28:35","8","笔墨","18","recognition","1","","[]","142","99","setsizechunk","3S","food","1","","","1","3","50","0"
"2486","100","recognition","12:28:35","9","广阔","4","recognition","1","","[]","143","99","setsizechunk","3S","food","1","","","1","3","50","0"
"2160","0","recognition","12:28:35","8","钥匙","12","recognition","0","","[]","144","99","setsizechunk","3S","food","1","","","1","3","50","3"
"1926","100","recognition","12:28:35","9","清新","14","recognition","1","","[]","145","99","setsizechunk","3S","food","1","","","1","3","50","0"
"3219","100","recognition","12:28:35","2","钢笔","17","recognition","1","","[]","146","99","setsizechunk","3S","food","1","","","1","3","50","0"
"5003","21","recognition","12:28:35","1","纸巾","7","recognition","0","","[]","147","99","setsizechunk","3S","food","1","","","1","3","50","2"
"2540","0","recognition","12:28:35","2","玻璃","10","recognition","0","","[]","148","99","setsizechunk","3S","food","1","","","1","3","50","2"
"2389","0","recognition","12:28:35","0","书本","1","recognition","0","","[]","149","99","setsizechunk","3S","food","1","","","1","3","50","1"
"1128","null","learn","12:28:35","3","3","3","learn","1","1","[0, 1, 2]","0","0","setsizechunk","6S","furniture","2","0","0","0","3","",""
"2044","null","learn","12:28:35","0","0","0","learn","0","0","[0, 1, 2]","1","0","setsizechunk","6S","furniture","2","0","2","0","3","",""
"783","null","learn","12:28:35","1","1","1","learn","0","0","[0, 1, 2]","2","0","setsizechunk","6S","furniture","2","0","2","0","3","",""
"662","null","learn","12:28:35","4","4","4","learn","2","2","[0, 1, 2]","3","0","setsizechunk","6S","furniture","2","1","2","1","3","",""
"1849","null","learn","12:28:35","2","2","2","learn","1","1","[0, 1, 2]","4","0","setsizechunk","6S","furniture","2","2","1","1","3","",""
"2585","null","learn","12:28:35","5","5","5","learn","2","2","[0, 1, 2]","5","0","setsizechunk","6S","furniture","2","3","2","1","3","",""
"680","null","learn","12:28:35","4","4","4","learn","2","2","[0, 1, 2]","6","1","setsizechunk","6S","furniture","2","4","2","1","3","",""
"1317","null","learn","12:28:35","3","3","3","learn","1","1","[0, 1, 2]","7","1","setsizechunk","6S","furniture","2","5","1","1","3","",""
"2387","null","learn","12:28:35","1","1","1","learn","0","0","[0, 1, 2]","8","1","setsizechunk","6S","furniture","2","6","0","1","3","",""
"1460","null","learn","12:28:35","5","5","5","learn","2","2","[0, 1, 2]","9","1","setsizechunk","6S","furniture","2","7","2","1","3","",""
"null","null","learn","12:28:35","0","0","0","learn","0","0","[0, 1, 2]","10","1","setsizechunk","6S","furniture","2","0","999","0","3","",""
"1119","null","learn","12:28:35","2","2","2","learn","1","1","[0, 1, 2]","11","1","setsizechunk","6S","furniture","2","1","1","1","3","",""
"1503","null","learn","12:28:35","3","3","3","learn","1","1","[0, 1, 2]","12","2","setsizechunk","6S","furniture","2","0","0","0","3","",""
"753","null","learn","12:28:35","4","4","4","learn","2","2","[0, 1, 2]","13","2","setsizechunk","6S","furniture","2","1","2","1","3","",""
"817","null","learn","12:28:35","2","2","2","learn","1","1","[0, 1, 2]","14","2","setsizechunk","6S","furniture","2","2","1","1","3","",""
"1328","null","learn","12:28:35","1","1","1","learn","0","0","[0, 1, 2]","15","2","setsizechunk","6S","furniture","2","0","2","0","3","",""
"854","null","learn","12:28:35","0","0","0","learn","0","0","[0, 1, 2]","16","2","setsizechunk","6S","furniture","2","0","2","0","3","",""
"938","null","learn","12:28:35","5","5","5","learn","2","2","[0, 1, 2]","17","2","setsizechunk","6S","furniture","2","1","2","1","3","",""
"1301","null","learn","12:28:35","0","0","0","learn","0","0","[0, 1, 2]","18","3","setsizechunk","6S","furniture","2","2","0","1","3","",""
"2167","null","learn","12:28:35","1","1","1","learn","0","0","[0, 1, 2]","19","3","setsizechunk","6S","furniture","2","3","0","1","3","",""
"849","null","learn","12:28:35","2","2","2","learn","1","1","[0, 1, 2]","20","3","setsizechunk","6S","furniture","2","4","1","1","3","",""
"492","null","learn","12:28:35","5","5","5","learn","2","2","[0, 1, 2]","21","3","setsizechunk","6S","furniture","2","5","2","1","3","",""
"1734","null","learn","12:28:35","3","3","3","learn","1","1","[0, 1, 2]","22","3","setsizechunk","6S","furniture","2","0","2","0","3","",""
"1726","null","learn","12:28:35","4","4","4","learn","2","2","[0, 1, 2]","23","3","setsizechunk","6S","furniture","2","0","1","0","3","",""
"1617","null","learn","12:28:35","0","0","0","learn","0","0","[0, 1, 2]","24","4","setsizechunk","6S","furniture","2","1","0","1","3","",""
"1265","null","learn","12:28:35","1","1","1","learn","0","0","[0, 1, 2]","25","4","setsizechunk","6S","furniture","2","2","0","1","3","",""
"616","null","learn","12:28:35","5","5","5","learn","2","2","[0, 1, 2]","26","4","setsizechunk","6S","furniture","2","3","2","1","3","",""
"2406","null","learn","12:28:35","3","3","3","learn","1","1","[0, 1, 2]","27","4","setsizechunk","6S","furniture","2","0","0","0","3","",""
"1277","null","learn","12:28:35","4","4","4","learn","2","2","[0, 1, 2]","28","4","setsizechunk","6S","furniture","2","0","1","0","3","",""
"787","null","learn","12:28:35","2","2","2","learn","1","1","[0, 1, 2]","29","4","setsizechunk","6S","furniture","2","1","1","1","3","",""
"605","null","learn","12:28:35","2","2","2","learn","1","1","[0, 1, 2]","30","5","setsizechunk","6S","furniture","2","2","1","1","3","",""
"2030","null","learn","12:28:35","1","1","1","learn","0","0","[0, 1, 2]","31","5","setsizechunk","6S","furniture","2","3","0","1","3","",""
"636","null","learn","12:28:35","5","5","5","learn","2","2","[0, 1, 2]","32","5","setsizechunk","6S","furniture","2","4","2","1","3","",""
"1222","null","learn","12:28:35","4","4","4","learn","2","2","[0, 1, 2]","33","5","setsizechunk","6S","furniture","2","5","2","1","3","",""
"851","null","learn","12:28:35","3","3","3","learn","1","1","[0, 1, 2]","34","5","setsizechunk","6S","furniture","2","6","1","1","3","",""
"1153","null","learn","12:28:35","0","0","0","learn","0","0","[0, 1, 2]","35","5","setsizechunk","6S","furniture","2","7","0","1","3","",""
"923","null","learn","12:28:35","5","5","5","learn","2","2","[0, 1, 2]","36","6","setsizechunk","6S","furniture","2","8","2","1","3","",""
"2276","null","learn","12:28:35","0","0","0","learn","0","0","[0, 1, 2]","37","6","setsizechunk","6S","furniture","2","9","0","1","3","",""
"597","null","learn","12:28:35","1","1","1","learn","0","0","[0, 1, 2]","38","6","setsizechunk","6S","furniture","2","10","0","1","3","",""
"1516","null","learn","12:28:35","4","4","4","learn","2","2","[0, 1, 2]","39","6","setsizechunk","6S","furniture","2","11","2","1","3","",""
"796","null","learn","12:28:35","2","2","2","learn","1","1","[0, 1, 2]","40","6","setsizechunk","6S","furniture","2","12","1","1","3","",""
"1353","null","learn","12:28:35","3","3","3","learn","1","1","[0, 1, 2]","41","6","setsizechunk","6S","furniture","2","13","1","1","3","",""
"1271","null","learn","12:28:35","4","4","4","learn","2","2","[0, 1, 2]","42","7","setsizechunk","6S","furniture","2","14","2","1","3","",""
"735","null","learn","12:28:35","3","3","3","learn","1","1","[0, 1, 2]","43","7","setsizechunk","6S","furniture","2","15","1","1","3","",""
"625","null","learn","12:28:35","5","5","5","learn","2","2","[0, 1, 2]","44","7","setsizechunk","6S","furniture","2","16","2","1","3","",""
"782","null","learn","12:28:35","2","2","2","learn","1","1","[0, 1, 2]","45","7","setsizechunk","6S","furniture","2","17","1","1","3","",""
"840","null","learn","12:28:35","1","1","1","learn","0","0","[0, 1, 2]","46","7","setsizechunk","6S","furniture","2","18","0","1","3","",""
"1317","null","learn","12:28:35","0","0","0","learn","0","0","[0, 1, 2]","47","7","setsizechunk","6S","furniture","2","19","0","1","3","",""
"720","null","learn","12:28:35","3","3","3","learn","1","1","[0, 1, 2]","48","8","setsizechunk","6S","furniture","2","20","1","1","3","",""
"840","null","learn","12:28:35","1","1","1","learn","0","0","[0, 1, 2]","49","8","setsizechunk","6S","furniture","2","21","0","1","3","",""
"1373","null","learn","12:28:35","0","0","0","learn","0","0","[0, 1, 2]","50","8","setsizechunk","6S","furniture","2","22","0","1","3","",""
"1740","null","learn","12:28:35","4","4","4","learn","2","2","[0, 1, 2]","51","8","setsizechunk","6S","furniture","2","23","2","1","3","",""
"507","null","learn","12:28:35","5","5","5","learn","2","2","[0, 1, 2]","52","8","setsizechunk","6S","furniture","2","24","2","1","3","",""
"545","null","learn","12:28:35","2","2","2","learn","1","1","[0, 1, 2]","53","8","setsizechunk","6S","furniture","2","25","1","1","3","",""
"842","null","learn","12:28:35","4","4","4","learn","2","2","[0, 1, 2]","54","9","setsizechunk","6S","furniture","2","26","2","1","3","",""
"610","null","learn","12:28:35","2","2","2","learn","1","1","[0, 1, 2]","55","9","setsizechunk","6S","furniture","2","27","1","1","3","",""
"682","null","learn","12:28:35","0","0","0","learn","0","0","[0, 1, 2]","56","9","setsizechunk","6S","furniture","2","28","0","1","3","",""
"752","null","learn","12:28:35","3","3","3","learn","1","1","[0, 1, 2]","57","9","setsizechunk","6S","furniture","2","29","1","1","3","",""
"801","null","learn","12:28:35","5","5","5","learn","2","2","[0, 1, 2]","58","9","setsizechunk","6S","furniture","2","30","2","1","3","",""
"837","null","learn","12:28:35","1","1","1","learn","0","0","[0, 1, 2]","59","9","setsizechunk","6S","furniture","2","31","0","1","3","",""
"960","null","learn","12:28:35","0","0","0","learn","0","0","[0, 1, 2]","60","10","setsizechunk","6S","furniture","2","32","0","1","3","",""
"652","null","learn","12:28:35","1","1","1","learn","0","0","[0, 1, 2]","61","10","setsizechunk","6S","furniture","2","33","0","1","3","",""
"646","null","learn","12:28:35","5","5","5","learn","2","2","[0, 1, 2]","62","10","setsizechunk","6S","furniture","2","34","2","1","3","",""
"1132","null","learn","12:28:35","3","3","3","learn","1","1","[0, 1, 2]","63","10","setsizechunk","6S","furniture","2","35","1","1","3","",""
"1032","null","learn","12:28:35","4","4","4","learn","2","2","[0, 1, 2]","64","10","setsizechunk","6S","furniture","2","36","2","1","3","",""
"456","null","learn","12:28:35","2","2","2","learn","1","1","[0, 1, 2]","65","10","setsizechunk","6S","furniture","2","37","1","1","3","",""
"429","null","learn","12:28:35","2","2","2","learn","1","1","[0, 1, 2]","66","11","setsizechunk","6S","furniture","2","38","1","1","3","",""
"692","null","learn","12:28:35","1","1","1","learn","0","0","[0, 1, 2]","67","11","setsizechunk","6S","furniture","2","39","0","1","3","",""
"796","null","learn","12:28:35","3","3","3","learn","1","1","[0, 1, 2]","68","11","setsizechunk","6S","furniture","2","40","1","1","3","",""
"930","null","learn","12:28:35","4","4","4","learn","2","2","[0, 1, 2]","69","11","setsizechunk","6S","furniture","2","41","2","1","3","",""
"600","null","learn","12:28:35","0","0","0","learn","0","0","[0, 1, 2]","70","11","setsizechunk","6S","furniture","2","42","0","1","3","",""
"495","null","learn","12:28:35","5","5","5","learn","2","2","[0, 1, 2]","71","11","setsizechunk","6S","furniture","2","43","2","1","3","",""
"552","null","learn","12:28:35","0","0","0","learn","0","0","[0, 1, 2]","72","12","setsizechunk","6S","furniture","2","44","0","1","3","",""
"720","null","learn","12:28:35","2","2","2","learn","1","1","[0, 1, 2]","73","12","setsizechunk","6S","furniture","2","45","1","1","3","",""
"577","null","learn","12:28:35","4","4","4","learn","2","2","[0, 1, 2]","74","12","setsizechunk","6S","furniture","2","46","2","1","3","",""
"498","null","learn","12:28:35","1","1","1","learn","0","0","[0, 1, 2]","75","12","setsizechunk","6S","furniture","2","47","0","1","3","",""
"484","null","learn","12:28:35","5","5","5","learn","2","2","[0, 1, 2]","76","12","setsizechunk","6S","furniture","2","48","2","1","3","",""
"786","null","learn","12:28:35","3","3","3","learn","1","1","[0, 1, 2]","77","12","setsizechunk","6S","furniture","2","49","1","1","3","",""
"475","null","learn","12:28:35","5","5","5","learn","2","2","[0, 1, 2]","78","13","setsizechunk","6S","furniture","2","50","2","1","3","",""
"545","null","learn","12:28:35","1","1","1","learn","0","0","[0, 1, 2]","79","13","setsizechunk","6S","furniture","2","51","0","1","3","",""
"585","null","learn","12:28:35","3","3","3","learn","1","1","[0, 1, 2]","80","13","setsizechunk","6S","furniture","2","52","1","1","3","",""
"524","null","learn","12:28:35","0","0","0","learn","0","0","[0, 1, 2]","81","13","setsizechunk","6S","furniture","2","53","0","1","3","",""
"718","null","learn","12:28:35","2","2","2","learn","1","1","[0, 1, 2]","82","13","setsizechunk","6S","furniture","2","54","1","1","3","",""
"572","null","learn","12:28:35","4","4","4","learn","2","2","[0, 1, 2]","83","13","setsizechunk","6S","furniture","2","55","2","1","3","",""
"1442","null","learn","12:28:35","2","2","2","learn","1","1","[0, 1, 2]","84","14","setsizechunk","6S","furniture","2","56","1","1","3","",""
"503","null","learn","12:28:35","4","4","4","learn","2","2","[0, 1, 2]","85","14","setsizechunk","6S","furniture","2","57","2","1","3","",""
"696","null","learn","12:28:35","3","3","3","learn","1","1","[0, 1, 2]","86","14","setsizechunk","6S","furniture","2","58","1","1","3","",""
"454","null","learn","12:28:35","0","0","0","learn","0","0","[0, 1, 2]","87","14","setsizechunk","6S","furniture","2","59","0","1","3","",""
"363","null","learn","12:28:35","1","1","1","learn","0","0","[0, 1, 2]","88","14","setsizechunk","6S","furniture","2","60","0","1","3","",""
"379","null","learn","12:28:35","5","5","5","learn","2","2","[0, 1, 2]","89","14","setsizechunk","6S","furniture","2","61","2","1","3","",""
"370","null","learn","12:28:35","5","5","5","learn","2","2","[0, 1, 2]","90","15","setsizechunk","6S","furniture","2","62","2","1","3","",""
"99","null","memory","12:28:35","9","沉稳","14","memory","99","","[]","180","0","setsizechunk","6S","furniture","2","","99","99","3","",""
"99","null","memory","12:28:35","2","纯净","12","memory","99","","[]","181","0","setsizechunk","6S","furniture","2","","99","99","3","",""
"99","null","memory","12:28:35","1","沉稳","11","memory","99","","[]","182","0","setsizechunk","6S","furniture","2","","99","99","3","",""
"99","null","memory","12:28:35","0","淡雅","10","memory","99","","[]","183","0","setsizechunk","6S","furniture","2","","99","99","3","",""
"99","null","memory","12:28:35","8","纸盒","3","memory","99","","[]","184","0","setsizechunk","6S","furniture","2","","99","99","3","",""
"99","null","memory","12:28:35","2","针线","2","memory","99","","[]","185","0","setsizechunk","6S","furniture","2","","99","99","3","",""
"99","null","memory","12:28:35","2","书包","17","memory","99","","[]","186","0","setsizechunk","6S","furniture","2","","99","99","3","",""
"99","null","memory","12:28:35","0","岩石","15","memory","99","","[]","187","0","setsizechunk","6S","furniture","2","","99","99","3","",""
"99","null","memory","12:28:35","8","书签","13","memory","99","","[]","188","0","setsizechunk","6S","furniture","2","","99","99","3","",""
"99","null","memory","12:28:35","1","纸袋","6","memory","99","","[]","189","0","setsizechunk","6S","furniture","2","","99","99","3","",""
"99","null","memory","12:28:35","0","瀑布","5","memory","99","","[]","190","0","setsizechunk","6S","furniture","2","","99","99","3","",""
"99","null","memory","12:28:35","8","线缆","18","memory","99","","[]","191","0","setsizechunk","6S","furniture","2","","99","99","3","",""
"99","null","memory","12:28:35","9","橡皮","19","memory","99","","[]","192","0","setsizechunk","6S","furniture","2","","99","99","3","",""
"99","null","memory","12:28:35","8","书架","8","memory","99","","[]","193","0","setsizechunk","6S","furniture","2","","99","99","3","",""
"99","null","memory","12:28:35","0","丘陵","0","memory","99","","[]","194","0","setsizechunk","6S","furniture","2","","99","99","3","",""
"99","null","memory","12:28:35","9","粉笔","4","memory","99","","[]","195","0","setsizechunk","6S","furniture","2","","99","99","3","",""
"99","null","memory","12:28:35","1","雪山","1","memory","99","","[]","196","0","setsizechunk","6S","furniture","2","","99","99","3","",""
"99","null","memory","12:28:35","1","插头","16","memory","99","","[]","197","0","setsizechunk","6S","furniture","2","","99","99","3","",""
"99","null","memory","12:28:35","9","镜子","9","memory","99","","[]","198","0","setsizechunk","6S","furniture","2","","99","99","3","",""
"99","null","memory","12:28:35","2","湿地","7","memory","99","","[]","199","0","setsizechunk","6S","furniture","2","","99","99","3","",""
"99","null","memory","12:28:35","1","沉稳","11","memory","99","","[]","200","1","setsizechunk","6S","furniture","2","","99","99","3","",""
"99","null","memory","12:28:35","1","插头","16","memory","99","","[]","201","1","setsizechunk","6S","furniture","2","","99","99","3","",""
"99","null","memory","12:28:35","2","湿地","7","memory","99","","[]","202","1","setsizechunk","6S","furniture","2","","99","99","3","",""
"99","null","memory","12:28:35","2","纯净","12","memory","99","","[]","203","1","setsizechunk","6S","furniture","2","","99","99","3","",""
"99","null","memory","12:28:35","2","针线","2","memory","99","","[]","204","1","setsizechunk","6S","furniture","2","","99","99","3","",""
"99","null","memory","12:28:35","8","书签","13","memory","99","","[]","205","1","setsizechunk","6S","furniture","2","","99","99","3","",""
"99","null","memory","12:28:35","1","雪山","1","memory","99","","[]","206","1","setsizechunk","6S","furniture","2","","99","99","3","",""
"99","null","memory","12:28:35","9","粉笔","4","memory","99","","[]","207","1","setsizechunk","6S","furniture","2","","99","99","3","",""
"99","null","memory","12:28:35","9","橡皮","19","memory","99","","[]","208","1","setsizechunk","6S","furniture","2","","99","99","3","",""
"99","null","memory","12:28:35","9","沉稳","14","memory","99","","[]","209","1","setsizechunk","6S","furniture","2","","99","99","3","",""
"99","null","memory","12:28:35","8","纸盒","3","memory","99","","[]","210","1","setsizechunk","6S","furniture","2","","99","99","3","",""
"99","null","memory","12:28:35","1","纸袋","6","memory","99","","[]","211","1","setsizechunk","6S","furniture","2","","99","99","3","",""
"99","null","memory","12:28:35","0","瀑布","5","memory","99","","[]","212","1","setsizechunk","6S","furniture","2","","99","99","3","",""
"99","null","memory","12:28:35","8","线缆","18","memory","99","","[]","213","1","setsizechunk","6S","furniture","2","","99","99","3","",""
"99","null","memory","12:28:35","0","淡雅","10","memory","99","","[]","214","1","setsizechunk","6S","furniture","2","","99","99","3","",""
"99","null","memory","12:28:35","2","书包","17","memory","99","","[]","215","1","setsizechunk","6S","furniture","2","","99","99","3","",""
"99","null","memory","12:28:35","0","岩石","15","memory","99","","[]","216","1","setsizechunk","6S","furniture","2","","99","99","3","",""
"99","null","memory","12:28:35","8","书架","8","memory","99","","[]","217","1","setsizechunk","6S","furniture","2","","99","99","3","",""
"99","null","memory","12:28:35","0","丘陵","0","memory","99","","[]","218","1","setsizechunk","6S","furniture","2","","99","99","3","",""
"99","null","memory","12:28:35","9","镜子","9","memory","99","","[]","219","1","setsizechunk","6S","furniture","2","","99","99","3","",""
"3144","100","recognition","12:28:35","0","岩石","15","recognition","1","","[]","220","99","setsizechunk","6S","furniture","2","","","1","3","50","0"
"2022","100","recognition","12:28:35","8","线缆","18","recognition","1","","[]","221","99","setsizechunk","6S","furniture","2","","","1","3","50","0"
"2263","0","recognition","12:28:35","0","纸袋","6","recognition","0","","[]","222","99","setsizechunk","6S","furniture","2","","","1","3","50","1"
"2208","0","recognition","12:28:35","1","瀑布","5","recognition","0","","[]","223","99","setsizechunk","6S","furniture","2","","","1","3","50","1"
"1946","0","recognition","12:28:35","2","纸盒","3","recognition","0","","[]","224","99","setsizechunk","6S","furniture","2","","","1","3","50","3"
"2044","100","recognition","12:28:35","9","粉笔","4","recognition","1","","[]","225","99","setsizechunk","6S","furniture","2","","","1","3","50","0"
"2224","0","recognition","12:28:35","0","雪山","1","recognition","0","","[]","226","99","setsizechunk","6S","furniture","2","","","1","3","50","1"
"2352","100","recognition","12:28:35","9","镜子","9","recognition","1","","[]","227","99","setsizechunk","6S","furniture","2","","","1","3","50","0"
"2112","100","recognition","12:28:35","2","书包","17","recognition","1","","[]","228","99","setsizechunk","6S","furniture","2","","","1","3","50","0"
"2367","0","recognition","12:28:35","8","纯净","12","recognition","0","","[]","229","99","setsizechunk","6S","furniture","2","","","1","3","50","3"
"2043","0","recognition","12:28:35","0","针线","2","recognition","0","","[]","230","99","setsizechunk","6S","furniture","2","","","1","3","50","2"
"1846","100","recognition","12:28:35","8","书架","8","recognition","1","","[]","231","99","setsizechunk","6S","furniture","2","","","1","3","50","0"
"1980","100","recognition","12:28:35","9","橡皮","19","recognition","1","","[]","232","99","setsizechunk","6S","furniture","2","","","1","3","50","0"
"2008","0","recognition","12:28:35","1","湿地","7","recognition","0","","[]","233","99","setsizechunk","6S","furniture","2","","","1","3","50","2"
"4122","0","recognition","12:28:35","2","淡雅","10","recognition","0","","[]","234","99","setsizechunk","6S","furniture","2","","","1","3","50","2"
"2293","100","recognition","12:28:35","9","沉稳","14","recognition","1","","[]","235","99","setsizechunk","6S","furniture","2","","","1","3","50","0"
"2314","0","recognition","12:28:35","1","丘陵","0","recognition","0","","[]","236","99","setsizechunk","6S","furniture","2","","","1","3","50","1"
"1993","0","recognition","12:28:35","2","沉稳","11","recognition","0","","[]","237","99","setsizechunk","6S","furniture","2","","","1","3","50","2"
"2279","100","recognition","12:28:35","8","书签","13","recognition","1","","[]","238","99","setsizechunk","6S","furniture","2","","","1","3","50","0"
"1873","100","recognition","12:28:35","1","插头","16","recognition","1","","[]","239","99","setsizechunk","6S","furniture","2","","","1","3","50","0"
