"rt","response","stage","start_time","s","word","word_id","phase","a_cor","a_real","a_ava","trial","tps","task_type","block_typ","pic_typ","block_id","cum_r","a","r","n_Prac","slider_start","pair_type"
"null","null","learn","10:35:01","1","1","1","learn","0","0","[0, 1, 2]","0","0","setsize","99","prac","0","0","999","0","4","",""
"2491","null","learn","10:35:01","2","2","2","learn","2","2","[0, 1, 2]","1","0","setsize","99","prac","0","0","1","0","4","",""
"1173","null","learn","10:35:01","0","0","0","learn","0","0","[0, 1, 2]","2","0","setsize","99","prac","0","0","2","0","4","",""
"1175","null","learn","10:35:01","1","1","1","learn","0","0","[0, 1, 2]","3","1","setsize","99","prac","0","0","1","0","4","",""
"982","null","learn","10:35:01","0","0","0","learn","0","0","[0, 1, 2]","4","1","setsize","99","prac","0","0","1","0","4","",""
"1209","null","learn","10:35:01","2","2","2","learn","2","2","[0, 1, 2]","5","1","setsize","99","prac","0","0","1","0","4","",""
"949","null","learn","10:35:01","1","1","1","learn","0","0","[0, 1, 2]","0","0","setsize","99","prac","0","0","1","0","4","",""
"1272","null","learn","10:35:01","2","2","2","learn","2","2","[0, 1, 2]","1","0","setsize","99","prac","0","0","1","0","4","",""
"876","null","learn","10:35:01","0","0","0","learn","0","0","[0, 1, 2]","2","0","setsize","99","prac","0","0","1","0","4","",""
"1101","null","learn","10:35:01","1","1","1","learn","0","0","[0, 1, 2]","3","1","setsize","99","prac","0","1","0","1","4","",""
"1361","null","learn","10:35:01","0","0","0","learn","0","0","[0, 1, 2]","4","1","setsize","99","prac","0","0","2","0","4","",""
"1408","null","learn","10:35:01","2","2","2","learn","2","2","[0, 1, 2]","5","1","setsize","99","prac","0","1","2","1","4","",""
"1173","null","learn","10:35:01","1","1","1","learn","0","0","[0, 1, 2]","0","0","setsize","99","prac","0","0","1","0","4","",""
"1345","null","learn","10:35:01","2","2","2","learn","2","2","[0, 1, 2]","1","0","setsize","99","prac","0","1","2","1","4","",""
"1607","null","learn","10:35:01","0","0","0","learn","0","0","[0, 1, 2]","2","0","setsize","99","prac","0","0","1","0","4","",""
"1153","null","learn","10:35:01","1","1","1","learn","0","0","[0, 1, 2]","3","1","setsize","99","prac","0","1","0","1","4","",""
"1132","null","learn","10:35:01","0","0","0","learn","0","0","[0, 1, 2]","4","1","setsize","99","prac","0","0","1","0","4","",""
"1649","null","learn","10:35:01","2","2","2","learn","2","2","[0, 1, 2]","5","1","setsize","99","prac","0","1","2","1","4","",""
"1256","null","learn","10:35:01","1","1","1","learn","0","0","[0, 1, 2]","0","0","setsize","99","prac","0","2","0","1","4","",""
"673","null","learn","10:35:01","2","2","2","learn","2","2","[0, 1, 2]","1","0","setsize","99","prac","0","3","2","1","4","",""
"1185","null","learn","10:35:01","0","0","0","learn","0","0","[0, 1, 2]","2","0","setsize","99","prac","0","0","2","0","4","",""
"1100","null","learn","10:35:01","1","1","1","learn","0","0","[0, 1, 2]","3","1","setsize","99","prac","0","1","0","1","4","",""
"556","null","learn","10:35:01","0","0","0","learn","0","0","[0, 1, 2]","4","1","setsize","99","prac","0","2","0","1","4","",""
"702","null","learn","10:35:01","2","2","2","learn","2","2","[0, 1, 2]","5","1","setsize","99","prac","0","3","2","1","4","",""
"834","null","learn","10:35:01","2","2","2","learn","2","2","[0, 1, 2]","0","0","setsizechunk","3S","furniture","1","0","0","0","4","",""
"1241","null","learn","10:35:01","0","0","0","learn","0","0","[0, 1, 2]","1","0","setsizechunk","3S","furniture","1","1","0","1","4","",""
"1173","null","learn","10:35:01","1","1","1","learn","0","0","[0, 1, 2]","2","0","setsizechunk","3S","furniture","1","0","1","0","4","",""
"null","null","learn","10:35:01","0","0","0","learn","0","0","[0, 1, 2]","3","1","setsizechunk","3S","furniture","1","0","999","0","4","",""
"1893","null","learn","10:35:01","1","1","1","learn","0","0","[0, 1, 2]","4","1","setsizechunk","3S","furniture","1","0","1","0","4","",""
"1036","null","learn","10:35:01","2","2","2","learn","2","2","[0, 1, 2]","5","1","setsizechunk","3S","furniture","1","0","0","0","4","",""
"1852","null","learn","10:35:01","2","2","2","learn","2","2","[0, 1, 2]","6","2","setsizechunk","3S","furniture","1","1","2","1","4","",""
"970","null","learn","10:35:01","1","1","1","learn","0","0","[0, 1, 2]","7","2","setsizechunk","3S","furniture","1","0","1","0","4","",""
"690","null","learn","10:35:01","0","0","0","learn","0","0","[0, 1, 2]","8","2","setsizechunk","3S","furniture","1","1","0","1","4","",""
"873","null","learn","10:35:01","2","2","2","learn","2","2","[0, 1, 2]","9","3","setsizechunk","3S","furniture","1","2","2","1","4","",""
"2194","null","learn","10:35:01","1","1","1","learn","0","0","[0, 1, 2]","10","3","setsizechunk","3S","furniture","1","3","0","1","4","",""
"581","null","learn","10:35:01","0","0","0","learn","0","0","[0, 1, 2]","11","3","setsizechunk","3S","furniture","1","4","0","1","4","",""
"750","null","learn","10:35:01","1","1","1","learn","0","0","[0, 1, 2]","12","4","setsizechunk","3S","furniture","1","5","0","1","4","",""
"1675","null","learn","10:35:01","0","0","0","learn","0","0","[0, 1, 2]","13","4","setsizechunk","3S","furniture","1","6","0","1","4","",""
"662","null","learn","10:35:01","2","2","2","learn","2","2","[0, 1, 2]","14","4","setsizechunk","3S","furniture","1","7","2","1","4","",""
"546","null","learn","10:35:01","0","0","0","learn","0","0","[0, 1, 2]","15","5","setsizechunk","3S","furniture","1","8","0","1","4","",""
"767","null","learn","10:35:01","1","1","1","learn","0","0","[0, 1, 2]","16","5","setsizechunk","3S","furniture","1","0","2","0","4","",""
"520","null","learn","10:35:01","2","2","2","learn","2","2","[0, 1, 2]","17","5","setsizechunk","3S","furniture","1","0","0","0","4","",""
"845","null","learn","10:35:01","0","0","0","learn","0","0","[0, 1, 2]","18","6","setsizechunk","3S","furniture","1","1","0","1","4","",""
"1392","null","learn","10:35:01","2","2","2","learn","2","2","[0, 1, 2]","19","6","setsizechunk","3S","furniture","1","2","2","1","4","",""
"604","null","learn","10:35:01","1","1","1","learn","0","0","[0, 1, 2]","20","6","setsizechunk","3S","furniture","1","3","0","1","4","",""
"1421","null","learn","10:35:01","2","2","2","learn","2","2","[0, 1, 2]","21","7","setsizechunk","3S","furniture","1","4","2","1","4","",""
"609","null","learn","10:35:01","0","0","0","learn","0","0","[0, 1, 2]","22","7","setsizechunk","3S","furniture","1","5","0","1","4","",""
"1962","null","learn","10:35:01","1","1","1","learn","0","0","[0, 1, 2]","23","7","setsizechunk","3S","furniture","1","6","0","1","4","",""
"673","null","learn","10:35:01","0","0","0","learn","0","0","[0, 1, 2]","24","8","setsizechunk","3S","furniture","1","7","0","1","4","",""
"952","null","learn","10:35:01","2","2","2","learn","2","2","[0, 1, 2]","25","8","setsizechunk","3S","furniture","1","8","2","1","4","",""
"null","null","learn","10:35:01","1","1","1","learn","0","0","[0, 1, 2]","26","8","setsizechunk","3S","furniture","1","0","999","0","4","",""
"1240","null","learn","10:35:01","2","2","2","learn","2","2","[0, 1, 2]","27","9","setsizechunk","3S","furniture","1","1","2","1","4","",""
"629","null","learn","10:35:01","1","1","1","learn","0","0","[0, 1, 2]","28","9","setsizechunk","3S","furniture","1","2","0","1","4","",""
"477","null","learn","10:35:01","0","0","0","learn","0","0","[0, 1, 2]","29","9","setsizechunk","3S","furniture","1","3","0","1","4","",""
"1059","null","learn","10:35:01","1","1","1","learn","0","0","[0, 1, 2]","30","10","setsizechunk","3S","furniture","1","4","0","1","4","",""
"938","null","learn","10:35:01","0","0","0","learn","0","0","[0, 1, 2]","31","10","setsizechunk","3S","furniture","1","5","0","1","4","",""
"684","null","learn","10:35:01","2","2","2","learn","2","2","[0, 1, 2]","32","10","setsizechunk","3S","furniture","1","6","2","1","4","",""
"599","null","learn","10:35:01","1","1","1","learn","0","0","[0, 1, 2]","33","11","setsizechunk","3S","furniture","1","7","0","1","4","",""
"501","null","learn","10:35:01","0","0","0","learn","0","0","[0, 1, 2]","34","11","setsizechunk","3S","furniture","1","8","0","1","4","",""
"796","null","learn","10:35:01","2","2","2","learn","2","2","[0, 1, 2]","35","11","setsizechunk","3S","furniture","1","9","2","1","4","",""
"732","null","learn","10:35:01","1","1","1","learn","0","0","[0, 1, 2]","36","12","setsizechunk","3S","furniture","1","10","0","1","4","",""
"549","null","learn","10:35:01","0","0","0","learn","0","0","[0, 1, 2]","37","12","setsizechunk","3S","furniture","1","11","0","1","4","",""
"1048","null","learn","10:35:01","2","2","2","learn","2","2","[0, 1, 2]","38","12","setsizechunk","3S","furniture","1","12","2","1","4","",""
"504","null","learn","10:35:01","0","0","0","learn","0","0","[0, 1, 2]","39","13","setsizechunk","3S","furniture","1","13","0","1","4","",""
"527","null","learn","10:35:01","2","2","2","learn","2","2","[0, 1, 2]","40","13","setsizechunk","3S","furniture","1","0","0","0","4","",""
"1978","null","learn","10:35:01","1","1","1","learn","0","0","[0, 1, 2]","41","13","setsizechunk","3S","furniture","1","1","0","1","4","",""
"559","null","learn","10:35:01","2","2","2","learn","2","2","[0, 1, 2]","42","14","setsizechunk","3S","furniture","1","2","2","1","4","",""
"480","null","learn","10:35:01","0","0","0","learn","0","0","[0, 1, 2]","43","14","setsizechunk","3S","furniture","1","3","0","1","4","",""
"692","null","learn","10:35:01","1","1","1","learn","0","0","[0, 1, 2]","44","14","setsizechunk","3S","furniture","1","4","0","1","4","",""
"639","null","learn","10:35:01","0","0","0","learn","0","0","[0, 1, 2]","45","15","setsizechunk","3S","furniture","1","5","0","1","4","",""
"99","null","memory","10:35:01","8","雨伞","13","memory","99","","[]","90","0","setsizechunk","3S","furniture","1","","99","99","4","",""
"99","null","memory","10:35:01","8","书本","3","memory","99","","[]","91","0","setsizechunk","3S","furniture","1","","99","99","4","",""
"99","null","memory","10:35:01","9","玻璃","14","memory","99","","[]","92","0","setsizechunk","3S","furniture","1","","99","99","4","",""
"99","null","memory","10:35:01","2","深邃","7","memory","99","","[]","93","0","setsizechunk","3S","furniture","1","","99","99","4","",""
"99","null","memory","10:35:01","9","峡谷","9","memory","99","","[]","94","0","setsizechunk","3S","furniture","1","","99","99","4","",""
"99","null","memory","10:35:01","2","柔和","2","memory","99","","[]","95","0","setsizechunk","3S","furniture","1","","99","99","4","",""
"99","null","memory","10:35:01","0","沙漠","5","memory","99","","[]","96","0","setsizechunk","3S","furniture","1","","99","99","4","",""
"99","null","memory","10:35:01","0","明亮","15","memory","99","","[]","97","0","setsizechunk","3S","furniture","1","","99","99","4","",""
"99","null","memory","10:35:01","0","电池","10","memory","99","","[]","98","0","setsizechunk","3S","furniture","1","","99","99","4","",""
"99","null","memory","10:35:01","1","窗帘","11","memory","99","","[]","99","0","setsizechunk","3S","furniture","1","","99","99","4","",""
"99","null","memory","10:35:01","9","纸巾","19","memory","99","","[]","100","0","setsizechunk","3S","furniture","1","","99","99","4","",""
"99","null","memory","10:35:01","0","笔墨","0","memory","99","","[]","101","0","setsizechunk","3S","furniture","1","","99","99","4","",""
"99","null","memory","10:35:01","1","山峰","6","memory","99","","[]","102","0","setsizechunk","3S","furniture","1","","99","99","4","",""
"99","null","memory","10:35:01","1","纸张","1","memory","99","","[]","103","0","setsizechunk","3S","furniture","1","","99","99","4","",""
"99","null","memory","10:35:01","8","钥匙","18","memory","99","","[]","104","0","setsizechunk","3S","furniture","1","","99","99","4","",""
"99","null","memory","10:35:01","2","湖泊","17","memory","99","","[]","105","0","setsizechunk","3S","furniture","1","","99","99","4","",""
"99","null","memory","10:35:01","9","广阔","4","memory","99","","[]","106","0","setsizechunk","3S","furniture","1","","99","99","4","",""
"99","null","memory","10:35:01","2","灯泡","12","memory","99","","[]","107","0","setsizechunk","3S","furniture","1","","99","99","4","",""
"99","null","memory","10:35:01","8","清新","8","memory","99","","[]","108","0","setsizechunk","3S","furniture","1","","99","99","4","",""
"99","null","memory","10:35:01","1","钢笔","16","memory","99","","[]","109","0","setsizechunk","3S","furniture","1","","99","99","4","",""
"99","null","memory","10:35:01","2","柔和","2","memory","99","","[]","110","1","setsizechunk","3S","furniture","1","","99","99","4","",""
"99","null","memory","10:35:01","1","纸张","1","memory","99","","[]","111","1","setsizechunk","3S","furniture","1","","99","99","4","",""
"99","null","memory","10:35:01","0","笔墨","0","memory","99","","[]","112","1","setsizechunk","3S","furniture","1","","99","99","4","",""
"99","null","memory","10:35:01","8","书本","3","memory","99","","[]","113","1","setsizechunk","3S","furniture","1","","99","99","4","",""
"99","null","memory","10:35:01","0","沙漠","5","memory","99","","[]","114","1","setsizechunk","3S","furniture","1","","99","99","4","",""
"99","null","memory","10:35:01","9","纸巾","19","memory","99","","[]","115","1","setsizechunk","3S","furniture","1","","99","99","4","",""
"99","null","memory","10:35:01","2","灯泡","12","memory","99","","[]","116","1","setsizechunk","3S","furniture","1","","99","99","4","",""
"99","null","memory","10:35:01","9","广阔","4","memory","99","","[]","117","1","setsizechunk","3S","furniture","1","","99","99","4","",""
"99","null","memory","10:35:01","9","玻璃","14","memory","99","","[]","118","1","setsizechunk","3S","furniture","1","","99","99","4","",""
"99","null","memory","10:35:01","2","湖泊","17","memory","99","","[]","119","1","setsizechunk","3S","furniture","1","","99","99","4","",""
"99","null","memory","10:35:01","9","峡谷","9","memory","99","","[]","120","1","setsizechunk","3S","furniture","1","","99","99","4","",""
"99","null","memory","10:35:01","1","山峰","6","memory","99","","[]","121","1","setsizechunk","3S","furniture","1","","99","99","4","",""
"99","null","memory","10:35:01","8","清新","8","memory","99","","[]","122","1","setsizechunk","3S","furniture","1","","99","99","4","",""
"99","null","memory","10:35:01","2","深邃","7","memory","99","","[]","123","1","setsizechunk","3S","furniture","1","","99","99","4","",""
"99","null","memory","10:35:01","8","钥匙","18","memory","99","","[]","124","1","setsizechunk","3S","furniture","1","","99","99","4","",""
"99","null","memory","10:35:01","0","电池","10","memory","99","","[]","125","1","setsizechunk","3S","furniture","1","","99","99","4","",""
"99","null","memory","10:35:01","0","明亮","15","memory","99","","[]","126","1","setsizechunk","3S","furniture","1","","99","99","4","",""
"99","null","memory","10:35:01","1","钢笔","16","memory","99","","[]","127","1","setsizechunk","3S","furniture","1","","99","99","4","",""
"99","null","memory","10:35:01","8","雨伞","13","memory","99","","[]","128","1","setsizechunk","3S","furniture","1","","99","99","4","",""
"99","null","memory","10:35:01","1","窗帘","11","memory","99","","[]","129","1","setsizechunk","3S","furniture","1","","99","99","4","",""
"13980","50","recognition","10:35:01","2","窗帘","11","recognition","0","","[]","130","99","setsizechunk","3S","furniture","1","","","0","4","50","2"
"2317","77","recognition","10:35:01","9","纸巾","19","recognition","1","","[]","131","99","setsizechunk","3S","furniture","1","","","1","4","50","0"
"3381","74","recognition","10:35:01","0","柔和","2","recognition","0","","[]","132","99","setsizechunk","3S","furniture","1","","","0","4","50","2"
"4043","100","recognition","10:35:01","8","清新","8","recognition","1","","[]","133","99","setsizechunk","3S","furniture","1","","","1","4","50","0"
"8762","53","recognition","10:35:01","1","沙漠","5","recognition","0","","[]","134","99","setsizechunk","3S","furniture","1","","","0","4","50","1"
"2173","86","recognition","10:35:01","8","雨伞","13","recognition","1","","[]","135","99","setsizechunk","3S","furniture","1","","","1","4","50","0"
"4183","100","recognition","10:35:01","9","峡谷","9","recognition","1","","[]","136","99","setsizechunk","3S","furniture","1","","","1","4","50","0"
"4539","43","recognition","10:35:01","8","钥匙","18","recognition","1","","[]","137","99","setsizechunk","3S","furniture","1","","","0","4","50","0"
"3966","71","recognition","10:35:01","8","灯泡","12","recognition","0","","[]","138","99","setsizechunk","3S","furniture","1","","","0","4","50","3"
"3642","40","recognition","10:35:01","0","山峰","6","recognition","0","","[]","139","99","setsizechunk","3S","furniture","1","","","1","4","50","1"
"2103","85","recognition","10:35:01","0","明亮","15","recognition","1","","[]","140","99","setsizechunk","3S","furniture","1","","","1","4","50","0"
"7846","81","recognition","10:35:01","2","湖泊","17","recognition","1","","[]","141","99","setsizechunk","3S","furniture","1","","","1","4","50","0"
"3605","61","recognition","10:35:01","0","纸张","1","recognition","0","","[]","142","99","setsizechunk","3S","furniture","1","","","0","4","50","1"
"12998","28","recognition","10:35:01","2","书本","3","recognition","0","","[]","143","99","setsizechunk","3S","furniture","1","","","1","4","50","3"
"3512","37","recognition","10:35:01","9","广阔","4","recognition","1","","[]","144","99","setsizechunk","3S","furniture","1","","","0","4","50","0"
"3600","94","recognition","10:35:01","9","玻璃","14","recognition","1","","[]","145","99","setsizechunk","3S","furniture","1","","","1","4","50","0"
"3241","33","recognition","10:35:01","2","电池","10","recognition","0","","[]","146","99","setsizechunk","3S","furniture","1","","","1","4","50","2"
"2185","76","recognition","10:35:01","1","钢笔","16","recognition","1","","[]","147","99","setsizechunk","3S","furniture","1","","","1","4","50","0"
"3322","32","recognition","10:35:01","1","笔墨","0","recognition","0","","[]","148","99","setsizechunk","3S","furniture","1","","","1","4","50","1"
"3267","100","recognition","10:35:01","1","深邃","7","recognition","0","","[]","149","99","setsizechunk","3S","furniture","1","","","0","4","50","2"
"1403","null","learn","10:35:01","0","0","0","learn","0","0","[0, 1, 2]","0","0","setsizechunk","6S","sports","2","6","0","1","4","",""
"1406","null","learn","10:35:01","5","5","5","learn","2","2","[0, 1, 2]","1","0","setsizechunk","6S","sports","2","7","2","1","4","",""
"742","null","learn","10:35:01","3","3","3","learn","1","1","[0, 1, 2]","2","0","setsizechunk","6S","sports","2","0","0","0","4","",""
"941","null","learn","10:35:01","1","1","1","learn","0","0","[0, 1, 2]","3","0","setsizechunk","6S","sports","2","0","1","0","4","",""
"1052","null","learn","10:35:01","2","2","2","learn","1","1","[0, 1, 2]","4","0","setsizechunk","6S","sports","2","0","0","0","4","",""
"992","null","learn","10:35:01","4","4","4","learn","2","2","[0, 1, 2]","5","0","setsizechunk","6S","sports","2","0","0","0","4","",""
"924","null","learn","10:35:01","2","2","2","learn","1","1","[0, 1, 2]","6","1","setsizechunk","6S","sports","2","1","1","1","4","",""
"667","null","learn","10:35:01","0","0","0","learn","0","0","[0, 1, 2]","7","1","setsizechunk","6S","sports","2","2","0","1","4","",""
"909","null","learn","10:35:01","1","1","1","learn","0","0","[0, 1, 2]","8","1","setsizechunk","6S","sports","2","0","2","0","4","",""
"1531","null","learn","10:35:01","4","4","4","learn","2","2","[0, 1, 2]","9","1","setsizechunk","6S","sports","2","1","2","1","4","",""
"1556","null","learn","10:35:01","5","5","5","learn","2","2","[0, 1, 2]","10","1","setsizechunk","6S","sports","2","2","2","1","4","",""
"1539","null","learn","10:35:01","3","3","3","learn","1","1","[0, 1, 2]","11","1","setsizechunk","6S","sports","2","3","1","1","4","",""
"1345","null","learn","10:35:01","2","2","2","learn","1","1","[0, 1, 2]","12","2","setsizechunk","6S","sports","2","0","0","0","4","",""
"981","null","learn","10:35:01","4","4","4","learn","2","2","[0, 1, 2]","13","2","setsizechunk","6S","sports","2","1","2","1","4","",""
"1371","null","learn","10:35:01","1","1","1","learn","0","0","[0, 1, 2]","14","2","setsizechunk","6S","sports","2","0","1","0","4","",""
"1101","null","learn","10:35:01","0","0","0","learn","0","0","[0, 1, 2]","15","2","setsizechunk","6S","sports","2","1","0","1","4","",""
"774","null","learn","10:35:01","3","3","3","learn","1","1","[0, 1, 2]","16","2","setsizechunk","6S","sports","2","0","2","0","4","",""
"734","null","learn","10:35:01","5","5","5","learn","2","2","[0, 1, 2]","17","2","setsizechunk","6S","sports","2","1","2","1","4","",""
"443","null","learn","10:35:01","3","3","3","learn","1","1","[0, 1, 2]","18","3","setsizechunk","6S","sports","2","2","1","1","4","",""
"1119","null","learn","10:35:01","2","2","2","learn","1","1","[0, 1, 2]","19","3","setsizechunk","6S","sports","2","3","1","1","4","",""
"1109","null","learn","10:35:01","1","1","1","learn","0","0","[0, 1, 2]","20","3","setsizechunk","6S","sports","2","0","2","0","4","",""
"787","null","learn","10:35:01","4","4","4","learn","2","2","[0, 1, 2]","21","3","setsizechunk","6S","sports","2","1","2","1","4","",""
"1008","null","learn","10:35:01","0","0","0","learn","0","0","[0, 1, 2]","22","3","setsizechunk","6S","sports","2","2","0","1","4","",""
"507","null","learn","10:35:01","5","5","5","learn","2","2","[0, 1, 2]","23","3","setsizechunk","6S","sports","2","3","2","1","4","",""
"755","null","learn","10:35:01","4","4","4","learn","2","2","[0, 1, 2]","24","4","setsizechunk","6S","sports","2","4","2","1","4","",""
"725","null","learn","10:35:01","2","2","2","learn","1","1","[0, 1, 2]","25","4","setsizechunk","6S","sports","2","5","1","1","4","",""
"1248","null","learn","10:35:01","1","1","1","learn","0","0","[0, 1, 2]","26","4","setsizechunk","6S","sports","2","6","0","1","4","",""
"1095","null","learn","10:35:01","3","3","3","learn","1","1","[0, 1, 2]","27","4","setsizechunk","6S","sports","2","0","0","0","4","",""
"610","null","learn","10:35:01","5","5","5","learn","2","2","[0, 1, 2]","28","4","setsizechunk","6S","sports","2","1","2","1","4","",""
"656","null","learn","10:35:01","0","0","0","learn","0","0","[0, 1, 2]","29","4","setsizechunk","6S","sports","2","2","0","1","4","",""
"535","null","learn","10:35:01","5","5","5","learn","2","2","[0, 1, 2]","30","5","setsizechunk","6S","sports","2","3","2","1","4","",""
"1247","null","learn","10:35:01","3","3","3","learn","1","1","[0, 1, 2]","31","5","setsizechunk","6S","sports","2","4","1","1","4","",""
"1003","null","learn","10:35:01","2","2","2","learn","1","1","[0, 1, 2]","32","5","setsizechunk","6S","sports","2","5","1","1","4","",""
"1313","null","learn","10:35:01","1","1","1","learn","0","0","[0, 1, 2]","33","5","setsizechunk","6S","sports","2","6","0","1","4","",""
"734","null","learn","10:35:01","4","4","4","learn","2","2","[0, 1, 2]","34","5","setsizechunk","6S","sports","2","7","2","1","4","",""
"539","null","learn","10:35:01","0","0","0","learn","0","0","[0, 1, 2]","35","5","setsizechunk","6S","sports","2","8","0","1","4","",""
"1843","null","learn","10:35:01","3","3","3","learn","1","1","[0, 1, 2]","36","6","setsizechunk","6S","sports","2","0","0","0","4","",""
"765","null","learn","10:35:01","0","0","0","learn","0","0","[0, 1, 2]","37","6","setsizechunk","6S","sports","2","1","0","1","4","",""
"753","null","learn","10:35:01","4","4","4","learn","2","2","[0, 1, 2]","38","6","setsizechunk","6S","sports","2","2","2","1","4","",""
"755","null","learn","10:35:01","5","5","5","learn","2","2","[0, 1, 2]","39","6","setsizechunk","6S","sports","2","3","2","1","4","",""
"737","null","learn","10:35:01","2","2","2","learn","1","1","[0, 1, 2]","40","6","setsizechunk","6S","sports","2","4","1","1","4","",""
"897","null","learn","10:35:01","1","1","1","learn","0","0","[0, 1, 2]","41","6","setsizechunk","6S","sports","2","5","0","1","4","",""
"770","null","learn","10:35:01","4","4","4","learn","2","2","[0, 1, 2]","42","7","setsizechunk","6S","sports","2","6","2","1","4","",""
"859","null","learn","10:35:01","1","1","1","learn","0","0","[0, 1, 2]","43","7","setsizechunk","6S","sports","2","7","0","1","4","",""
"909","null","learn","10:35:01","5","5","5","learn","2","2","[0, 1, 2]","44","7","setsizechunk","6S","sports","2","8","2","1","4","",""
"556","null","learn","10:35:01","0","0","0","learn","0","0","[0, 1, 2]","45","7","setsizechunk","6S","sports","2","9","0","1","4","",""
"630","null","learn","10:35:01","3","3","3","learn","1","1","[0, 1, 2]","46","7","setsizechunk","6S","sports","2","10","1","1","4","",""
"611","null","learn","10:35:01","2","2","2","learn","1","1","[0, 1, 2]","47","7","setsizechunk","6S","sports","2","11","1","1","4","",""
"648","null","learn","10:35:01","1","1","1","learn","0","0","[0, 1, 2]","48","8","setsizechunk","6S","sports","2","12","0","1","4","",""
"657","null","learn","10:35:01","2","2","2","learn","1","1","[0, 1, 2]","49","8","setsizechunk","6S","sports","2","13","1","1","4","",""
"587","null","learn","10:35:01","5","5","5","learn","2","2","[0, 1, 2]","50","8","setsizechunk","6S","sports","2","14","2","1","4","",""
"897","null","learn","10:35:01","4","4","4","learn","2","2","[0, 1, 2]","51","8","setsizechunk","6S","sports","2","15","2","1","4","",""
"547","null","learn","10:35:01","0","0","0","learn","0","0","[0, 1, 2]","52","8","setsizechunk","6S","sports","2","16","0","1","4","",""
"862","null","learn","10:35:01","3","3","3","learn","1","1","[0, 1, 2]","53","8","setsizechunk","6S","sports","2","17","1","1","4","",""
"701","null","learn","10:35:01","2","2","2","learn","1","1","[0, 1, 2]","54","9","setsizechunk","6S","sports","2","18","1","1","4","",""
"769","null","learn","10:35:01","5","5","5","learn","2","2","[0, 1, 2]","55","9","setsizechunk","6S","sports","2","19","2","1","4","",""
"557","null","learn","10:35:01","1","1","1","learn","0","0","[0, 1, 2]","56","9","setsizechunk","6S","sports","2","20","0","1","4","",""
"715","null","learn","10:35:01","4","4","4","learn","2","2","[0, 1, 2]","57","9","setsizechunk","6S","sports","2","21","2","1","4","",""
"617","null","learn","10:35:01","3","3","3","learn","1","1","[0, 1, 2]","58","9","setsizechunk","6S","sports","2","22","1","1","4","",""
"493","null","learn","10:35:01","0","0","0","learn","0","0","[0, 1, 2]","59","9","setsizechunk","6S","sports","2","23","0","1","4","",""
"630","null","learn","10:35:01","0","0","0","learn","0","0","[0, 1, 2]","60","10","setsizechunk","6S","sports","2","24","0","1","4","",""
"616","null","learn","10:35:01","3","3","3","learn","1","1","[0, 1, 2]","61","10","setsizechunk","6S","sports","2","25","1","1","4","",""
"809","null","learn","10:35:01","1","1","1","learn","0","0","[0, 1, 2]","62","10","setsizechunk","6S","sports","2","0","2","0","4","",""
"643","null","learn","10:35:01","4","4","4","learn","2","2","[0, 1, 2]","63","10","setsizechunk","6S","sports","2","1","2","1","4","",""
"658","null","learn","10:35:01","2","2","2","learn","1","1","[0, 1, 2]","64","10","setsizechunk","6S","sports","2","2","1","1","4","",""
"845","null","learn","10:35:01","5","5","5","learn","2","2","[0, 1, 2]","65","10","setsizechunk","6S","sports","2","3","2","1","4","",""
"664","null","learn","10:35:01","1","1","1","learn","0","0","[0, 1, 2]","66","11","setsizechunk","6S","sports","2","4","0","1","4","",""
"591","null","learn","10:35:01","0","0","0","learn","0","0","[0, 1, 2]","67","11","setsizechunk","6S","sports","2","5","0","1","4","",""
"1309","null","learn","10:35:01","3","3","3","learn","1","1","[0, 1, 2]","68","11","setsizechunk","6S","sports","2","6","1","1","4","",""
"727","null","learn","10:35:01","5","5","5","learn","2","2","[0, 1, 2]","69","11","setsizechunk","6S","sports","2","7","2","1","4","",""
"610","null","learn","10:35:01","2","2","2","learn","1","1","[0, 1, 2]","70","11","setsizechunk","6S","sports","2","8","1","1","4","",""
"679","null","learn","10:35:01","4","4","4","learn","2","2","[0, 1, 2]","71","11","setsizechunk","6S","sports","2","9","2","1","4","",""
"567","null","learn","10:35:01","0","0","0","learn","0","0","[0, 1, 2]","72","12","setsizechunk","6S","sports","2","10","0","1","4","",""
"1357","null","learn","10:35:01","3","3","3","learn","1","1","[0, 1, 2]","73","12","setsizechunk","6S","sports","2","11","1","1","4","",""
"1534","null","learn","10:35:01","4","4","4","learn","2","2","[0, 1, 2]","74","12","setsizechunk","6S","sports","2","0","0","0","4","",""
"675","null","learn","10:35:01","2","2","2","learn","1","1","[0, 1, 2]","75","12","setsizechunk","6S","sports","2","1","1","1","4","",""
"582","null","learn","10:35:01","5","5","5","learn","2","2","[0, 1, 2]","76","12","setsizechunk","6S","sports","2","2","2","1","4","",""
"1721","null","learn","10:35:01","1","1","1","learn","0","0","[0, 1, 2]","77","12","setsizechunk","6S","sports","2","3","0","1","4","",""
"589","null","learn","10:35:01","0","0","0","learn","0","0","[0, 1, 2]","78","13","setsizechunk","6S","sports","2","4","0","1","4","",""
"845","null","learn","10:35:01","3","3","3","learn","1","1","[0, 1, 2]","79","13","setsizechunk","6S","sports","2","5","1","1","4","",""
"522","null","learn","10:35:01","5","5","5","learn","2","2","[0, 1, 2]","80","13","setsizechunk","6S","sports","2","6","2","1","4","",""
"712","null","learn","10:35:01","4","4","4","learn","2","2","[0, 1, 2]","81","13","setsizechunk","6S","sports","2","7","2","1","4","",""
"549","null","learn","10:35:01","2","2","2","learn","1","1","[0, 1, 2]","82","13","setsizechunk","6S","sports","2","8","1","1","4","",""
"649","null","learn","10:35:01","1","1","1","learn","0","0","[0, 1, 2]","83","13","setsizechunk","6S","sports","2","9","0","1","4","",""
"568","null","learn","10:35:01","2","2","2","learn","1","1","[0, 1, 2]","84","14","setsizechunk","6S","sports","2","10","1","1","4","",""
"995","null","learn","10:35:01","1","1","1","learn","0","0","[0, 1, 2]","85","14","setsizechunk","6S","sports","2","11","0","1","4","",""
"655","null","learn","10:35:01","4","4","4","learn","2","2","[0, 1, 2]","86","14","setsizechunk","6S","sports","2","12","2","1","4","",""
"537","null","learn","10:35:01","0","0","0","learn","0","0","[0, 1, 2]","87","14","setsizechunk","6S","sports","2","13","0","1","4","",""
"557","null","learn","10:35:01","3","3","3","learn","1","1","[0, 1, 2]","88","14","setsizechunk","6S","sports","2","14","1","1","4","",""
"568","null","learn","10:35:01","5","5","5","learn","2","2","[0, 1, 2]","89","14","setsizechunk","6S","sports","2","15","2","1","4","",""
"583","null","learn","10:35:01","3","3","3","learn","1","1","[0, 1, 2]","90","15","setsizechunk","6S","sports","2","16","1","1","4","",""
"99","null","memory","10:35:01","2","瀑布","2","memory","99","","[]","180","0","setsizechunk","6S","sports","2","","99","99","4","",""
"99","null","memory","10:35:01","2","纸盒","12","memory","99","","[]","181","0","setsizechunk","6S","sports","2","","99","99","4","",""
"99","null","memory","10:35:01","9","镜子","14","memory","99","","[]","182","0","setsizechunk","6S","sports","2","","99","99","4","",""
"99","null","memory","10:35:01","8","纸袋","3","memory","99","","[]","183","0","setsizechunk","6S","sports","2","","99","99","4","",""
"99","null","memory","10:35:01","8","粉笔","18","memory","99","","[]","184","0","setsizechunk","6S","sports","2","","99","99","4","",""
"99","null","memory","10:35:01","0","湿地","5","memory","99","","[]","185","0","setsizechunk","6S","sports","2","","99","99","4","",""
"99","null","memory","10:35:01","0","岩石","0","memory","99","","[]","186","0","setsizechunk","6S","sports","2","","99","99","4","",""
"99","null","memory","10:35:01","1","书签","1","memory","99","","[]","187","0","setsizechunk","6S","sports","2","","99","99","4","",""
"99","null","memory","10:35:01","2","丘陵","17","memory","99","","[]","188","0","setsizechunk","6S","sports","2","","99","99","4","",""
"99","null","memory","10:35:01","9","插头","19","memory","99","","[]","189","0","setsizechunk","6S","sports","2","","99","99","4","",""
"99","null","memory","10:35:01","8","橡皮","8","memory","99","","[]","190","0","setsizechunk","6S","sports","2","","99","99","4","",""
"99","null","memory","10:35:01","1","书包","16","memory","99","","[]","191","0","setsizechunk","6S","sports","2","","99","99","4","",""
"99","null","memory","10:35:01","0","书架","10","memory","99","","[]","192","0","setsizechunk","6S","sports","2","","99","99","4","",""
"99","null","memory","10:35:01","8","沉稳","13","memory","99","","[]","193","0","setsizechunk","6S","sports","2","","99","99","4","",""
"99","null","memory","10:35:01","1","雪山","6","memory","99","","[]","194","0","setsizechunk","6S","sports","2","","99","99","4","",""
"99","null","memory","10:35:01","2","线缆","7","memory","99","","[]","195","0","setsizechunk","6S","sports","2","","99","99","4","",""
"99","null","memory","10:35:01","9","针线","4","memory","99","","[]","196","0","setsizechunk","6S","sports","2","","99","99","4","",""
"99","null","memory","10:35:01","1","淡雅","11","memory","99","","[]","197","0","setsizechunk","6S","sports","2","","99","99","4","",""
"99","null","memory","10:35:01","0","纯净","15","memory","99","","[]","198","0","setsizechunk","6S","sports","2","","99","99","4","",""
"99","null","memory","10:35:01","9","沉稳","9","memory","99","","[]","199","0","setsizechunk","6S","sports","2","","99","99","4","",""
"99","null","memory","10:35:01","2","纸盒","12","memory","99","","[]","200","1","setsizechunk","6S","sports","2","","99","99","4","",""
"99","null","memory","10:35:01","9","针线","4","memory","99","","[]","201","1","setsizechunk","6S","sports","2","","99","99","4","",""
"99","null","memory","10:35:01","2","线缆","7","memory","99","","[]","202","1","setsizechunk","6S","sports","2","","99","99","4","",""
"99","null","memory","10:35:01","0","湿地","5","memory","99","","[]","203","1","setsizechunk","6S","sports","2","","99","99","4","",""
"99","null","memory","10:35:01","8","纸袋","3","memory","99","","[]","204","1","setsizechunk","6S","sports","2","","99","99","4","",""
"99","null","memory","10:35:01","1","书包","16","memory","99","","[]","205","1","setsizechunk","6S","sports","2","","99","99","4","",""
"99","null","memory","10:35:01","9","镜子","14","memory","99","","[]","206","1","setsizechunk","6S","sports","2","","99","99","4","",""
"99","null","memory","10:35:01","9","插头","19","memory","99","","[]","207","1","setsizechunk","6S","sports","2","","99","99","4","",""
"99","null","memory","10:35:01","2","瀑布","2","memory","99","","[]","208","1","setsizechunk","6S","sports","2","","99","99","4","",""
"99","null","memory","10:35:01","0","纯净","15","memory","99","","[]","209","1","setsizechunk","6S","sports","2","","99","99","4","",""
"99","null","memory","10:35:01","0","书架","10","memory","99","","[]","210","1","setsizechunk","6S","sports","2","","99","99","4","",""
"99","null","memory","10:35:01","8","粉笔","18","memory","99","","[]","211","1","setsizechunk","6S","sports","2","","99","99","4","",""
"99","null","memory","10:35:01","9","沉稳","9","memory","99","","[]","212","1","setsizechunk","6S","sports","2","","99","99","4","",""
"99","null","memory","10:35:01","1","雪山","6","memory","99","","[]","213","1","setsizechunk","6S","sports","2","","99","99","4","",""
"99","null","memory","10:35:01","2","丘陵","17","memory","99","","[]","214","1","setsizechunk","6S","sports","2","","99","99","4","",""
"99","null","memory","10:35:01","8","橡皮","8","memory","99","","[]","215","1","setsizechunk","6S","sports","2","","99","99","4","",""
"99","null","memory","10:35:01","0","岩石","0","memory","99","","[]","216","1","setsizechunk","6S","sports","2","","99","99","4","",""
"99","null","memory","10:35:01","1","书签","1","memory","99","","[]","217","1","setsizechunk","6S","sports","2","","99","99","4","",""
"99","null","memory","10:35:01","1","淡雅","11","memory","99","","[]","218","1","setsizechunk","6S","sports","2","","99","99","4","",""
"99","null","memory","10:35:01","8","沉稳","13","memory","99","","[]","219","1","setsizechunk","6S","sports","2","","99","99","4","",""
"17466","38","recognition","10:35:01","0","瀑布","2","recognition","0","","[]","220","99","setsizechunk","6S","sports","2","","","1","4","50","2"
"18494","0","recognition","10:35:01","2","淡雅","11","recognition","0","","[]","221","99","setsizechunk","6S","sports","2","","","1","4","50","2"
"5636","0","recognition","10:35:01","0","雪山","6","recognition","0","","[]","222","99","setsizechunk","6S","sports","2","","","1","4","50","1"
"18939","42","recognition","10:35:01","9","针线","4","recognition","1","","[]","223","99","setsizechunk","6S","sports","2","","","0","4","50","0"
"9042","0","recognition","10:35:01","8","纸盒","12","recognition","0","","[]","224","99","setsizechunk","6S","sports","2","","","1","4","50","3"
"3439","82","recognition","10:35:01","0","纯净","15","recognition","1","","[]","225","99","setsizechunk","6S","sports","2","","","1","4","50","0"
"7426","72","recognition","10:35:01","1","书包","16","recognition","1","","[]","226","99","setsizechunk","6S","sports","2","","","1","4","50","0"
"3619","100","recognition","10:35:01","9","插头","19","recognition","1","","[]","227","99","setsizechunk","6S","sports","2","","","1","4","50","0"
"2810","15","recognition","10:35:01","8","粉笔","18","recognition","1","","[]","228","99","setsizechunk","6S","sports","2","","","0","4","50","0"
"1988","100","recognition","10:35:01","9","沉稳","9","recognition","1","","[]","229","99","setsizechunk","6S","sports","2","","","1","4","50","0"
"1641","100","recognition","10:35:01","2","丘陵","17","recognition","1","","[]","230","99","setsizechunk","6S","sports","2","","","1","4","50","0"
"3116","0","recognition","10:35:01","8","沉稳","13","recognition","1","","[]","231","99","setsizechunk","6S","sports","2","","","0","4","50","0"
"2999","3","recognition","10:35:01","1","湿地","5","recognition","0","","[]","232","99","setsizechunk","6S","sports","2","","","1","4","50","1"
"13058","90","recognition","10:35:01","9","镜子","14","recognition","1","","[]","233","99","setsizechunk","6S","sports","2","","","1","4","50","0"
"3310","21","recognition","10:35:01","2","书架","10","recognition","0","","[]","234","99","setsizechunk","6S","sports","2","","","1","4","50","2"
"2743","13","recognition","10:35:01","2","纸袋","3","recognition","0","","[]","235","99","setsizechunk","6S","sports","2","","","1","4","50","3"
"4328","55","recognition","10:35:01","0","书签","1","recognition","0","","[]","236","99","setsizechunk","6S","sports","2","","","0","4","50","1"
"4498","0","recognition","10:35:01","1","岩石","0","recognition","0","","[]","237","99","setsizechunk","6S","sports","2","","","1","4","50","1"
"2834","34","recognition","10:35:01","1","线缆","7","recognition","0","","[]","238","99","setsizechunk","6S","sports","2","","","1","4","50","2"
"6368","56","recognition","10:35:01","8","橡皮","8","recognition","1","","[]","239","99","setsizechunk","6S","sports","2","","","1","4","50","0"
