"rt","response","stage","start_time","s","word","word_id","phase","a_cor","a_real","a_ava","trial","tps","task_type","block_typ","pic_typ","block_id","cum_r","a","r","n_Prac","slider_start","pair_type"
"2425","null","learn","18:37:27","2","2","2","learn","2","2","[0, 1, 2]","0","0","setsize","99","prac","0","0","0","0","5","",""
"1248","null","learn","18:37:27","0","0","0","learn","0","0","[0, 1, 2]","1","0","setsize","99","prac","0","1","0","1","5","",""
"null","null","learn","18:37:27","1","1","1","learn","0","0","[0, 1, 2]","2","0","setsize","99","prac","0","0","999","0","5","",""
"1394","null","learn","18:37:27","1","1","1","learn","0","0","[0, 1, 2]","3","1","setsize","99","prac","0","0","1","0","5","",""
"1292","null","learn","18:37:27","2","2","2","learn","2","2","[0, 1, 2]","4","1","setsize","99","prac","0","0","1","0","5","",""
"1137","null","learn","18:37:27","0","0","0","learn","0","0","[0, 1, 2]","5","1","setsize","99","prac","0","0","2","0","5","",""
"984","null","learn","18:37:27","2","2","2","learn","2","2","[0, 1, 2]","0","0","setsize","99","prac","0","0","0","0","5","",""
"592","null","learn","18:37:27","0","0","0","learn","0","0","[0, 1, 2]","1","0","setsize","99","prac","0","1","0","1","5","",""
"801","null","learn","18:37:27","1","1","1","learn","0","0","[0, 1, 2]","2","0","setsize","99","prac","0","0","2","0","5","",""
"1128","null","learn","18:37:27","1","1","1","learn","0","0","[0, 1, 2]","3","1","setsize","99","prac","0","0","1","0","5","",""
"827","null","learn","18:37:27","2","2","2","learn","2","2","[0, 1, 2]","4","1","setsize","99","prac","0","0","0","0","5","",""
"1395","null","learn","18:37:27","0","0","0","learn","0","0","[0, 1, 2]","5","1","setsize","99","prac","0","0","2","0","5","",""
"761","null","learn","18:37:27","2","2","2","learn","2","2","[0, 1, 2]","0","0","setsize","99","prac","0","1","2","1","5","",""
"805","null","learn","18:37:27","0","0","0","learn","0","0","[0, 1, 2]","1","0","setsize","99","prac","0","0","1","0","5","",""
"1082","null","learn","18:37:27","1","1","1","learn","0","0","[0, 1, 2]","2","0","setsize","99","prac","0","0","1","0","5","",""
"626","null","learn","18:37:27","1","1","1","learn","0","0","[0, 1, 2]","3","1","setsize","99","prac","0","0","1","0","5","",""
"510","null","learn","18:37:27","2","2","2","learn","2","2","[0, 1, 2]","4","1","setsize","99","prac","0","1","2","1","5","",""
"1035","null","learn","18:37:27","0","0","0","learn","0","0","[0, 1, 2]","5","1","setsize","99","prac","0","0","1","0","5","",""
"546","null","learn","18:37:27","2","2","2","learn","2","2","[0, 1, 2]","0","0","setsize","99","prac","0","1","2","1","5","",""
"369","null","learn","18:37:27","0","0","0","learn","0","0","[0, 1, 2]","1","0","setsize","99","prac","0","0","2","0","5","",""
"779","null","learn","18:37:27","1","1","1","learn","0","0","[0, 1, 2]","2","0","setsize","99","prac","0","1","0","1","5","",""
"919","null","learn","18:37:27","1","1","1","learn","0","0","[0, 1, 2]","3","1","setsize","99","prac","0","0","1","0","5","",""
"678","null","learn","18:37:27","2","2","2","learn","2","2","[0, 1, 2]","4","1","setsize","99","prac","0","1","2","1","5","",""
"437","null","learn","18:37:27","0","0","0","learn","0","0","[0, 1, 2]","5","1","setsize","99","prac","0","2","0","1","5","",""
"644","null","learn","18:37:27","2","2","2","learn","2","2","[0, 1, 2]","0","0","setsize","99","prac","0","3","2","1","5","",""
"948","null","learn","18:37:27","0","0","0","learn","0","0","[0, 1, 2]","1","0","setsize","99","prac","0","4","0","1","5","",""
"371","null","learn","18:37:27","1","1","1","learn","0","0","[0, 1, 2]","2","0","setsize","99","prac","0","5","0","1","5","",""
"724","null","learn","18:37:27","1","1","1","learn","0","0","[0, 1, 2]","3","1","setsize","99","prac","0","6","0","1","5","",""
"717","null","learn","18:37:27","2","2","2","learn","2","2","[0, 1, 2]","4","1","setsize","99","prac","0","7","2","1","5","",""
"1064","null","learn","18:37:27","0","0","0","learn","0","0","[0, 1, 2]","5","1","setsize","99","prac","0","8","0","1","5","",""
"463","null","learn","18:37:27","1","1","1","learn","0","0","[0, 1, 2]","0","0","setsizechunk","3S","animals","1","9","0","1","5","",""
"854","null","learn","18:37:27","2","2","2","learn","2","2","[0, 1, 2]","1","0","setsizechunk","3S","animals","1","0","0","0","5","",""
"814","null","learn","18:37:27","0","0","0","learn","0","0","[0, 1, 2]","2","0","setsizechunk","3S","animals","1","0","2","0","5","",""
"711","null","learn","18:37:27","0","0","0","learn","0","0","[0, 1, 2]","3","1","setsizechunk","3S","animals","1","0","1","0","5","",""
"752","null","learn","18:37:27","1","1","1","learn","0","0","[0, 1, 2]","4","1","setsizechunk","3S","animals","1","0","1","0","5","",""
"754","null","learn","18:37:27","2","2","2","learn","2","2","[0, 1, 2]","5","1","setsizechunk","3S","animals","1","1","2","1","5","",""
"752","null","learn","18:37:27","1","1","1","learn","0","0","[0, 1, 2]","6","2","setsizechunk","3S","animals","1","2","0","1","5","",""
"1334","null","learn","18:37:27","2","2","2","learn","2","2","[0, 1, 2]","7","2","setsizechunk","3S","animals","1","3","2","1","5","",""
"708","null","learn","18:37:27","0","0","0","learn","0","0","[0, 1, 2]","8","2","setsizechunk","3S","animals","1","0","1","0","5","",""
"754","null","learn","18:37:27","1","1","1","learn","0","0","[0, 1, 2]","9","3","setsizechunk","3S","animals","1","1","0","1","5","",""
"710","null","learn","18:37:27","0","0","0","learn","0","0","[0, 1, 2]","10","3","setsizechunk","3S","animals","1","2","0","1","5","",""
"379","null","learn","18:37:27","2","2","2","learn","2","2","[0, 1, 2]","11","3","setsizechunk","3S","animals","1","3","2","1","5","",""
"643","null","learn","18:37:27","2","2","2","learn","2","2","[0, 1, 2]","12","4","setsizechunk","3S","animals","1","4","2","1","5","",""
"656","null","learn","18:37:27","0","0","0","learn","0","0","[0, 1, 2]","13","4","setsizechunk","3S","animals","1","5","0","1","5","",""
"560","null","learn","18:37:27","1","1","1","learn","0","0","[0, 1, 2]","14","4","setsizechunk","3S","animals","1","6","0","1","5","",""
"730","null","learn","18:37:27","0","0","0","learn","0","0","[0, 1, 2]","15","5","setsizechunk","3S","animals","1","7","0","1","5","",""
"564","null","learn","18:37:27","2","2","2","learn","2","2","[0, 1, 2]","16","5","setsizechunk","3S","animals","1","8","2","1","5","",""
"584","null","learn","18:37:27","1","1","1","learn","0","0","[0, 1, 2]","17","5","setsizechunk","3S","animals","1","9","0","1","5","",""
"612","null","learn","18:37:27","2","2","2","learn","2","2","[0, 1, 2]","18","6","setsizechunk","3S","animals","1","10","2","1","5","",""
"565","null","learn","18:37:27","1","1","1","learn","0","0","[0, 1, 2]","19","6","setsizechunk","3S","animals","1","11","0","1","5","",""
"546","null","learn","18:37:27","0","0","0","learn","0","0","[0, 1, 2]","20","6","setsizechunk","3S","animals","1","12","0","1","5","",""
"803","null","learn","18:37:27","0","0","0","learn","0","0","[0, 1, 2]","21","7","setsizechunk","3S","animals","1","13","0","1","5","",""
"489","null","learn","18:37:27","2","2","2","learn","2","2","[0, 1, 2]","22","7","setsizechunk","3S","animals","1","14","2","1","5","",""
"390","null","learn","18:37:27","1","1","1","learn","0","0","[0, 1, 2]","23","7","setsizechunk","3S","animals","1","15","0","1","5","",""
"596","null","learn","18:37:27","0","0","0","learn","0","0","[0, 1, 2]","24","8","setsizechunk","3S","animals","1","16","0","1","5","",""
"544","null","learn","18:37:27","1","1","1","learn","0","0","[0, 1, 2]","25","8","setsizechunk","3S","animals","1","17","0","1","5","",""
"535","null","learn","18:37:27","2","2","2","learn","2","2","[0, 1, 2]","26","8","setsizechunk","3S","animals","1","18","2","1","5","",""
"607","null","learn","18:37:27","0","0","0","learn","0","0","[0, 1, 2]","27","9","setsizechunk","3S","animals","1","19","0","1","5","",""
"558","null","learn","18:37:27","1","1","1","learn","0","0","[0, 1, 2]","28","9","setsizechunk","3S","animals","1","20","0","1","5","",""
"520","null","learn","18:37:27","2","2","2","learn","2","2","[0, 1, 2]","29","9","setsizechunk","3S","animals","1","21","2","1","5","",""
"814","null","learn","18:37:27","2","2","2","learn","2","2","[0, 1, 2]","30","10","setsizechunk","3S","animals","1","22","2","1","5","",""
"671","null","learn","18:37:27","0","0","0","learn","0","0","[0, 1, 2]","31","10","setsizechunk","3S","animals","1","23","0","1","5","",""
"557","null","learn","18:37:27","1","1","1","learn","0","0","[0, 1, 2]","32","10","setsizechunk","3S","animals","1","24","0","1","5","",""
"541","null","learn","18:37:27","1","1","1","learn","0","0","[0, 1, 2]","33","11","setsizechunk","3S","animals","1","25","0","1","5","",""
"572","null","learn","18:37:27","2","2","2","learn","2","2","[0, 1, 2]","34","11","setsizechunk","3S","animals","1","26","2","1","5","",""
"523","null","learn","18:37:27","0","0","0","learn","0","0","[0, 1, 2]","35","11","setsizechunk","3S","animals","1","27","0","1","5","",""
"581","null","learn","18:37:27","2","2","2","learn","2","2","[0, 1, 2]","36","12","setsizechunk","3S","animals","1","28","2","1","5","",""
"556","null","learn","18:37:27","1","1","1","learn","0","0","[0, 1, 2]","37","12","setsizechunk","3S","animals","1","29","0","1","5","",""
"355","null","learn","18:37:27","0","0","0","learn","0","0","[0, 1, 2]","38","12","setsizechunk","3S","animals","1","30","0","1","5","",""
"471","null","learn","18:37:27","2","2","2","learn","2","2","[0, 1, 2]","39","13","setsizechunk","3S","animals","1","31","2","1","5","",""
"610","null","learn","18:37:27","0","0","0","learn","0","0","[0, 1, 2]","40","13","setsizechunk","3S","animals","1","32","0","1","5","",""
"509","null","learn","18:37:27","1","1","1","learn","0","0","[0, 1, 2]","41","13","setsizechunk","3S","animals","1","33","0","1","5","",""
"533","null","learn","18:37:27","0","0","0","learn","0","0","[0, 1, 2]","42","14","setsizechunk","3S","animals","1","34","0","1","5","",""
"549","null","learn","18:37:27","2","2","2","learn","2","2","[0, 1, 2]","43","14","setsizechunk","3S","animals","1","35","2","1","5","",""
"529","null","learn","18:37:27","1","1","1","learn","0","0","[0, 1, 2]","44","14","setsizechunk","3S","animals","1","36","0","1","5","",""
"515","null","learn","18:37:27","0","0","0","learn","0","0","[0, 1, 2]","45","15","setsizechunk","3S","animals","1","37","0","1","5","",""
"99","null","memory","18:37:27","9","钢笔","14","memory","99","","[]","90","0","setsizechunk","3S","animals","1","","99","99","5","",""
"99","null","memory","18:37:27","9","湖泊","4","memory","99","","[]","91","0","setsizechunk","3S","animals","1","","99","99","5","",""
"99","null","memory","18:37:27","8","玻璃","3","memory","99","","[]","92","0","setsizechunk","3S","animals","1","","99","99","5","",""
"99","null","memory","18:37:27","1","广阔","11","memory","99","","[]","93","0","setsizechunk","3S","animals","1","","99","99","5","",""
"99","null","memory","18:37:27","0","山峰","15","memory","99","","[]","94","0","setsizechunk","3S","animals","1","","99","99","5","",""
"99","null","memory","18:37:27","9","峡谷","19","memory","99","","[]","95","0","setsizechunk","3S","animals","1","","99","99","5","",""
"99","null","memory","18:37:27","0","深邃","0","memory","99","","[]","96","0","setsizechunk","3S","animals","1","","99","99","5","",""
"99","null","memory","18:37:27","2","电池","12","memory","99","","[]","97","0","setsizechunk","3S","animals","1","","99","99","5","",""
"99","null","memory","18:37:27","8","笔墨","8","memory","99","","[]","98","0","setsizechunk","3S","animals","1","","99","99","5","",""
"99","null","memory","18:37:27","0","钥匙","10","memory","99","","[]","99","0","setsizechunk","3S","animals","1","","99","99","5","",""
"99","null","memory","18:37:27","2","书本","17","memory","99","","[]","100","0","setsizechunk","3S","animals","1","","99","99","5","",""
"99","null","memory","18:37:27","9","窗帘","9","memory","99","","[]","101","0","setsizechunk","3S","animals","1","","99","99","5","",""
"99","null","memory","18:37:27","2","纸张","2","memory","99","","[]","102","0","setsizechunk","3S","animals","1","","99","99","5","",""
"99","null","memory","18:37:27","2","沙漠","7","memory","99","","[]","103","0","setsizechunk","3S","animals","1","","99","99","5","",""
"99","null","memory","18:37:27","8","柔和","18","memory","99","","[]","104","0","setsizechunk","3S","animals","1","","99","99","5","",""
"99","null","memory","18:37:27","0","灯泡","5","memory","99","","[]","105","0","setsizechunk","3S","animals","1","","99","99","5","",""
"99","null","memory","18:37:27","8","清新","13","memory","99","","[]","106","0","setsizechunk","3S","animals","1","","99","99","5","",""
"99","null","memory","18:37:27","1","纸巾","6","memory","99","","[]","107","0","setsizechunk","3S","animals","1","","99","99","5","",""
"99","null","memory","18:37:27","1","雨伞","16","memory","99","","[]","108","0","setsizechunk","3S","animals","1","","99","99","5","",""
"99","null","memory","18:37:27","1","明亮","1","memory","99","","[]","109","0","setsizechunk","3S","animals","1","","99","99","5","",""
"99","null","memory","18:37:27","9","窗帘","9","memory","99","","[]","110","1","setsizechunk","3S","animals","1","","99","99","5","",""
"99","null","memory","18:37:27","1","明亮","1","memory","99","","[]","111","1","setsizechunk","3S","animals","1","","99","99","5","",""
"99","null","memory","18:37:27","1","纸巾","6","memory","99","","[]","112","1","setsizechunk","3S","animals","1","","99","99","5","",""
"99","null","memory","18:37:27","0","灯泡","5","memory","99","","[]","113","1","setsizechunk","3S","animals","1","","99","99","5","",""
"99","null","memory","18:37:27","9","钢笔","14","memory","99","","[]","114","1","setsizechunk","3S","animals","1","","99","99","5","",""
"99","null","memory","18:37:27","8","玻璃","3","memory","99","","[]","115","1","setsizechunk","3S","animals","1","","99","99","5","",""
"99","null","memory","18:37:27","8","笔墨","8","memory","99","","[]","116","1","setsizechunk","3S","animals","1","","99","99","5","",""
"99","null","memory","18:37:27","2","纸张","2","memory","99","","[]","117","1","setsizechunk","3S","animals","1","","99","99","5","",""
"99","null","memory","18:37:27","0","钥匙","10","memory","99","","[]","118","1","setsizechunk","3S","animals","1","","99","99","5","",""
"99","null","memory","18:37:27","8","清新","13","memory","99","","[]","119","1","setsizechunk","3S","animals","1","","99","99","5","",""
"99","null","memory","18:37:27","2","电池","12","memory","99","","[]","120","1","setsizechunk","3S","animals","1","","99","99","5","",""
"99","null","memory","18:37:27","1","雨伞","16","memory","99","","[]","121","1","setsizechunk","3S","animals","1","","99","99","5","",""
"99","null","memory","18:37:27","9","峡谷","19","memory","99","","[]","122","1","setsizechunk","3S","animals","1","","99","99","5","",""
"99","null","memory","18:37:27","2","沙漠","7","memory","99","","[]","123","1","setsizechunk","3S","animals","1","","99","99","5","",""
"99","null","memory","18:37:27","8","柔和","18","memory","99","","[]","124","1","setsizechunk","3S","animals","1","","99","99","5","",""
"99","null","memory","18:37:27","1","广阔","11","memory","99","","[]","125","1","setsizechunk","3S","animals","1","","99","99","5","",""
"99","null","memory","18:37:27","2","书本","17","memory","99","","[]","126","1","setsizechunk","3S","animals","1","","99","99","5","",""
"99","null","memory","18:37:27","9","湖泊","4","memory","99","","[]","127","1","setsizechunk","3S","animals","1","","99","99","5","",""
"99","null","memory","18:37:27","0","山峰","15","memory","99","","[]","128","1","setsizechunk","3S","animals","1","","99","99","5","",""
"99","null","memory","18:37:27","0","深邃","0","memory","99","","[]","129","1","setsizechunk","3S","animals","1","","99","99","5","",""
"5822","100","recognition","18:37:27","9","湖泊","4","recognition","1","","[]","130","99","setsizechunk","3S","animals","1","","","1","5","50","0"
"5756","0","recognition","18:37:27","2","玻璃","3","recognition","0","","[]","131","99","setsizechunk","3S","animals","1","","","1","5","50","3"
"2762","0","recognition","18:37:27","2","广阔","11","recognition","0","","[]","132","99","setsizechunk","3S","animals","1","","","1","5","50","2"
"5406","100","recognition","18:37:27","9","峡谷","19","recognition","1","","[]","133","99","setsizechunk","3S","animals","1","","","1","5","50","0"
"2919","100","recognition","18:37:27","8","柔和","18","recognition","1","","[]","134","99","setsizechunk","3S","animals","1","","","1","5","50","0"
"2465","0","recognition","18:37:27","0","明亮","1","recognition","0","","[]","135","99","setsizechunk","3S","animals","1","","","1","5","50","1"
"2434","100","recognition","18:37:27","8","清新","13","recognition","1","","[]","136","99","setsizechunk","3S","animals","1","","","1","5","50","0"
"2300","0","recognition","18:37:27","1","沙漠","7","recognition","0","","[]","137","99","setsizechunk","3S","animals","1","","","1","5","50","2"
"3455","100","recognition","18:37:27","9","钢笔","14","recognition","1","","[]","138","99","setsizechunk","3S","animals","1","","","1","5","50","0"
"2208","100","recognition","18:37:27","9","窗帘","9","recognition","1","","[]","139","99","setsizechunk","3S","animals","1","","","1","5","50","0"
"3454","0","recognition","18:37:27","1","灯泡","5","recognition","0","","[]","140","99","setsizechunk","3S","animals","1","","","1","5","50","1"
"2127","0","recognition","18:37:27","0","纸张","2","recognition","0","","[]","141","99","setsizechunk","3S","animals","1","","","1","5","50","2"
"5155","0","recognition","18:37:27","0","纸巾","6","recognition","0","","[]","142","99","setsizechunk","3S","animals","1","","","1","5","50","1"
"2297","0","recognition","18:37:27","8","电池","12","recognition","0","","[]","143","99","setsizechunk","3S","animals","1","","","1","5","50","3"
"2294","100","recognition","18:37:27","0","山峰","15","recognition","1","","[]","144","99","setsizechunk","3S","animals","1","","","1","5","50","0"
"1956","0","recognition","18:37:27","2","钥匙","10","recognition","0","","[]","145","99","setsizechunk","3S","animals","1","","","1","5","50","2"
"3032","100","recognition","18:37:27","1","雨伞","16","recognition","1","","[]","146","99","setsizechunk","3S","animals","1","","","1","5","50","0"
"2605","0","recognition","18:37:27","1","深邃","0","recognition","0","","[]","147","99","setsizechunk","3S","animals","1","","","1","5","50","1"
"2610","100","recognition","18:37:27","2","书本","17","recognition","1","","[]","148","99","setsizechunk","3S","animals","1","","","1","5","50","0"
"4037","100","recognition","18:37:27","8","笔墨","8","recognition","1","","[]","149","99","setsizechunk","3S","animals","1","","","1","5","50","0"
"1032","null","learn","18:37:27","0","0","0","learn","0","0","[0, 1, 2]","0","0","setsizechunk","6S","food","2","38","0","1","5","",""
"752","null","learn","18:37:27","3","3","3","learn","1","1","[0, 1, 2]","1","0","setsizechunk","6S","food","2","0","0","0","5","",""
"646","null","learn","18:37:27","4","4","4","learn","2","2","[0, 1, 2]","2","0","setsizechunk","6S","food","2","0","0","0","5","",""
"561","null","learn","18:37:27","2","2","2","learn","1","1","[0, 1, 2]","3","0","setsizechunk","6S","food","2","0","0","0","5","",""
"337","null","learn","18:37:27","5","5","5","learn","2","2","[0, 1, 2]","4","0","setsizechunk","6S","food","2","0","0","0","5","",""
"420","null","learn","18:37:27","1","1","1","learn","0","0","[0, 1, 2]","5","0","setsizechunk","6S","food","2","1","0","1","5","",""
"578","null","learn","18:37:27","5","5","5","learn","2","2","[0, 1, 2]","6","1","setsizechunk","6S","food","2","0","0","0","5","",""
"1052","null","learn","18:37:27","4","4","4","learn","2","2","[0, 1, 2]","7","1","setsizechunk","6S","food","2","0","1","0","5","",""
"496","null","learn","18:37:27","2","2","2","learn","1","1","[0, 1, 2]","8","1","setsizechunk","6S","food","2","1","1","1","5","",""
"932","null","learn","18:37:27","1","1","1","learn","0","0","[0, 1, 2]","9","1","setsizechunk","6S","food","2","2","0","1","5","",""
"779","null","learn","18:37:27","3","3","3","learn","1","1","[0, 1, 2]","10","1","setsizechunk","6S","food","2","0","2","0","5","",""
"776","null","learn","18:37:27","0","0","0","learn","0","0","[0, 1, 2]","11","1","setsizechunk","6S","food","2","1","0","1","5","",""
"929","null","learn","18:37:27","3","3","3","learn","1","1","[0, 1, 2]","12","2","setsizechunk","6S","food","2","2","1","1","5","",""
"898","null","learn","18:37:27","5","5","5","learn","2","2","[0, 1, 2]","13","2","setsizechunk","6S","food","2","0","1","0","5","",""
"1002","null","learn","18:37:27","1","1","1","learn","0","0","[0, 1, 2]","14","2","setsizechunk","6S","food","2","1","0","1","5","",""
"659","null","learn","18:37:27","0","0","0","learn","0","0","[0, 1, 2]","15","2","setsizechunk","6S","food","2","2","0","1","5","",""
"787","null","learn","18:37:27","4","4","4","learn","2","2","[0, 1, 2]","16","2","setsizechunk","6S","food","2","3","2","1","5","",""
"1554","null","learn","18:37:27","2","2","2","learn","1","1","[0, 1, 2]","17","2","setsizechunk","6S","food","2","4","1","1","5","",""
"557","null","learn","18:37:27","2","2","2","learn","1","1","[0, 1, 2]","18","3","setsizechunk","6S","food","2","5","1","1","5","",""
"1111","null","learn","18:37:27","3","3","3","learn","1","1","[0, 1, 2]","19","3","setsizechunk","6S","food","2","6","1","1","5","",""
"822","null","learn","18:37:27","1","1","1","learn","0","0","[0, 1, 2]","20","3","setsizechunk","6S","food","2","7","0","1","5","",""
"788","null","learn","18:37:27","5","5","5","learn","2","2","[0, 1, 2]","21","3","setsizechunk","6S","food","2","8","2","1","5","",""
"691","null","learn","18:37:27","0","0","0","learn","0","0","[0, 1, 2]","22","3","setsizechunk","6S","food","2","9","0","1","5","",""
"670","null","learn","18:37:27","4","4","4","learn","2","2","[0, 1, 2]","23","3","setsizechunk","6S","food","2","10","2","1","5","",""
"1219","null","learn","18:37:27","5","5","5","learn","2","2","[0, 1, 2]","24","4","setsizechunk","6S","food","2","0","1","0","5","",""
"630","null","learn","18:37:27","4","4","4","learn","2","2","[0, 1, 2]","25","4","setsizechunk","6S","food","2","1","2","1","5","",""
"910","null","learn","18:37:27","3","3","3","learn","1","1","[0, 1, 2]","26","4","setsizechunk","6S","food","2","2","1","1","5","",""
"794","null","learn","18:37:27","1","1","1","learn","0","0","[0, 1, 2]","27","4","setsizechunk","6S","food","2","3","0","1","5","",""
"672","null","learn","18:37:27","2","2","2","learn","1","1","[0, 1, 2]","28","4","setsizechunk","6S","food","2","4","1","1","5","",""
"605","null","learn","18:37:27","0","0","0","learn","0","0","[0, 1, 2]","29","4","setsizechunk","6S","food","2","5","0","1","5","",""
"648","null","learn","18:37:27","2","2","2","learn","1","1","[0, 1, 2]","30","5","setsizechunk","6S","food","2","6","1","1","5","",""
"799","null","learn","18:37:27","3","3","3","learn","1","1","[0, 1, 2]","31","5","setsizechunk","6S","food","2","7","1","1","5","",""
"667","null","learn","18:37:27","1","1","1","learn","0","0","[0, 1, 2]","32","5","setsizechunk","6S","food","2","8","0","1","5","",""
"559","null","learn","18:37:27","0","0","0","learn","0","0","[0, 1, 2]","33","5","setsizechunk","6S","food","2","9","0","1","5","",""
"532","null","learn","18:37:27","5","5","5","learn","2","2","[0, 1, 2]","34","5","setsizechunk","6S","food","2","10","2","1","5","",""
"632","null","learn","18:37:27","4","4","4","learn","2","2","[0, 1, 2]","35","5","setsizechunk","6S","food","2","11","2","1","5","",""
"608","null","learn","18:37:27","1","1","1","learn","0","0","[0, 1, 2]","36","6","setsizechunk","6S","food","2","12","0","1","5","",""
"612","null","learn","18:37:27","3","3","3","learn","1","1","[0, 1, 2]","37","6","setsizechunk","6S","food","2","13","1","1","5","",""
"517","null","learn","18:37:27","0","0","0","learn","0","0","[0, 1, 2]","38","6","setsizechunk","6S","food","2","14","0","1","5","",""
"593","null","learn","18:37:27","4","4","4","learn","2","2","[0, 1, 2]","39","6","setsizechunk","6S","food","2","15","2","1","5","",""
"612","null","learn","18:37:27","2","2","2","learn","1","1","[0, 1, 2]","40","6","setsizechunk","6S","food","2","16","1","1","5","",""
"631","null","learn","18:37:27","5","5","5","learn","2","2","[0, 1, 2]","41","6","setsizechunk","6S","food","2","17","2","1","5","",""
"516","null","learn","18:37:27","0","0","0","learn","0","0","[0, 1, 2]","42","7","setsizechunk","6S","food","2","18","0","1","5","",""
"607","null","learn","18:37:27","3","3","3","learn","1","1","[0, 1, 2]","43","7","setsizechunk","6S","food","2","19","1","1","5","",""
"589","null","learn","18:37:27","1","1","1","learn","0","0","[0, 1, 2]","44","7","setsizechunk","6S","food","2","20","0","1","5","",""
"664","null","learn","18:37:27","4","4","4","learn","2","2","[0, 1, 2]","45","7","setsizechunk","6S","food","2","21","2","1","5","",""
"585","null","learn","18:37:27","2","2","2","learn","1","1","[0, 1, 2]","46","7","setsizechunk","6S","food","2","22","1","1","5","",""
"640","null","learn","18:37:27","5","5","5","learn","2","2","[0, 1, 2]","47","7","setsizechunk","6S","food","2","23","2","1","5","",""
"617","null","learn","18:37:27","4","4","4","learn","2","2","[0, 1, 2]","48","8","setsizechunk","6S","food","2","24","2","1","5","",""
"568","null","learn","18:37:27","2","2","2","learn","1","1","[0, 1, 2]","49","8","setsizechunk","6S","food","2","25","1","1","5","",""
"542","null","learn","18:37:27","0","0","0","learn","0","0","[0, 1, 2]","50","8","setsizechunk","6S","food","2","26","0","1","5","",""
"610","null","learn","18:37:27","5","5","5","learn","2","2","[0, 1, 2]","51","8","setsizechunk","6S","food","2","27","2","1","5","",""
"531","null","learn","18:37:27","1","1","1","learn","0","0","[0, 1, 2]","52","8","setsizechunk","6S","food","2","28","0","1","5","",""
"541","null","learn","18:37:27","3","3","3","learn","1","1","[0, 1, 2]","53","8","setsizechunk","6S","food","2","29","1","1","5","",""
"530","null","learn","18:37:27","0","0","0","learn","0","0","[0, 1, 2]","54","9","setsizechunk","6S","food","2","30","0","1","5","",""
"549","null","learn","18:37:27","2","2","2","learn","1","1","[0, 1, 2]","55","9","setsizechunk","6S","food","2","31","1","1","5","",""
"570","null","learn","18:37:27","1","1","1","learn","0","0","[0, 1, 2]","56","9","setsizechunk","6S","food","2","32","0","1","5","",""
"551","null","learn","18:37:27","4","4","4","learn","2","2","[0, 1, 2]","57","9","setsizechunk","6S","food","2","33","2","1","5","",""
"639","null","learn","18:37:27","5","5","5","learn","2","2","[0, 1, 2]","58","9","setsizechunk","6S","food","2","34","2","1","5","",""
"567","null","learn","18:37:27","3","3","3","learn","1","1","[0, 1, 2]","59","9","setsizechunk","6S","food","2","35","1","1","5","",""
"542","null","learn","18:37:27","1","1","1","learn","0","0","[0, 1, 2]","60","10","setsizechunk","6S","food","2","36","0","1","5","",""
"596","null","learn","18:37:27","4","4","4","learn","2","2","[0, 1, 2]","61","10","setsizechunk","6S","food","2","37","2","1","5","",""
"532","null","learn","18:37:27","3","3","3","learn","1","1","[0, 1, 2]","62","10","setsizechunk","6S","food","2","38","1","1","5","",""
"558","null","learn","18:37:27","5","5","5","learn","2","2","[0, 1, 2]","63","10","setsizechunk","6S","food","2","39","2","1","5","",""
"579","null","learn","18:37:27","0","0","0","learn","0","0","[0, 1, 2]","64","10","setsizechunk","6S","food","2","40","0","1","5","",""
"527","null","learn","18:37:27","2","2","2","learn","1","1","[0, 1, 2]","65","10","setsizechunk","6S","food","2","41","1","1","5","",""
"620","null","learn","18:37:27","5","5","5","learn","2","2","[0, 1, 2]","66","11","setsizechunk","6S","food","2","42","2","1","5","",""
"600","null","learn","18:37:27","2","2","2","learn","1","1","[0, 1, 2]","67","11","setsizechunk","6S","food","2","43","1","1","5","",""
"601","null","learn","18:37:27","3","3","3","learn","1","1","[0, 1, 2]","68","11","setsizechunk","6S","food","2","44","1","1","5","",""
"557","null","learn","18:37:27","1","1","1","learn","0","0","[0, 1, 2]","69","11","setsizechunk","6S","food","2","45","0","1","5","",""
"621","null","learn","18:37:27","4","4","4","learn","2","2","[0, 1, 2]","70","11","setsizechunk","6S","food","2","46","2","1","5","",""
"493","null","learn","18:37:27","0","0","0","learn","0","0","[0, 1, 2]","71","11","setsizechunk","6S","food","2","47","0","1","5","",""
"535","null","learn","18:37:27","0","0","0","learn","0","0","[0, 1, 2]","72","12","setsizechunk","6S","food","2","48","0","1","5","",""
"528","null","learn","18:37:27","5","5","5","learn","2","2","[0, 1, 2]","73","12","setsizechunk","6S","food","2","49","2","1","5","",""
"531","null","learn","18:37:27","4","4","4","learn","2","2","[0, 1, 2]","74","12","setsizechunk","6S","food","2","50","2","1","5","",""
"537","null","learn","18:37:27","3","3","3","learn","1","1","[0, 1, 2]","75","12","setsizechunk","6S","food","2","51","1","1","5","",""
"556","null","learn","18:37:27","2","2","2","learn","1","1","[0, 1, 2]","76","12","setsizechunk","6S","food","2","52","1","1","5","",""
"602","null","learn","18:37:27","1","1","1","learn","0","0","[0, 1, 2]","77","12","setsizechunk","6S","food","2","53","0","1","5","",""
"588","null","learn","18:37:27","2","2","2","learn","1","1","[0, 1, 2]","78","13","setsizechunk","6S","food","2","54","1","1","5","",""
"547","null","learn","18:37:27","3","3","3","learn","1","1","[0, 1, 2]","79","13","setsizechunk","6S","food","2","55","1","1","5","",""
"519","null","learn","18:37:27","0","0","0","learn","0","0","[0, 1, 2]","80","13","setsizechunk","6S","food","2","56","0","1","5","",""
"602","null","learn","18:37:27","5","5","5","learn","2","2","[0, 1, 2]","81","13","setsizechunk","6S","food","2","57","2","1","5","",""
"600","null","learn","18:37:27","4","4","4","learn","2","2","[0, 1, 2]","82","13","setsizechunk","6S","food","2","58","2","1","5","",""
"594","null","learn","18:37:27","1","1","1","learn","0","0","[0, 1, 2]","83","13","setsizechunk","6S","food","2","59","0","1","5","",""
"524","null","learn","18:37:27","1","1","1","learn","0","0","[0, 1, 2]","84","14","setsizechunk","6S","food","2","60","0","1","5","",""
"586","null","learn","18:37:27","5","5","5","learn","2","2","[0, 1, 2]","85","14","setsizechunk","6S","food","2","61","2","1","5","",""
"491","null","learn","18:37:27","3","3","3","learn","1","1","[0, 1, 2]","86","14","setsizechunk","6S","food","2","62","1","1","5","",""
"530","null","learn","18:37:27","0","0","0","learn","0","0","[0, 1, 2]","87","14","setsizechunk","6S","food","2","63","0","1","5","",""
"578","null","learn","18:37:27","4","4","4","learn","2","2","[0, 1, 2]","88","14","setsizechunk","6S","food","2","64","2","1","5","",""
"554","null","learn","18:37:27","2","2","2","learn","1","1","[0, 1, 2]","89","14","setsizechunk","6S","food","2","65","1","1","5","",""
"663","null","learn","18:37:27","5","5","5","learn","2","2","[0, 1, 2]","90","15","setsizechunk","6S","food","2","66","2","1","5","",""
"99","null","memory","18:37:27","0","粉笔","15","memory","99","","[]","180","0","setsizechunk","6S","food","2","","99","99","5","",""
"99","null","memory","18:37:27","9","沉稳","4","memory","99","","[]","181","0","setsizechunk","6S","food","2","","99","99","5","",""
"99","null","memory","18:37:27","1","淡雅","6","memory","99","","[]","182","0","setsizechunk","6S","food","2","","99","99","5","",""
"99","null","memory","18:37:27","9","书架","9","memory","99","","[]","183","0","setsizechunk","6S","food","2","","99","99","5","",""
"99","null","memory","18:37:27","9","纸袋","19","memory","99","","[]","184","0","setsizechunk","6S","food","2","","99","99","5","",""
"99","null","memory","18:37:27","2","沉稳","12","memory","99","","[]","185","0","setsizechunk","6S","food","2","","99","99","5","",""
"99","null","memory","18:37:27","2","丘陵","7","memory","99","","[]","186","0","setsizechunk","6S","food","2","","99","99","5","",""
"99","null","memory","18:37:27","0","书签","10","memory","99","","[]","187","0","setsizechunk","6S","food","2","","99","99","5","",""
"99","null","memory","18:37:27","8","针线","13","memory","99","","[]","188","0","setsizechunk","6S","food","2","","99","99","5","",""
"99","null","memory","18:37:27","1","线缆","1","memory","99","","[]","189","0","setsizechunk","6S","food","2","","99","99","5","",""
"99","null","memory","18:37:27","2","插头","17","memory","99","","[]","190","0","setsizechunk","6S","food","2","","99","99","5","",""
"99","null","memory","18:37:27","2","岩石","2","memory","99","","[]","191","0","setsizechunk","6S","food","2","","99","99","5","",""
"99","null","memory","18:37:27","0","雪山","0","memory","99","","[]","192","0","setsizechunk","6S","food","2","","99","99","5","",""
"99","null","memory","18:37:27","8","纯净","18","memory","99","","[]","193","0","setsizechunk","6S","food","2","","99","99","5","",""
"99","null","memory","18:37:27","0","橡皮","5","memory","99","","[]","194","0","setsizechunk","6S","food","2","","99","99","5","",""
"99","null","memory","18:37:27","1","纸盒","16","memory","99","","[]","195","0","setsizechunk","6S","food","2","","99","99","5","",""
"99","null","memory","18:37:27","1","镜子","11","memory","99","","[]","196","0","setsizechunk","6S","food","2","","99","99","5","",""
"99","null","memory","18:37:27","8","湿地","3","memory","99","","[]","197","0","setsizechunk","6S","food","2","","99","99","5","",""
"99","null","memory","18:37:27","8","书包","8","memory","99","","[]","198","0","setsizechunk","6S","food","2","","99","99","5","",""
"99","null","memory","18:37:27","9","瀑布","14","memory","99","","[]","199","0","setsizechunk","6S","food","2","","99","99","5","",""
"99","null","memory","18:37:27","0","雪山","0","memory","99","","[]","200","1","setsizechunk","6S","food","2","","99","99","5","",""
"99","null","memory","18:37:27","1","纸盒","16","memory","99","","[]","201","1","setsizechunk","6S","food","2","","99","99","5","",""
"99","null","memory","18:37:27","0","橡皮","5","memory","99","","[]","202","1","setsizechunk","6S","food","2","","99","99","5","",""
"99","null","memory","18:37:27","1","线缆","1","memory","99","","[]","203","1","setsizechunk","6S","food","2","","99","99","5","",""
"99","null","memory","18:37:27","8","书包","8","memory","99","","[]","204","1","setsizechunk","6S","food","2","","99","99","5","",""
"99","null","memory","18:37:27","0","书签","10","memory","99","","[]","205","1","setsizechunk","6S","food","2","","99","99","5","",""
"99","null","memory","18:37:27","0","粉笔","15","memory","99","","[]","206","1","setsizechunk","6S","food","2","","99","99","5","",""
"99","null","memory","18:37:27","9","瀑布","14","memory","99","","[]","207","1","setsizechunk","6S","food","2","","99","99","5","",""
"99","null","memory","18:37:27","1","镜子","11","memory","99","","[]","208","1","setsizechunk","6S","food","2","","99","99","5","",""
"99","null","memory","18:37:27","9","纸袋","19","memory","99","","[]","209","1","setsizechunk","6S","food","2","","99","99","5","",""
"99","null","memory","18:37:27","2","岩石","2","memory","99","","[]","210","1","setsizechunk","6S","food","2","","99","99","5","",""
"99","null","memory","18:37:27","8","针线","13","memory","99","","[]","211","1","setsizechunk","6S","food","2","","99","99","5","",""
"99","null","memory","18:37:27","8","湿地","3","memory","99","","[]","212","1","setsizechunk","6S","food","2","","99","99","5","",""
"99","null","memory","18:37:27","2","插头","17","memory","99","","[]","213","1","setsizechunk","6S","food","2","","99","99","5","",""
"99","null","memory","18:37:27","2","丘陵","7","memory","99","","[]","214","1","setsizechunk","6S","food","2","","99","99","5","",""
"99","null","memory","18:37:27","9","沉稳","4","memory","99","","[]","215","1","setsizechunk","6S","food","2","","99","99","5","",""
"99","null","memory","18:37:27","9","书架","9","memory","99","","[]","216","1","setsizechunk","6S","food","2","","99","99","5","",""
"99","null","memory","18:37:27","8","纯净","18","memory","99","","[]","217","1","setsizechunk","6S","food","2","","99","99","5","",""
"99","null","memory","18:37:27","2","沉稳","12","memory","99","","[]","218","1","setsizechunk","6S","food","2","","99","99","5","",""
"99","null","memory","18:37:27","1","淡雅","6","memory","99","","[]","219","1","setsizechunk","6S","food","2","","99","99","5","",""
"3438","100","recognition","18:37:27","9","瀑布","14","recognition","1","","[]","220","99","setsizechunk","6S","food","2","","","1","5","50","0"
"2214","100","recognition","18:37:27","2","插头","17","recognition","1","","[]","221","99","setsizechunk","6S","food","2","","","1","5","50","0"
"2849","100","recognition","18:37:27","9","沉稳","4","recognition","1","","[]","222","99","setsizechunk","6S","food","2","","","1","5","50","0"
"2173","100","recognition","18:37:27","8","书包","8","recognition","1","","[]","223","99","setsizechunk","6S","food","2","","","1","5","50","0"
"5823","0","recognition","18:37:27","1","丘陵","7","recognition","0","","[]","224","99","setsizechunk","6S","food","2","","","1","5","50","2"
"3048","100","recognition","18:37:27","1","纸盒","16","recognition","1","","[]","225","99","setsizechunk","6S","food","2","","","1","5","50","0"
"2548","0","recognition","18:37:27","9","纸袋","19","recognition","1","","[]","226","99","setsizechunk","6S","food","2","","","0","5","50","0"
"4738","100","recognition","18:37:27","0","粉笔","15","recognition","1","","[]","227","99","setsizechunk","6S","food","2","","","1","5","50","0"
"4043","0","recognition","18:37:27","2","书签","10","recognition","0","","[]","228","99","setsizechunk","6S","food","2","","","1","5","50","2"
"4012","100","recognition","18:37:27","9","书架","9","recognition","1","","[]","229","99","setsizechunk","6S","food","2","","","1","5","50","0"
"2776","0","recognition","18:37:27","0","线缆","1","recognition","0","","[]","230","99","setsizechunk","6S","food","2","","","1","5","50","1"
"3532","0","recognition","18:37:27","2","镜子","11","recognition","0","","[]","231","99","setsizechunk","6S","food","2","","","1","5","50","2"
"2365","0","recognition","18:37:27","2","湿地","3","recognition","0","","[]","232","99","setsizechunk","6S","food","2","","","1","5","50","3"
"3388","0","recognition","18:37:27","0","淡雅","6","recognition","0","","[]","233","99","setsizechunk","6S","food","2","","","1","5","50","1"
"5023","100","recognition","18:37:27","8","纯净","18","recognition","1","","[]","234","99","setsizechunk","6S","food","2","","","1","5","50","0"
"1715","100","recognition","18:37:27","8","针线","13","recognition","1","","[]","235","99","setsizechunk","6S","food","2","","","1","5","50","0"
"3814","0","recognition","18:37:27","1","雪山","0","recognition","0","","[]","236","99","setsizechunk","6S","food","2","","","1","5","50","1"
"2872","0","recognition","18:37:27","1","橡皮","5","recognition","0","","[]","237","99","setsizechunk","6S","food","2","","","1","5","50","1"
"2892","0","recognition","18:37:27","0","岩石","2","recognition","0","","[]","238","99","setsizechunk","6S","food","2","","","1","5","50","2"
"4166","0","recognition","18:37:27","8","沉稳","12","recognition","0","","[]","239","99","setsizechunk","6S","food","2","","","1","5","50","3"
