"rt","response","screen_id","trial_type","trial_index","time_elapsed","internal_node_id","start_time","n_Prac","success","timeout","failed_images","failed_audio","failed_video","view_history","stimulus","question_order","stage","s","word","word_id","phase","a_cor","a_real","a_ava","trial","tps","task_type","block_typ","pic_typ","block_id","cum_r","a","r","plugin_name"
"59288","{""sub_id"":""CN004"",""task_type"":""task1"",""name"":""桓咕咕"",""gender"":""F""}","basic_info","survey-html-form","0","59291","0.0-0.0","16:17:21","5","","","","","","","","","","","","","","","","","","","","","","","","","",""
"","","","preload","1","59309","0.0-1.0-0.0","16:17:21","5","true","false","[]","[]","[]","","","","","","","","","","","","","","","","","","","","",""
"","","","fullscreen","2","61645","0.0-1.0-1.0","16:17:21","5","true","","","","","","","","","","","","","","","","","","","","","","","","",""
"39752","","instruct","instructions","3","101399","0.0-1.0-2.0-0.0","16:17:21","5","","","","","","[{""page_index"":0,""viewing_time"":14757},{""page_index"":1,""viewing_time"":15178},{""page_index"":2,""viewing_time"":9816}]","","","","","","","","","","","","","","","","","","","",""
"44437","{""Q0"":"""",""task1"":""<span style='font-size: 24px'>学习图片和数字的对应关系</span>"",""task2"":""<span style='font-size: 24px'> 数字键1-3 </span>"",""task3"":""<span style='font-size: 24px'> 看到图片选出正确对应的数字 </span>""}","question","survey-multi-choice","4","145838","0.0-1.0-2.0-1.0","16:17:21","5","","","","","","","","[0,1,2,3]","","","","","","","","","","","","","","","","","",""
"2885"," ","inst_q","html-keyboard-response","5","148729","0.0-1.0-2.0-2.0","16:17:21","5","","","","","","","inst","","1","","","","","","","","","","","","","","","","",""
"192482","","instruct","instructions","6","341214","0.0-1.0-2.1-0.1","16:17:21","5","","","","","","[{""page_index"":0,""viewing_time"":16283},{""page_index"":1,""viewing_time"":1212},{""page_index"":0,""viewing_time"":3160},{""page_index"":1,""viewing_time"":6274},{""page_index"":2,""viewing_time"":7464},{""page_index"":1,""viewing_time"":697},{""page_index"":0,""viewing_time"":54573},{""page_index"":1,""viewing_time"":6667},{""page_index"":2,""viewing_time"":3597},{""page_index"":1,""viewing_time"":31149},{""page_index"":0,""viewing_time"":36194},{""page_index"":1,""viewing_time"":2884},{""page_index"":0,""viewing_time"":8755},{""page_index"":1,""viewing_time"":5321},{""page_index"":2,""viewing_time"":8252}]","","","","","","","","","","","","","","","","","","","",""
"12691","{""Q0"":"""",""task1"":""<span style='font-size: 24px'>学习图片和数字的对应关系</span>"",""task2"":""<span style='font-size: 24px'> 图片下方标注为可用的数字键（数字键1-3或1-8） </span>"",""task3"":""<span style='font-size: 24px'> 看到图片选出正确对应的数字 </span>""}","question","survey-multi-choice","7","353906","0.0-1.0-2.1-1.1","16:17:21","5","","","","","","","","[0,1,2,3]","","","","","","","","","","","","","","","","","",""
"3706"," ","inst_q","html-keyboard-response","8","357616","0.0-1.0-2.1-2.1","16:17:21","5","","","","","","","inst","","1","","","","","","","","","","","","","","","","",""
"","","","preload","9","357628","0.0-1.0-3.0-0.0","16:17:21","5","true","false","[]","[]","[]","","","","","","","","","","","","","","","","","","","","",""
"5178"," ","","html-keyboard-response","10","362808","0.0-1.0-3.0-1.0","16:17:21","5","","","","","","","<div style='font-size: 32px; text-align: center;'
                    <p>请学习图片和数字之间的对应关系</p>
                    <p>我们将<span style='color: blue'><b> 告诉 </b></span>您选择的对错。请根据反馈学习。</p>
                    <p>请按""空格""继续实验。</p></div>","","","","","","","","","","","","","","","","","","",""
"11326"," ","inst","html-keyboard-response","11","374134","0.0-1.0-3.0-2.0","16:17:21","5","","","","","","","<img class='instruct_stim' src=""instruction/prac3.png""></div>","","","","","","","","","","","","","","","","","","",""
"null","null","fixation","html-keyboard-response","12","374639","0.0-1.0-3.0-3.0-0.0","16:17:21","5","","","","","","","fixation","","","","","","","","","","","","","","","","","","",""
"null","null","pic_response","html-keyboard-response","13","377649","0.0-1.0-3.0-3.0-1.0","16:17:21","5","","","","","","","<div>
            <img class='stim' src=""pictures/prac/1.jpg""></div><div class=""button_prompt"">
                    <b>请用数字键1-3回答</b>
                    </div>","","","","","","","","","","","","","","","","","","",""
"null","null","sub_response","html-keyboard-response","14","378659","0.0-1.0-3.0-3.0-2.0","16:17:21","5","","","","","","","<div style='text-align: center;'>
                            <span style=""color: red; font-size: 40px""><b>错误！+0 pts</b></span></div>
                            ","","learn","1","1","1","learn","0","0","[0, 1, 2]","0","0","setsize","99","prac","0","0","0","0",""
"null","null","fixation","html-keyboard-response","15","379175","0.0-1.0-3.0-3.0-0.1","16:17:21","5","","","","","","","fixation","","","","","","","","","","","","","","","","","","",""
"894","1","pic_response","html-keyboard-response","16","380070","0.0-1.0-3.0-3.0-1.1","16:17:21","5","","","","","","","<div>
            <img class='stim' src=""pictures/prac/0.jpg""></div><div class=""button_prompt"">
                    <b>请用数字键1-3回答</b>
                    </div>","","","","","","","","","","","","","","","","","","",""
"894","null","sub_response","html-keyboard-response","17","381076","0.0-1.0-3.0-3.0-2.1","16:17:21","5","","","","","","","<div style='text-align: center;'>
                            <span style=""color: green; font-size: 40px""><b>正确！+1 pts</b></span></div>
                            ","","learn","0","0","0","learn","0","0","[0, 1, 2]","1","0","setsize","99","prac","0","1","1","1",""
"null","null","fixation","html-keyboard-response","18","381592","0.0-1.0-3.0-3.0-0.2","16:17:21","5","","","","","","","fixation","","","","","","","","","","","","","","","","","","",""
"709","2","pic_response","html-keyboard-response","19","382302","0.0-1.0-3.0-3.0-1.2","16:17:21","5","","","","","","","<div>
            <img class='stim' src=""pictures/prac/2.jpg""></div><div class=""button_prompt"">
                    <b>请用数字键1-3回答</b>
                    </div>","","","","","","","","","","","","","","","","","","",""
"709","null","sub_response","html-keyboard-response","20","383305","0.0-1.0-3.0-3.0-2.2","16:17:21","5","","","","","","","<div style='text-align: center;'>
                            <span style=""color: red; font-size: 40px""><b>错误！+0 pts</b></span></div>
                            ","","learn","2","2","2","learn","2","2","[0, 1, 2]","2","0","setsize","99","prac","0","0","2","0",""
"null","null","fixation","html-keyboard-response","21","383821","0.0-1.0-3.0-3.0-0.3","16:17:21","5","","","","","","","fixation","","","","","","","","","","","","","","","","","","",""
"784","1","pic_response","html-keyboard-response","22","384606","0.0-1.0-3.0-3.0-1.3","16:17:21","5","","","","","","","<div>
            <img class='stim' src=""pictures/prac/0.jpg""></div><div class=""button_prompt"">
                    <b>请用数字键1-3回答</b>
                    </div>","","","","","","","","","","","","","","","","","","",""
"784","null","sub_response","html-keyboard-response","23","385612","0.0-1.0-3.0-3.0-2.3","16:17:21","5","","","","","","","<div style='text-align: center;'>
                            <span style=""color: green; font-size: 40px""><b>正确！+1 pts</b></span></div>
                            ","","learn","0","0","0","learn","0","0","[0, 1, 2]","3","1","setsize","99","prac","0","1","1","1",""
"null","null","fixation","html-keyboard-response","24","386129","0.0-1.0-3.0-3.0-0.4","16:17:21","5","","","","","","","fixation","","","","","","","","","","","","","","","","","","",""
"716","2","pic_response","html-keyboard-response","25","386846","0.0-1.0-3.0-3.0-1.4","16:17:21","5","","","","","","","<div>
            <img class='stim' src=""pictures/prac/1.jpg""></div><div class=""button_prompt"">
                    <b>请用数字键1-3回答</b>
                    </div>","","","","","","","","","","","","","","","","","","",""
"716","null","sub_response","html-keyboard-response","26","387862","0.0-1.0-3.0-3.0-2.4","16:17:21","5","","","","","","","<div style='text-align: center;'>
                            <span style=""color: red; font-size: 40px""><b>错误！+0 pts</b></span></div>
                            ","","learn","1","1","1","learn","0","0","[0, 1, 2]","4","1","setsize","99","prac","0","0","2","0",""
"null","null","fixation","html-keyboard-response","27","388378","0.0-1.0-3.0-3.0-0.5","16:17:21","5","","","","","","","fixation","","","","","","","","","","","","","","","","","","",""
"683","3","pic_response","html-keyboard-response","28","389062","0.0-1.0-3.0-3.0-1.5","16:17:21","5","","","","","","","<div>
            <img class='stim' src=""pictures/prac/2.jpg""></div><div class=""button_prompt"">
                    <b>请用数字键1-3回答</b>
                    </div>","","","","","","","","","","","","","","","","","","",""
"683","null","sub_response","html-keyboard-response","29","390071","0.0-1.0-3.0-3.0-2.5","16:17:21","5","","","","","","","<div style='text-align: center;'>
                            <span style=""color: green; font-size: 40px""><b>正确！+1 pts</b></span></div>
                            ","","learn","2","2","2","learn","2","2","[0, 1, 2]","5","1","setsize","99","prac","0","1","3","1",""
"","","","preload","30","390079","0.0-1.0-3.1-0.1","16:17:21","5","true","false","[]","[]","[]","","","","","","","","","","","","","","","","","","","","",""
"1990"," ","","html-keyboard-response","31","392070","0.0-1.0-3.1-1.1","16:17:21","5","","","","","","","<div style='font-size: 32px; text-align: center;'
                    <p>请学习图片和数字之间的对应关系</p>
                    <p>我们将<span style='color: blue'><b> 告诉 </b></span>您选择的对错。请根据反馈学习。</p>
                    <p>请按""空格""继续实验。</p></div>","","","","","","","","","","","","","","","","","","",""
"3567"," ","inst","html-keyboard-response","32","395638","0.0-1.0-3.1-2.1","16:17:21","5","","","","","","","<img class='instruct_stim' src=""instruction/prac3.png""></div>","","","","","","","","","","","","","","","","","","",""
"null","null","fixation","html-keyboard-response","33","396154","0.0-1.0-3.1-3.1-0.6","16:17:21","5","","","","","","","fixation","","","","","","","","","","","","","","","","","","",""
"394","1","pic_response","html-keyboard-response","34","396550","0.0-1.0-3.1-3.1-1.6","16:17:21","5","","","","","","","<div>
            <img class='stim' src=""pictures/prac/1.jpg""></div><div class=""button_prompt"">
                    <b>请用数字键1-3回答</b>
                    </div>","","","","","","","","","","","","","","","","","","",""
"394","null","sub_response","html-keyboard-response","35","397555","0.0-1.0-3.1-3.1-2.6","16:17:21","5","","","","","","","<div style='text-align: center;'>
                            <span style=""color: green; font-size: 40px""><b>正确！+1 pts</b></span></div>
                            ","","learn","1","1","1","learn","0","0","[0, 1, 2]","0","0","setsize","99","prac","0","2","1","1",""
"null","null","fixation","html-keyboard-response","36","398071","0.0-1.0-3.1-3.1-0.7","16:17:21","5","","","","","","","fixation","","","","","","","","","","","","","","","","","","",""
"605","3","pic_response","html-keyboard-response","37","398678","0.0-1.0-3.1-3.1-1.7","16:17:21","5","","","","","","","<div>
            <img class='stim' src=""pictures/prac/0.jpg""></div><div class=""button_prompt"">
                    <b>请用数字键1-3回答</b>
                    </div>","","","","","","","","","","","","","","","","","","",""
"605","null","sub_response","html-keyboard-response","38","399696","0.0-1.0-3.1-3.1-2.7","16:17:21","5","","","","","","","<div style='text-align: center;'>
                            <span style=""color: red; font-size: 40px""><b>错误！+0 pts</b></span></div>
                            ","","learn","0","0","0","learn","0","0","[0, 1, 2]","1","0","setsize","99","prac","0","0","3","0",""
"null","null","fixation","html-keyboard-response","39","400212","0.0-1.0-3.1-3.1-0.8","16:17:21","5","","","","","","","fixation","","","","","","","","","","","","","","","","","","",""
"568","3","pic_response","html-keyboard-response","40","400782","0.0-1.0-3.1-3.1-1.8","16:17:21","5","","","","","","","<div>
            <img class='stim' src=""pictures/prac/2.jpg""></div><div class=""button_prompt"">
                    <b>请用数字键1-3回答</b>
                    </div>","","","","","","","","","","","","","","","","","","",""
"568","null","sub_response","html-keyboard-response","41","401791","0.0-1.0-3.1-3.1-2.8","16:17:21","5","","","","","","","<div style='text-align: center;'>
                            <span style=""color: green; font-size: 40px""><b>正确！+1 pts</b></span></div>
                            ","","learn","2","2","2","learn","2","2","[0, 1, 2]","2","0","setsize","99","prac","0","1","3","1",""
"null","null","fixation","html-keyboard-response","42","402300","0.0-1.0-3.1-3.1-0.9","16:17:21","5","","","","","","","fixation","","","","","","","","","","","","","","","","","","",""
"785","3","pic_response","html-keyboard-response","43","403086","0.0-1.0-3.1-3.1-1.9","16:17:21","5","","","","","","","<div>
            <img class='stim' src=""pictures/prac/0.jpg""></div><div class=""button_prompt"">
                    <b>请用数字键1-3回答</b>
                    </div>","","","","","","","","","","","","","","","","","","",""
"785","null","sub_response","html-keyboard-response","44","404092","0.0-1.0-3.1-3.1-2.9","16:17:21","5","","","","","","","<div style='text-align: center;'>
                            <span style=""color: red; font-size: 40px""><b>错误！+0 pts</b></span></div>
                            ","","learn","0","0","0","learn","0","0","[0, 1, 2]","3","1","setsize","99","prac","0","0","3","0",""
"null","null","fixation","html-keyboard-response","45","404597","0.0-1.0-3.1-3.1-0.10","16:17:21","5","","","","","","","fixation","","","","","","","","","","","","","","","","","","",""
"728","1","pic_response","html-keyboard-response","46","405326","0.0-1.0-3.1-3.1-1.10","16:17:21","5","","","","","","","<div>
            <img class='stim' src=""pictures/prac/1.jpg""></div><div class=""button_prompt"">
                    <b>请用数字键1-3回答</b>
                    </div>","","","","","","","","","","","","","","","","","","",""
"728","null","sub_response","html-keyboard-response","47","406341","0.0-1.0-3.1-3.1-2.10","16:17:21","5","","","","","","","<div style='text-align: center;'>
                            <span style=""color: green; font-size: 40px""><b>正确！+1 pts</b></span></div>
                            ","","learn","1","1","1","learn","0","0","[0, 1, 2]","4","1","setsize","99","prac","0","1","1","1",""
"null","null","fixation","html-keyboard-response","48","406855","0.0-1.0-3.1-3.1-0.11","16:17:21","5","","","","","","","fixation","","","","","","","","","","","","","","","","","","",""
"870","2","pic_response","html-keyboard-response","49","407726","0.0-1.0-3.1-3.1-1.11","16:17:21","5","","","","","","","<div>
            <img class='stim' src=""pictures/prac/2.jpg""></div><div class=""button_prompt"">
                    <b>请用数字键1-3回答</b>
                    </div>","","","","","","","","","","","","","","","","","","",""
"870","null","sub_response","html-keyboard-response","50","408738","0.0-1.0-3.1-3.1-2.11","16:17:21","5","","","","","","","<div style='text-align: center;'>
                            <span style=""color: red; font-size: 40px""><b>错误！+0 pts</b></span></div>
                            ","","learn","2","2","2","learn","2","2","[0, 1, 2]","5","1","setsize","99","prac","0","0","2","0",""
"","","","preload","51","408743","0.0-1.0-3.2-0.2","16:17:21","5","true","false","[]","[]","[]","","","","","","","","","","","","","","","","","","","","",""
"2343"," ","","html-keyboard-response","52","411086","0.0-1.0-3.2-1.2","16:17:21","5","","","","","","","<div style='font-size: 32px; text-align: center;'
                    <p>请学习图片和数字之间的对应关系</p>
                    <p>我们将<span style='color: blue'><b> 告诉 </b></span>您选择的对错。请根据反馈学习。</p>
                    <p>请按""空格""继续实验。</p></div>","","","","","","","","","","","","","","","","","","",""
"3791"," ","inst","html-keyboard-response","53","414878","0.0-1.0-3.2-2.2","16:17:21","5","","","","","","","<img class='instruct_stim' src=""instruction/prac3.png""></div>","","","","","","","","","","","","","","","","","","",""
"null","null","fixation","html-keyboard-response","54","415383","0.0-1.0-3.2-3.2-0.12","16:17:21","5","","","","","","","fixation","","","","","","","","","","","","","","","","","","",""
"382","1","pic_response","html-keyboard-response","55","415766","0.0-1.0-3.2-3.2-1.12","16:17:21","5","","","","","","","<div>
            <img class='stim' src=""pictures/prac/1.jpg""></div><div class=""button_prompt"">
                    <b>请用数字键1-3回答</b>
                    </div>","","","","","","","","","","","","","","","","","","",""
"382","null","sub_response","html-keyboard-response","56","416779","0.0-1.0-3.2-3.2-2.12","16:17:21","5","","","","","","","<div style='text-align: center;'>
                            <span style=""color: green; font-size: 40px""><b>正确！+1 pts</b></span></div>
                            ","","learn","1","1","1","learn","0","0","[0, 1, 2]","0","0","setsize","99","prac","0","1","1","1",""
"null","null","fixation","html-keyboard-response","57","417295","0.0-1.0-3.2-3.2-0.13","16:17:21","5","","","","","","","fixation","","","","","","","","","","","","","","","","","","",""
"790","3","pic_response","html-keyboard-response","58","418086","0.0-1.0-3.2-3.2-1.13","16:17:21","5","","","","","","","<div>
            <img class='stim' src=""pictures/prac/0.jpg""></div><div class=""button_prompt"">
                    <b>请用数字键1-3回答</b>
                    </div>","","","","","","","","","","","","","","","","","","",""
"790","null","sub_response","html-keyboard-response","59","419092","0.0-1.0-3.2-3.2-2.13","16:17:21","5","","","","","","","<div style='text-align: center;'>
                            <span style=""color: red; font-size: 40px""><b>错误！+0 pts</b></span></div>
                            ","","learn","0","0","0","learn","0","0","[0, 1, 2]","1","0","setsize","99","prac","0","0","3","0",""
"null","null","fixation","html-keyboard-response","60","419607","0.0-1.0-3.2-3.2-0.14","16:17:21","5","","","","","","","fixation","","","","","","","","","","","","","","","","","","",""
"1198","3","pic_response","html-keyboard-response","61","420806","0.0-1.0-3.2-3.2-1.14","16:17:21","5","","","","","","","<div>
            <img class='stim' src=""pictures/prac/2.jpg""></div><div class=""button_prompt"">
                    <b>请用数字键1-3回答</b>
                    </div>","","","","","","","","","","","","","","","","","","",""
"1198","null","sub_response","html-keyboard-response","62","421821","0.0-1.0-3.2-3.2-2.14","16:17:21","5","","","","","","","<div style='text-align: center;'>
                            <span style=""color: green; font-size: 40px""><b>正确！+1 pts</b></span></div>
                            ","","learn","2","2","2","learn","2","2","[0, 1, 2]","2","0","setsize","99","prac","0","1","3","1",""
"null","null","fixation","html-keyboard-response","63","422338","0.0-1.0-3.2-3.2-0.15","16:17:21","5","","","","","","","fixation","","","","","","","","","","","","","","","","","","",""
"467","2","pic_response","html-keyboard-response","64","422806","0.0-1.0-3.2-3.2-1.15","16:17:21","5","","","","","","","<div>
            <img class='stim' src=""pictures/prac/0.jpg""></div><div class=""button_prompt"">
                    <b>请用数字键1-3回答</b>
                    </div>","","","","","","","","","","","","","","","","","","",""
"467","null","sub_response","html-keyboard-response","65","423821","0.0-1.0-3.2-3.2-2.15","16:17:21","5","","","","","","","<div style='text-align: center;'>
                            <span style=""color: red; font-size: 40px""><b>错误！+0 pts</b></span></div>
                            ","","learn","0","0","0","learn","0","0","[0, 1, 2]","3","1","setsize","99","prac","0","0","2","0",""
"null","null","fixation","html-keyboard-response","66","424336","0.0-1.0-3.2-3.2-0.16","16:17:21","5","","","","","","","fixation","","","","","","","","","","","","","","","","","","",""
"549","1","pic_response","html-keyboard-response","67","424886","0.0-1.0-3.2-3.2-1.16","16:17:21","5","","","","","","","<div>
            <img class='stim' src=""pictures/prac/1.jpg""></div><div class=""button_prompt"">
                    <b>请用数字键1-3回答</b>
                    </div>","","","","","","","","","","","","","","","","","","",""
"549","null","sub_response","html-keyboard-response","68","425888","0.0-1.0-3.2-3.2-2.16","16:17:21","5","","","","","","","<div style='text-align: center;'>
                            <span style=""color: green; font-size: 40px""><b>正确！+1 pts</b></span></div>
                            ","","learn","1","1","1","learn","0","0","[0, 1, 2]","4","1","setsize","99","prac","0","1","1","1",""
"null","null","fixation","html-keyboard-response","69","426390","0.0-1.0-3.2-3.2-0.17","16:17:21","5","","","","","","","fixation","","","","","","","","","","","","","","","","","","",""
"479","3","pic_response","html-keyboard-response","70","426870","0.0-1.0-3.2-3.2-1.17","16:17:21","5","","","","","","","<div>
            <img class='stim' src=""pictures/prac/2.jpg""></div><div class=""button_prompt"">
                    <b>请用数字键1-3回答</b>
                    </div>","","","","","","","","","","","","","","","","","","",""
"479","null","sub_response","html-keyboard-response","71","427883","0.0-1.0-3.2-3.2-2.17","16:17:21","5","","","","","","","<div style='text-align: center;'>
                            <span style=""color: green; font-size: 40px""><b>正确！+1 pts</b></span></div>
                            ","","learn","2","2","2","learn","2","2","[0, 1, 2]","5","1","setsize","99","prac","0","2","3","1",""
"","","","preload","72","427888","0.0-1.0-3.3-0.3","16:17:21","5","true","false","[]","[]","[]","","","","","","","","","","","","","","","","","","","","",""
"3326"," ","","html-keyboard-response","73","431214","0.0-1.0-3.3-1.3","16:17:21","5","","","","","","","<div style='font-size: 32px; text-align: center;'
                    <p>请学习图片和数字之间的对应关系</p>
                    <p>我们将<span style='color: blue'><b> 告诉 </b></span>您选择的对错。请根据反馈学习。</p>
                    <p>请按""空格""继续实验。</p></div>","","","","","","","","","","","","","","","","","","",""
"12095"," ","inst","html-keyboard-response","74","443306","0.0-1.0-3.3-2.3","16:17:21","5","","","","","","","<img class='instruct_stim' src=""instruction/prac3.png""></div>","","","","","","","","","","","","","","","","","","",""
"null","null","fixation","html-keyboard-response","75","443817","0.0-1.0-3.3-3.3-0.18","16:17:21","5","","","","","","","fixation","","","","","","","","","","","","","","","","","","",""
"600","1","pic_response","html-keyboard-response","76","444418","0.0-1.0-3.3-3.3-1.18","16:17:21","5","","","","","","","<div>
            <img class='stim' src=""pictures/prac/1.jpg""></div><div class=""button_prompt"">
                    <b>请用数字键1-3回答</b>
                    </div>","","","","","","","","","","","","","","","","","","",""
"600","null","sub_response","html-keyboard-response","77","445422","0.0-1.0-3.3-3.3-2.18","16:17:21","5","","","","","","","<div style='text-align: center;'>
                            <span style=""color: green; font-size: 40px""><b>正确！+1 pts</b></span></div>
                            ","","learn","1","1","1","learn","0","0","[0, 1, 2]","0","0","setsize","99","prac","0","3","1","1",""
"null","null","fixation","html-keyboard-response","78","445937","0.0-1.0-3.3-3.3-0.19","16:17:21","5","","","","","","","fixation","","","","","","","","","","","","","","","","","","",""
"431","2","pic_response","html-keyboard-response","79","446369","0.0-1.0-3.3-3.3-1.19","16:17:21","5","","","","","","","<div>
            <img class='stim' src=""pictures/prac/0.jpg""></div><div class=""button_prompt"">
                    <b>请用数字键1-3回答</b>
                    </div>","","","","","","","","","","","","","","","","","","",""
"431","null","sub_response","html-keyboard-response","80","447379","0.0-1.0-3.3-3.3-2.19","16:17:21","5","","","","","","","<div style='text-align: center;'>
                            <span style=""color: red; font-size: 40px""><b>错误！+0 pts</b></span></div>
                            ","","learn","0","0","0","learn","0","0","[0, 1, 2]","1","0","setsize","99","prac","0","0","2","0",""
"null","null","fixation","html-keyboard-response","81","447894","0.0-1.0-3.3-3.3-0.20","16:17:21","5","","","","","","","fixation","","","","","","","","","","","","","","","","","","",""
"658","2","pic_response","html-keyboard-response","82","448553","0.0-1.0-3.3-3.3-1.20","16:17:21","5","","","","","","","<div>
            <img class='stim' src=""pictures/prac/2.jpg""></div><div class=""button_prompt"">
                    <b>请用数字键1-3回答</b>
                    </div>","","","","","","","","","","","","","","","","","","",""
"658","null","sub_response","html-keyboard-response","83","449567","0.0-1.0-3.3-3.3-2.20","16:17:21","5","","","","","","","<div style='text-align: center;'>
                            <span style=""color: red; font-size: 40px""><b>错误！+0 pts</b></span></div>
                            ","","learn","2","2","2","learn","2","2","[0, 1, 2]","2","0","setsize","99","prac","0","0","2","0",""
"null","null","fixation","html-keyboard-response","84","450082","0.0-1.0-3.3-3.3-0.21","16:17:21","5","","","","","","","fixation","","","","","","","","","","","","","","","","","","",""
"398","3","pic_response","html-keyboard-response","85","450481","0.0-1.0-3.3-3.3-1.21","16:17:21","5","","","","","","","<div>
            <img class='stim' src=""pictures/prac/0.jpg""></div><div class=""button_prompt"">
                    <b>请用数字键1-3回答</b>
                    </div>","","","","","","","","","","","","","","","","","","",""
"398","null","sub_response","html-keyboard-response","86","451484","0.0-1.0-3.3-3.3-2.21","16:17:21","5","","","","","","","<div style='text-align: center;'>
                            <span style=""color: red; font-size: 40px""><b>错误！+0 pts</b></span></div>
                            ","","learn","0","0","0","learn","0","0","[0, 1, 2]","3","1","setsize","99","prac","0","0","3","0",""
"null","null","fixation","html-keyboard-response","87","451988","0.0-1.0-3.3-3.3-0.22","16:17:21","5","","","","","","","fixation","","","","","","","","","","","","","","","","","","",""
"396","3","pic_response","html-keyboard-response","88","452385","0.0-1.0-3.3-3.3-1.22","16:17:21","5","","","","","","","<div>
            <img class='stim' src=""pictures/prac/1.jpg""></div><div class=""button_prompt"">
                    <b>请用数字键1-3回答</b>
                    </div>","","","","","","","","","","","","","","","","","","",""
"396","null","sub_response","html-keyboard-response","89","453400","0.0-1.0-3.3-3.3-2.22","16:17:21","5","","","","","","","<div style='text-align: center;'>
                            <span style=""color: red; font-size: 40px""><b>错误！+0 pts</b></span></div>
                            ","","learn","1","1","1","learn","0","0","[0, 1, 2]","4","1","setsize","99","prac","0","0","3","0",""
"null","null","fixation","html-keyboard-response","90","453915","0.0-1.0-3.3-3.3-0.23","16:17:21","5","","","","","","","fixation","","","","","","","","","","","","","","","","","","",""
"301","3","pic_response","html-keyboard-response","91","454218","0.0-1.0-3.3-3.3-1.23","16:17:21","5","","","","","","","<div>
            <img class='stim' src=""pictures/prac/2.jpg""></div><div class=""button_prompt"">
                    <b>请用数字键1-3回答</b>
                    </div>","","","","","","","","","","","","","","","","","","",""
"301","null","sub_response","html-keyboard-response","92","455234","0.0-1.0-3.3-3.3-2.23","16:17:21","5","","","","","","","<div style='text-align: center;'>
                            <span style=""color: green; font-size: 40px""><b>正确！+1 pts</b></span></div>
                            ","","learn","2","2","2","learn","2","2","[0, 1, 2]","5","1","setsize","99","prac","0","1","3","1",""
"","","","preload","93","455238","0.0-1.0-3.4-0.4","16:17:21","5","true","false","[]","[]","[]","","","","","","","","","","","","","","","","","","","","",""
"538"," ","","html-keyboard-response","94","455777","0.0-1.0-3.4-1.4","16:17:21","5","","","","","","","<div style='font-size: 32px; text-align: center;'
                    <p>请学习图片和数字之间的对应关系</p>
                    <p>我们将<span style='color: blue'><b> 告诉 </b></span>您选择的对错。请根据反馈学习。</p>
                    <p>请按""空格""继续实验。</p></div>","","","","","","","","","","","","","","","","","","",""
"504"," ","inst","html-keyboard-response","95","456281","0.0-1.0-3.4-2.4","16:17:21","5","","","","","","","<img class='instruct_stim' src=""instruction/prac3.png""></div>","","","","","","","","","","","","","","","","","","",""
"null","null","fixation","html-keyboard-response","96","456796","0.0-1.0-3.4-3.4-0.24","16:17:21","5","","","","","","","fixation","","","","","","","","","","","","","","","","","","",""
"380","1","pic_response","html-keyboard-response","97","457178","0.0-1.0-3.4-3.4-1.24","16:17:21","5","","","","","","","<div>
            <img class='stim' src=""pictures/prac/1.jpg""></div><div class=""button_prompt"">
                    <b>请用数字键1-3回答</b>
                    </div>","","","","","","","","","","","","","","","","","","",""
"380","null","sub_response","html-keyboard-response","98","458191","0.0-1.0-3.4-3.4-2.24","16:17:21","5","","","","","","","<div style='text-align: center;'>
                            <span style=""color: green; font-size: 40px""><b>正确！+1 pts</b></span></div>
                            ","","learn","1","1","1","learn","0","0","[0, 1, 2]","0","0","setsize","99","prac","0","2","1","1",""
"null","null","fixation","html-keyboard-response","99","458707","0.0-1.0-3.4-3.4-0.25","16:17:21","5","","","","","","","fixation","","","","","","","","","","","","","","","","","","",""
"453","1","pic_response","html-keyboard-response","100","459161","0.0-1.0-3.4-3.4-1.25","16:17:21","5","","","","","","","<div>
            <img class='stim' src=""pictures/prac/0.jpg""></div><div class=""button_prompt"">
                    <b>请用数字键1-3回答</b>
                    </div>","","","","","","","","","","","","","","","","","","",""
"453","null","sub_response","html-keyboard-response","101","460171","0.0-1.0-3.4-3.4-2.25","16:17:21","5","","","","","","","<div style='text-align: center;'>
                            <span style=""color: green; font-size: 40px""><b>正确！+1 pts</b></span></div>
                            ","","learn","0","0","0","learn","0","0","[0, 1, 2]","1","0","setsize","99","prac","0","3","1","1",""
"null","null","fixation","html-keyboard-response","102","460686","0.0-1.0-3.4-3.4-0.26","16:17:21","5","","","","","","","fixation","","","","","","","","","","","","","","","","","","",""
"714","3","pic_response","html-keyboard-response","103","461402","0.0-1.0-3.4-3.4-1.26","16:17:21","5","","","","","","","<div>
            <img class='stim' src=""pictures/prac/2.jpg""></div><div class=""button_prompt"">
                    <b>请用数字键1-3回答</b>
                    </div>","","","","","","","","","","","","","","","","","","",""
"714","null","sub_response","html-keyboard-response","104","462413","0.0-1.0-3.4-3.4-2.26","16:17:21","5","","","","","","","<div style='text-align: center;'>
                            <span style=""color: green; font-size: 40px""><b>正确！+1 pts</b></span></div>
                            ","","learn","2","2","2","learn","2","2","[0, 1, 2]","2","0","setsize","99","prac","0","4","3","1",""
"null","null","fixation","html-keyboard-response","105","462921","0.0-1.0-3.4-3.4-0.27","16:17:21","5","","","","","","","fixation","","","","","","","","","","","","","","","","","","",""
"719","3","pic_response","html-keyboard-response","106","463641","0.0-1.0-3.4-3.4-1.27","16:17:21","5","","","","","","","<div>
            <img class='stim' src=""pictures/prac/0.jpg""></div><div class=""button_prompt"">
                    <b>请用数字键1-3回答</b>
                    </div>","","","","","","","","","","","","","","","","","","",""
"719","null","sub_response","html-keyboard-response","107","464649","0.0-1.0-3.4-3.4-2.27","16:17:21","5","","","","","","","<div style='text-align: center;'>
                            <span style=""color: red; font-size: 40px""><b>错误！+0 pts</b></span></div>
                            ","","learn","0","0","0","learn","0","0","[0, 1, 2]","3","1","setsize","99","prac","0","0","3","0",""
"null","null","fixation","html-keyboard-response","108","465165","0.0-1.0-3.4-3.4-0.28","16:17:21","5","","","","","","","fixation","","","","","","","","","","","","","","","","","","",""
"275","1","pic_response","html-keyboard-response","109","465442","0.0-1.0-3.4-3.4-1.28","16:17:21","5","","","","","","","<div>
            <img class='stim' src=""pictures/prac/1.jpg""></div><div class=""button_prompt"">
                    <b>请用数字键1-3回答</b>
                    </div>","","","","","","","","","","","","","","","","","","",""
"275","null","sub_response","html-keyboard-response","110","466447","0.0-1.0-3.4-3.4-2.28","16:17:21","5","","","","","","","<div style='text-align: center;'>
                            <span style=""color: green; font-size: 40px""><b>正确！+1 pts</b></span></div>
                            ","","learn","1","1","1","learn","0","0","[0, 1, 2]","4","1","setsize","99","prac","0","1","1","1",""
"null","null","fixation","html-keyboard-response","111","466961","0.0-1.0-3.4-3.4-0.29","16:17:21","5","","","","","","","fixation","","","","","","","","","","","","","","","","","","",""
"912","3","pic_response","html-keyboard-response","112","467873","0.0-1.0-3.4-3.4-1.29","16:17:21","5","","","","","","","<div>
            <img class='stim' src=""pictures/prac/2.jpg""></div><div class=""button_prompt"">
                    <b>请用数字键1-3回答</b>
                    </div>","","","","","","","","","","","","","","","","","","",""
"912","null","sub_response","html-keyboard-response","113","468879","0.0-1.0-3.4-3.4-2.29","16:17:21","5","","","","","","","<div style='text-align: center;'>
                            <span style=""color: green; font-size: 40px""><b>正确！+1 pts</b></span></div>
                            ","","learn","2","2","2","learn","2","2","[0, 1, 2]","5","1","setsize","99","prac","0","2","3","1",""
"null","null","","html-keyboard-response","114","528891","0.0-1.0-4.0","16:17:21","5","","","","","","","<div style=""font-size: 25px""><p>距下一个实验开始还有</p><div style=""font-size: 50px; color: blue""><p><span id=""clock"">1:00</span></div></p><p>按""空格""跳过休息</p></div>","","","","","","","","","","","","","","","","","","",""
"771"," ","","html-keyboard-response","115","529664","0.0-1.0-5.0","16:17:21","5","","","","","","","<div style='font-size: 32px; text-align: center;'
                    <p>请按""空格""继续正式实验。</p></div>","","","","","","","","","","","","","","","","","","",""
"","","","preload","116","529690","0.0-1.0-6.0-0.0","16:17:21","5","true","false","[]","[]","[]","","","","","","","","","","","","","","","","","","","","",""
"1846"," ","","html-keyboard-response","117","531536","0.0-1.0-6.0-1.0","16:17:21","5","","","","","","","<div style='font-size: 32px; text-align: center;'
                    <p>请学习图片和数字之间的对应关系</p>
                    <p>我们将<span style='color: blue'><b> 告诉 </b></span>您选择的对错。请根据反馈学习。</p>
                    <p>请按""空格""继续实验。</p></div>","","","","","","","","","","","","","","","","","","",""
"110975"," ","inst","html-keyboard-response","118","642512","0.0-1.0-6.0-2.0","16:17:21","5","","","","","","","<img class='instruct_stim' src=""instruction/sports8.png""></div>","","","","","","","","","","","","","","","","","","",""
"null","null","fixation","html-keyboard-response","119","643026","0.0-1.0-6.0-3.0-0.0","16:17:21","5","","","","","","","fixation","","","","","","","","","","","","","","","","","","",""
"2590","2","pic_response","html-keyboard-response","120","645616","0.0-1.0-6.0-3.0-1.0","16:17:21","5","","","","","","","<div>
            <img class='stim' src=""pictures/sports/0.jpg""></div><div class=""button_prompt"">
                    <b>请用数字键1-3回答</b>
                    </div>","","","","","","","","","","","","","","","","","","",""
"2590","null","sub_response","html-keyboard-response","121","646620","0.0-1.0-6.0-3.0-2.0","16:17:21","5","","","","","","","<div style='text-align: center;'>
                            <span style=""color: red; font-size: 40px""><b>错误！+0 pts</b></span></div>
                            ","","learn","0","0","0","learn","0","0","[0, 1, 2]","0","0","setsize","8S3A","sports","1","0","2","0",""
"null","null","fixation","html-keyboard-response","122","647136","0.0-1.0-6.0-3.0-0.1","16:17:21","5","","","","","","","fixation","","","","","","","","","","","","","","","","","","",""
"null","null","pic_response","html-keyboard-response","123","650141","0.0-1.0-6.0-3.0-1.1","16:17:21","5","","","","","","","<div>
            <img class='stim' src=""pictures/sports/6.jpg""></div><div class=""button_prompt"">
                    <b>请用数字键1-3回答</b>
                    </div>","","","","","","","","","","","","","","","","","","",""
"null","null","sub_response","html-keyboard-response","124","651157","0.0-1.0-6.0-3.0-2.1","16:17:21","5","","","","","","","<div style='text-align: center;'>
                            <span style=""color: red; font-size: 40px""><b>错误！+0 pts</b></span></div>
                            ","","learn","6","6","6","learn","2","2","[0, 1, 2]","1","0","setsize","8S3A","sports","1","0","0","0",""
"null","null","fixation","html-keyboard-response","125","651673","0.0-1.0-6.0-3.0-0.2","16:17:21","5","","","","","","","fixation","","","","","","","","","","","","","","","","","","",""
"2390","1","pic_response","html-keyboard-response","126","654064","0.0-1.0-6.0-3.0-1.2","16:17:21","5","","","","","","","<div>
            <img class='stim' src=""pictures/sports/5.jpg""></div><div class=""button_prompt"">
                    <b>请用数字键1-3回答</b>
                    </div>","","","","","","","","","","","","","","","","","","",""
"2390","null","sub_response","html-keyboard-response","127","655073","0.0-1.0-6.0-3.0-2.2","16:17:21","5","","","","","","","<div style='text-align: center;'>
                            <span style=""color: red; font-size: 40px""><b>错误！+0 pts</b></span></div>
                            ","","learn","5","5","5","learn","1","1","[0, 1, 2]","2","0","setsize","8S3A","sports","1","0","1","0",""
"null","null","fixation","html-keyboard-response","128","655584","0.0-1.0-6.0-3.0-0.3","16:17:21","5","","","","","","","fixation","","","","","","","","","","","","","","","","","","",""
"1223","1","pic_response","html-keyboard-response","129","656808","0.0-1.0-6.0-3.0-1.3","16:17:21","5","","","","","","","<div>
            <img class='stim' src=""pictures/sports/2.jpg""></div><div class=""button_prompt"">
                    <b>请用数字键1-3回答</b>
                    </div>","","","","","","","","","","","","","","","","","","",""
"1223","null","sub_response","html-keyboard-response","130","657810","0.0-1.0-6.0-3.0-2.3","16:17:21","5","","","","","","","<div style='text-align: center;'>
                            <span style=""color: green; font-size: 40px""><b>正确！+1 pts</b></span></div>
                            ","","learn","2","2","2","learn","0","0","[0, 1, 2]","3","0","setsize","8S3A","sports","1","1","1","1",""
"null","null","fixation","html-keyboard-response","131","658324","0.0-1.0-6.0-3.0-0.4","16:17:21","5","","","","","","","fixation","","","","","","","","","","","","","","","","","","",""
"891","1","pic_response","html-keyboard-response","132","659216","0.0-1.0-6.0-3.0-1.4","16:17:21","5","","","","","","","<div>
            <img class='stim' src=""pictures/sports/3.jpg""></div><div class=""button_prompt"">
                    <b>请用数字键1-3回答</b>
                    </div>","","","","","","","","","","","","","","","","","","",""
"891","null","sub_response","html-keyboard-response","133","660219","0.0-1.0-6.0-3.0-2.4","16:17:21","5","","","","","","","<div style='text-align: center;'>
                            <span style=""color: red; font-size: 40px""><b>错误！+0 pts</b></span></div>
                            ","","learn","3","3","3","learn","1","1","[0, 1, 2]","4","0","setsize","8S3A","sports","1","0","1","0",""
"null","null","fixation","html-keyboard-response","134","660720","0.0-1.0-6.0-3.0-0.5","16:17:21","5","","","","","","","fixation","","","","","","","","","","","","","","","","","","",""
"1455","1","pic_response","html-keyboard-response","135","662176","0.0-1.0-6.0-3.0-1.5","16:17:21","5","","","","","","","<div>
            <img class='stim' src=""pictures/sports/4.jpg""></div><div class=""button_prompt"">
                    <b>请用数字键1-3回答</b>
                    </div>","","","","","","","","","","","","","","","","","","",""
"1455","null","sub_response","html-keyboard-response","136","663186","0.0-1.0-6.0-3.0-2.5","16:17:21","5","","","","","","","<div style='text-align: center;'>
                            <span style=""color: red; font-size: 40px""><b>错误！+0 pts</b></span></div>
                            ","","learn","4","4","4","learn","1","1","[0, 1, 2]","5","0","setsize","8S3A","sports","1","0","1","0",""
"null","null","fixation","html-keyboard-response","137","663699","0.0-1.0-6.0-3.0-0.6","16:17:21","5","","","","","","","fixation","","","","","","","","","","","","","","","","","","",""
"885","1","pic_response","html-keyboard-response","138","664584","0.0-1.0-6.0-3.0-1.6","16:17:21","5","","","","","","","<div>
            <img class='stim' src=""pictures/sports/7.jpg""></div><div class=""button_prompt"">
                    <b>请用数字键1-3回答</b>
                    </div>","","","","","","","","","","","","","","","","","","",""
"885","null","sub_response","html-keyboard-response","139","665595","0.0-1.0-6.0-3.0-2.6","16:17:21","5","","","","","","","<div style='text-align: center;'>
                            <span style=""color: red; font-size: 40px""><b>错误！+0 pts</b></span></div>
                            ","","learn","7","7","7","learn","2","2","[0, 1, 2]","6","0","setsize","8S3A","sports","1","0","1","0",""
"null","null","fixation","html-keyboard-response","140","666111","0.0-1.0-6.0-3.0-0.7","16:17:21","5","","","","","","","fixation","","","","","","","","","","","","","","","","","","",""
"1240","1","pic_response","html-keyboard-response","141","667352","0.0-1.0-6.0-3.0-1.7","16:17:21","5","","","","","","","<div>
            <img class='stim' src=""pictures/sports/1.jpg""></div><div class=""button_prompt"">
                    <b>请用数字键1-3回答</b>
                    </div>","","","","","","","","","","","","","","","","","","",""
"1240","null","sub_response","html-keyboard-response","142","668365","0.0-1.0-6.0-3.0-2.7","16:17:21","5","","","","","","","<div style='text-align: center;'>
                            <span style=""color: green; font-size: 40px""><b>正确！+1 pts</b></span></div>
                            ","","learn","1","1","1","learn","0","0","[0, 1, 2]","7","0","setsize","8S3A","sports","1","1","1","1",""
"null","null","fixation","html-keyboard-response","143","668876","0.0-1.0-6.0-3.0-0.8","16:17:21","5","","","","","","","fixation","","","","","","","","","","","","","","","","","","",""
"987","2","pic_response","html-keyboard-response","144","669864","0.0-1.0-6.0-3.0-1.8","16:17:21","5","","","","","","","<div>
            <img class='stim' src=""pictures/sports/6.jpg""></div><div class=""button_prompt"">
                    <b>请用数字键1-3回答</b>
                    </div>","","","","","","","","","","","","","","","","","","",""
"987","null","sub_response","html-keyboard-response","145","670881","0.0-1.0-6.0-3.0-2.8","16:17:21","5","","","","","","","<div style='text-align: center;'>
                            <span style=""color: red; font-size: 40px""><b>错误！+0 pts</b></span></div>
                            ","","learn","6","6","6","learn","2","2","[0, 1, 2]","8","1","setsize","8S3A","sports","1","0","2","0",""
"null","null","fixation","html-keyboard-response","146","671386","0.0-1.0-6.0-3.0-0.9","16:17:21","5","","","","","","","fixation","","","","","","","","","","","","","","","","","","",""
"1389","2","pic_response","html-keyboard-response","147","672776","0.0-1.0-6.0-3.0-1.9","16:17:21","5","","","","","","","<div>
            <img class='stim' src=""pictures/sports/5.jpg""></div><div class=""button_prompt"">
                    <b>请用数字键1-3回答</b>
                    </div>","","","","","","","","","","","","","","","","","","",""
"1389","null","sub_response","html-keyboard-response","148","673783","0.0-1.0-6.0-3.0-2.9","16:17:21","5","","","","","","","<div style='text-align: center;'>
                            <span style=""color: green; font-size: 40px""><b>正确！+1 pts</b></span></div>
                            ","","learn","5","5","5","learn","1","1","[0, 1, 2]","9","1","setsize","8S3A","sports","1","1","2","1",""
"null","null","fixation","html-keyboard-response","149","674288","0.0-1.0-6.0-3.0-0.10","16:17:21","5","","","","","","","fixation","","","","","","","","","","","","","","","","","","",""
"791","2","pic_response","html-keyboard-response","150","675080","0.0-1.0-6.0-3.0-1.10","16:17:21","5","","","","","","","<div>
            <img class='stim' src=""pictures/sports/0.jpg""></div><div class=""button_prompt"">
                    <b>请用数字键1-3回答</b>
                    </div>","","","","","","","","","","","","","","","","","","",""
"791","null","sub_response","html-keyboard-response","151","676095","0.0-1.0-6.0-3.0-2.10","16:17:21","5","","","","","","","<div style='text-align: center;'>
                            <span style=""color: red; font-size: 40px""><b>错误！+0 pts</b></span></div>
                            ","","learn","0","0","0","learn","0","0","[0, 1, 2]","10","1","setsize","8S3A","sports","1","0","2","0",""
"null","null","fixation","html-keyboard-response","152","676610","0.0-1.0-6.0-3.0-0.11","16:17:21","5","","","","","","","fixation","","","","","","","","","","","","","","","","","","",""
"1637","2","pic_response","html-keyboard-response","153","678249","0.0-1.0-6.0-3.0-1.11","16:17:21","5","","","","","","","<div>
            <img class='stim' src=""pictures/sports/4.jpg""></div><div class=""button_prompt"">
                    <b>请用数字键1-3回答</b>
                    </div>","","","","","","","","","","","","","","","","","","",""
"1637","null","sub_response","html-keyboard-response","154","679262","0.0-1.0-6.0-3.0-2.11","16:17:21","5","","","","","","","<div style='text-align: center;'>
                            <span style=""color: green; font-size: 40px""><b>正确！+1 pts</b></span></div>
                            ","","learn","4","4","4","learn","1","1","[0, 1, 2]","11","1","setsize","8S3A","sports","1","1","2","1",""
"null","null","fixation","html-keyboard-response","155","679767","0.0-1.0-6.0-3.0-0.12","16:17:21","5","","","","","","","fixation","","","","","","","","","","","","","","","","","","",""
"888","2","pic_response","html-keyboard-response","156","680656","0.0-1.0-6.0-3.0-1.12","16:17:21","5","","","","","","","<div>
            <img class='stim' src=""pictures/sports/3.jpg""></div><div class=""button_prompt"">
                    <b>请用数字键1-3回答</b>
                    </div>","","","","","","","","","","","","","","","","","","",""
"888","null","sub_response","html-keyboard-response","157","681673","0.0-1.0-6.0-3.0-2.12","16:17:21","5","","","","","","","<div style='text-align: center;'>
                            <span style=""color: green; font-size: 40px""><b>正确！+1 pts</b></span></div>
                            ","","learn","3","3","3","learn","1","1","[0, 1, 2]","12","1","setsize","8S3A","sports","1","2","2","1",""
"null","null","fixation","html-keyboard-response","158","682178","0.0-1.0-6.0-3.0-0.13","16:17:21","5","","","","","","","fixation","","","","","","","","","","","","","","","","","","",""
"1293","1","pic_response","html-keyboard-response","159","683473","0.0-1.0-6.0-3.0-1.13","16:17:21","5","","","","","","","<div>
            <img class='stim' src=""pictures/sports/1.jpg""></div><div class=""button_prompt"">
                    <b>请用数字键1-3回答</b>
                    </div>","","","","","","","","","","","","","","","","","","",""
"1293","null","sub_response","html-keyboard-response","160","684475","0.0-1.0-6.0-3.0-2.13","16:17:21","5","","","","","","","<div style='text-align: center;'>
                            <span style=""color: green; font-size: 40px""><b>正确！+1 pts</b></span></div>
                            ","","learn","1","1","1","learn","0","0","[0, 1, 2]","13","1","setsize","8S3A","sports","1","3","1","1",""
"null","null","fixation","html-keyboard-response","161","684990","0.0-1.0-6.0-3.0-0.14","16:17:21","5","","","","","","","fixation","","","","","","","","","","","","","","","","","","",""
"1248","1","pic_response","html-keyboard-response","162","686240","0.0-1.0-6.0-3.0-1.14","16:17:21","5","","","","","","","<div>
            <img class='stim' src=""pictures/sports/2.jpg""></div><div class=""button_prompt"">
                    <b>请用数字键1-3回答</b>
                    </div>","","","","","","","","","","","","","","","","","","",""
"1248","null","sub_response","html-keyboard-response","163","687246","0.0-1.0-6.0-3.0-2.14","16:17:21","5","","","","","","","<div style='text-align: center;'>
                            <span style=""color: green; font-size: 40px""><b>正确！+1 pts</b></span></div>
                            ","","learn","2","2","2","learn","0","0","[0, 1, 2]","14","1","setsize","8S3A","sports","1","4","1","1",""
"null","null","fixation","html-keyboard-response","164","687762","0.0-1.0-6.0-3.0-0.15","16:17:21","5","","","","","","","fixation","","","","","","","","","","","","","","","","","","",""
"1973","1","pic_response","html-keyboard-response","165","689736","0.0-1.0-6.0-3.0-1.15","16:17:21","5","","","","","","","<div>
            <img class='stim' src=""pictures/sports/7.jpg""></div><div class=""button_prompt"">
                    <b>请用数字键1-3回答</b>
                    </div>","","","","","","","","","","","","","","","","","","",""
"1973","null","sub_response","html-keyboard-response","166","690751","0.0-1.0-6.0-3.0-2.15","16:17:21","5","","","","","","","<div style='text-align: center;'>
                            <span style=""color: red; font-size: 40px""><b>错误！+0 pts</b></span></div>
                            ","","learn","7","7","7","learn","2","2","[0, 1, 2]","15","1","setsize","8S3A","sports","1","0","1","0",""
"null","null","fixation","html-keyboard-response","167","691261","0.0-1.0-6.0-3.0-0.16","16:17:21","5","","","","","","","fixation","","","","","","","","","","","","","","","","","","",""
"1418","2","pic_response","html-keyboard-response","168","692680","0.0-1.0-6.0-3.0-1.16","16:17:21","5","","","","","","","<div>
            <img class='stim' src=""pictures/sports/3.jpg""></div><div class=""button_prompt"">
                    <b>请用数字键1-3回答</b>
                    </div>","","","","","","","","","","","","","","","","","","",""
"1418","null","sub_response","html-keyboard-response","169","693683","0.0-1.0-6.0-3.0-2.16","16:17:21","5","","","","","","","<div style='text-align: center;'>
                            <span style=""color: green; font-size: 40px""><b>正确！+1 pts</b></span></div>
                            ","","learn","3","3","3","learn","1","1","[0, 1, 2]","16","2","setsize","8S3A","sports","1","1","2","1",""
"null","null","fixation","html-keyboard-response","170","694199","0.0-1.0-6.0-3.0-0.17","16:17:21","5","","","","","","","fixation","","","","","","","","","","","","","","","","","","",""
"1480","3","pic_response","html-keyboard-response","171","695680","0.0-1.0-6.0-3.0-1.17","16:17:21","5","","","","","","","<div>
            <img class='stim' src=""pictures/sports/6.jpg""></div><div class=""button_prompt"">
                    <b>请用数字键1-3回答</b>
                    </div>","","","","","","","","","","","","","","","","","","",""
"1480","null","sub_response","html-keyboard-response","172","696683","0.0-1.0-6.0-3.0-2.17","16:17:21","5","","","","","","","<div style='text-align: center;'>
                            <span style=""color: green; font-size: 40px""><b>正确！+1 pts</b></span></div>
                            ","","learn","6","6","6","learn","2","2","[0, 1, 2]","17","2","setsize","8S3A","sports","1","2","3","1",""
"null","null","fixation","html-keyboard-response","173","697198","0.0-1.0-6.0-3.0-0.18","16:17:21","5","","","","","","","fixation","","","","","","","","","","","","","","","","","","",""
"1057","2","pic_response","html-keyboard-response","174","698256","0.0-1.0-6.0-3.0-1.18","16:17:21","5","","","","","","","<div>
            <img class='stim' src=""pictures/sports/4.jpg""></div><div class=""button_prompt"">
                    <b>请用数字键1-3回答</b>
                    </div>","","","","","","","","","","","","","","","","","","",""
"1057","null","sub_response","html-keyboard-response","175","699261","0.0-1.0-6.0-3.0-2.18","16:17:21","5","","","","","","","<div style='text-align: center;'>
                            <span style=""color: green; font-size: 40px""><b>正确！+1 pts</b></span></div>
                            ","","learn","4","4","4","learn","1","1","[0, 1, 2]","18","2","setsize","8S3A","sports","1","3","2","1",""
"null","null","fixation","html-keyboard-response","176","699762","0.0-1.0-6.0-3.0-0.19","16:17:21","5","","","","","","","fixation","","","","","","","","","","","","","","","","","","",""
"1157","1","pic_response","html-keyboard-response","177","700920","0.0-1.0-6.0-3.0-1.19","16:17:21","5","","","","","","","<div>
            <img class='stim' src=""pictures/sports/1.jpg""></div><div class=""button_prompt"">
                    <b>请用数字键1-3回答</b>
                    </div>","","","","","","","","","","","","","","","","","","",""
"1157","null","sub_response","html-keyboard-response","178","701928","0.0-1.0-6.0-3.0-2.19","16:17:21","5","","","","","","","<div style='text-align: center;'>
                            <span style=""color: green; font-size: 40px""><b>正确！+1 pts</b></span></div>
                            ","","learn","1","1","1","learn","0","0","[0, 1, 2]","19","2","setsize","8S3A","sports","1","4","1","1",""
"null","null","fixation","html-keyboard-response","179","702444","0.0-1.0-6.0-3.0-0.20","16:17:21","5","","","","","","","fixation","","","","","","","","","","","","","","","","","","",""
"1531","3","pic_response","html-keyboard-response","180","703976","0.0-1.0-6.0-3.0-1.20","16:17:21","5","","","","","","","<div>
            <img class='stim' src=""pictures/sports/0.jpg""></div><div class=""button_prompt"">
                    <b>请用数字键1-3回答</b>
                    </div>","","","","","","","","","","","","","","","","","","",""
"1531","null","sub_response","html-keyboard-response","181","704991","0.0-1.0-6.0-3.0-2.20","16:17:21","5","","","","","","","<div style='text-align: center;'>
                            <span style=""color: red; font-size: 40px""><b>错误！+0 pts</b></span></div>
                            ","","learn","0","0","0","learn","0","0","[0, 1, 2]","20","2","setsize","8S3A","sports","1","0","3","0",""
"null","null","fixation","html-keyboard-response","182","705507","0.0-1.0-6.0-3.0-0.21","16:17:21","5","","","","","","","fixation","","","","","","","","","","","","","","","","","","",""
"2036","2","pic_response","html-keyboard-response","183","707544","0.0-1.0-6.0-3.0-1.21","16:17:21","5","","","","","","","<div>
            <img class='stim' src=""pictures/sports/5.jpg""></div><div class=""button_prompt"">
                    <b>请用数字键1-3回答</b>
                    </div>","","","","","","","","","","","","","","","","","","",""
"2036","null","sub_response","html-keyboard-response","184","708553","0.0-1.0-6.0-3.0-2.21","16:17:21","5","","","","","","","<div style='text-align: center;'>
                            <span style=""color: green; font-size: 40px""><b>正确！+1 pts</b></span></div>
                            ","","learn","5","5","5","learn","1","1","[0, 1, 2]","21","2","setsize","8S3A","sports","1","1","2","1",""
"null","null","fixation","html-keyboard-response","185","709069","0.0-1.0-6.0-3.0-0.22","16:17:21","5","","","","","","","fixation","","","","","","","","","","","","","","","","","","",""
"1010","1","pic_response","html-keyboard-response","186","710080","0.0-1.0-6.0-3.0-1.22","16:17:21","5","","","","","","","<div>
            <img class='stim' src=""pictures/sports/2.jpg""></div><div class=""button_prompt"">
                    <b>请用数字键1-3回答</b>
                    </div>","","","","","","","","","","","","","","","","","","",""
"1010","null","sub_response","html-keyboard-response","187","711095","0.0-1.0-6.0-3.0-2.22","16:17:21","5","","","","","","","<div style='text-align: center;'>
                            <span style=""color: green; font-size: 40px""><b>正确！+1 pts</b></span></div>
                            ","","learn","2","2","2","learn","0","0","[0, 1, 2]","22","2","setsize","8S3A","sports","1","2","1","1",""
"null","null","fixation","html-keyboard-response","188","711611","0.0-1.0-6.0-3.0-0.23","16:17:21","5","","","","","","","fixation","","","","","","","","","","","","","","","","","","",""
"1612","2","pic_response","html-keyboard-response","189","713224","0.0-1.0-6.0-3.0-1.23","16:17:21","5","","","","","","","<div>
            <img class='stim' src=""pictures/sports/7.jpg""></div><div class=""button_prompt"">
                    <b>请用数字键1-3回答</b>
                    </div>","","","","","","","","","","","","","","","","","","",""
"1612","null","sub_response","html-keyboard-response","190","714240","0.0-1.0-6.0-3.0-2.23","16:17:21","5","","","","","","","<div style='text-align: center;'>
                            <span style=""color: red; font-size: 40px""><b>错误！+0 pts</b></span></div>
                            ","","learn","7","7","7","learn","2","2","[0, 1, 2]","23","2","setsize","8S3A","sports","1","0","2","0",""
"null","null","fixation","html-keyboard-response","191","714756","0.0-1.0-6.0-3.0-0.24","16:17:21","5","","","","","","","fixation","","","","","","","","","","","","","","","","","","",""
"1650","2","pic_response","html-keyboard-response","192","716408","0.0-1.0-6.0-3.0-1.24","16:17:21","5","","","","","","","<div>
            <img class='stim' src=""pictures/sports/4.jpg""></div><div class=""button_prompt"">
                    <b>请用数字键1-3回答</b>
                    </div>","","","","","","","","","","","","","","","","","","",""
"1650","null","sub_response","html-keyboard-response","193","717416","0.0-1.0-6.0-3.0-2.24","16:17:21","5","","","","","","","<div style='text-align: center;'>
                            <span style=""color: green; font-size: 40px""><b>正确！+1 pts</b></span></div>
                            ","","learn","4","4","4","learn","1","1","[0, 1, 2]","24","3","setsize","8S3A","sports","1","1","2","1",""
"null","null","fixation","html-keyboard-response","194","717928","0.0-1.0-6.0-3.0-0.25","16:17:21","5","","","","","","","fixation","","","","","","","","","","","","","","","","","","",""
"1287","2","pic_response","html-keyboard-response","195","719216","0.0-1.0-6.0-3.0-1.25","16:17:21","5","","","","","","","<div>
            <img class='stim' src=""pictures/sports/0.jpg""></div><div class=""button_prompt"">
                    <b>请用数字键1-3回答</b>
                    </div>","","","","","","","","","","","","","","","","","","",""
"1287","null","sub_response","html-keyboard-response","196","720219","0.0-1.0-6.0-3.0-2.25","16:17:21","5","","","","","","","<div style='text-align: center;'>
                            <span style=""color: red; font-size: 40px""><b>错误！+0 pts</b></span></div>
                            ","","learn","0","0","0","learn","0","0","[0, 1, 2]","25","3","setsize","8S3A","sports","1","0","2","0",""
"null","null","fixation","html-keyboard-response","197","720721","0.0-1.0-6.0-3.0-0.26","16:17:21","5","","","","","","","fixation","","","","","","","","","","","","","","","","","","",""
"2438","3","pic_response","html-keyboard-response","198","723160","0.0-1.0-6.0-3.0-1.26","16:17:21","5","","","","","","","<div>
            <img class='stim' src=""pictures/sports/6.jpg""></div><div class=""button_prompt"">
                    <b>请用数字键1-3回答</b>
                    </div>","","","","","","","","","","","","","","","","","","",""
"2438","null","sub_response","html-keyboard-response","199","724163","0.0-1.0-6.0-3.0-2.26","16:17:21","5","","","","","","","<div style='text-align: center;'>
                            <span style=""color: green; font-size: 40px""><b>正确！+1 pts</b></span></div>
                            ","","learn","6","6","6","learn","2","2","[0, 1, 2]","26","3","setsize","8S3A","sports","1","1","3","1",""
"null","null","fixation","html-keyboard-response","200","724678","0.0-1.0-6.0-3.0-0.27","16:17:21","5","","","","","","","fixation","","","","","","","","","","","","","","","","","","",""
"1105","1","pic_response","html-keyboard-response","201","725784","0.0-1.0-6.0-3.0-1.27","16:17:21","5","","","","","","","<div>
            <img class='stim' src=""pictures/sports/1.jpg""></div><div class=""button_prompt"">
                    <b>请用数字键1-3回答</b>
                    </div>","","","","","","","","","","","","","","","","","","",""
"1105","null","sub_response","html-keyboard-response","202","726787","0.0-1.0-6.0-3.0-2.27","16:17:21","5","","","","","","","<div style='text-align: center;'>
                            <span style=""color: green; font-size: 40px""><b>正确！+1 pts</b></span></div>
                            ","","learn","1","1","1","learn","0","0","[0, 1, 2]","27","3","setsize","8S3A","sports","1","2","1","1",""
"null","null","fixation","html-keyboard-response","203","727303","0.0-1.0-6.0-3.0-0.28","16:17:21","5","","","","","","","fixation","","","","","","","","","","","","","","","","","","",""
"1096","1","pic_response","html-keyboard-response","204","728400","0.0-1.0-6.0-3.0-1.28","16:17:21","5","","","","","","","<div>
            <img class='stim' src=""pictures/sports/2.jpg""></div><div class=""button_prompt"">
                    <b>请用数字键1-3回答</b>
                    </div>","","","","","","","","","","","","","","","","","","",""
"1096","null","sub_response","html-keyboard-response","205","729407","0.0-1.0-6.0-3.0-2.28","16:17:21","5","","","","","","","<div style='text-align: center;'>
                            <span style=""color: green; font-size: 40px""><b>正确！+1 pts</b></span></div>
                            ","","learn","2","2","2","learn","0","0","[0, 1, 2]","28","3","setsize","8S3A","sports","1","3","1","1",""
"null","null","fixation","html-keyboard-response","206","729923","0.0-1.0-6.0-3.0-0.29","16:17:21","5","","","","","","","fixation","","","","","","","","","","","","","","","","","","",""
"1251","3","pic_response","html-keyboard-response","207","731176","0.0-1.0-6.0-3.0-1.29","16:17:21","5","","","","","","","<div>
            <img class='stim' src=""pictures/sports/7.jpg""></div><div class=""button_prompt"">
                    <b>请用数字键1-3回答</b>
                    </div>","","","","","","","","","","","","","","","","","","",""
"1251","null","sub_response","html-keyboard-response","208","732177","0.0-1.0-6.0-3.0-2.29","16:17:21","5","","","","","","","<div style='text-align: center;'>
                            <span style=""color: green; font-size: 40px""><b>正确！+1 pts</b></span></div>
                            ","","learn","7","7","7","learn","2","2","[0, 1, 2]","29","3","setsize","8S3A","sports","1","4","3","1",""
"null","null","fixation","html-keyboard-response","209","732693","0.0-1.0-6.0-3.0-0.30","16:17:21","5","","","","","","","fixation","","","","","","","","","","","","","","","","","","",""
"1586","2","pic_response","html-keyboard-response","210","734280","0.0-1.0-6.0-3.0-1.30","16:17:21","5","","","","","","","<div>
            <img class='stim' src=""pictures/sports/5.jpg""></div><div class=""button_prompt"">
                    <b>请用数字键1-3回答</b>
                    </div>","","","","","","","","","","","","","","","","","","",""
"1586","null","sub_response","html-keyboard-response","211","735282","0.0-1.0-6.0-3.0-2.30","16:17:21","5","","","","","","","<div style='text-align: center;'>
                            <span style=""color: green; font-size: 40px""><b>正确！+1 pts</b></span></div>
                            ","","learn","5","5","5","learn","1","1","[0, 1, 2]","30","3","setsize","8S3A","sports","1","5","2","1",""
"null","null","fixation","html-keyboard-response","212","735798","0.0-1.0-6.0-3.0-0.31","16:17:21","5","","","","","","","fixation","","","","","","","","","","","","","","","","","","",""
"1017","2","pic_response","html-keyboard-response","213","736816","0.0-1.0-6.0-3.0-1.31","16:17:21","5","","","","","","","<div>
            <img class='stim' src=""pictures/sports/3.jpg""></div><div class=""button_prompt"">
                    <b>请用数字键1-3回答</b>
                    </div>","","","","","","","","","","","","","","","","","","",""
"1017","null","sub_response","html-keyboard-response","214","737824","0.0-1.0-6.0-3.0-2.31","16:17:21","5","","","","","","","<div style='text-align: center;'>
                            <span style=""color: green; font-size: 40px""><b>正确！+1 pts</b></span></div>
                            ","","learn","3","3","3","learn","1","1","[0, 1, 2]","31","3","setsize","8S3A","sports","1","6","2","1",""
"null","null","fixation","html-keyboard-response","215","738339","0.0-1.0-6.0-3.0-0.32","16:17:21","5","","","","","","","fixation","","","","","","","","","","","","","","","","","","",""
"1900","3","pic_response","html-keyboard-response","216","740240","0.0-1.0-6.0-3.0-1.32","16:17:21","5","","","","","","","<div>
            <img class='stim' src=""pictures/sports/6.jpg""></div><div class=""button_prompt"">
                    <b>请用数字键1-3回答</b>
                    </div>","","","","","","","","","","","","","","","","","","",""
"1900","null","sub_response","html-keyboard-response","217","741256","0.0-1.0-6.0-3.0-2.32","16:17:21","5","","","","","","","<div style='text-align: center;'>
                            <span style=""color: green; font-size: 40px""><b>正确！+1 pts</b></span></div>
                            ","","learn","6","6","6","learn","2","2","[0, 1, 2]","32","4","setsize","8S3A","sports","1","7","3","1",""
"null","null","fixation","html-keyboard-response","218","741761","0.0-1.0-6.0-3.0-0.33","16:17:21","5","","","","","","","fixation","","","","","","","","","","","","","","","","","","",""
"1686","2","pic_response","html-keyboard-response","219","743448","0.0-1.0-6.0-3.0-1.33","16:17:21","5","","","","","","","<div>
            <img class='stim' src=""pictures/sports/5.jpg""></div><div class=""button_prompt"">
                    <b>请用数字键1-3回答</b>
                    </div>","","","","","","","","","","","","","","","","","","",""
"1686","null","sub_response","html-keyboard-response","220","744465","0.0-1.0-6.0-3.0-2.33","16:17:21","5","","","","","","","<div style='text-align: center;'>
                            <span style=""color: green; font-size: 40px""><b>正确！+1 pts</b></span></div>
                            ","","learn","5","5","5","learn","1","1","[0, 1, 2]","33","4","setsize","8S3A","sports","1","8","2","1",""
"null","null","fixation","html-keyboard-response","221","744970","0.0-1.0-6.0-3.0-0.34","16:17:21","5","","","","","","","fixation","","","","","","","","","","","","","","","","","","",""
"1701","3","pic_response","html-keyboard-response","222","746673","0.0-1.0-6.0-3.0-1.34","16:17:21","5","","","","","","","<div>
            <img class='stim' src=""pictures/sports/7.jpg""></div><div class=""button_prompt"">
                    <b>请用数字键1-3回答</b>
                    </div>","","","","","","","","","","","","","","","","","","",""
"1701","null","sub_response","html-keyboard-response","223","747679","0.0-1.0-6.0-3.0-2.34","16:17:21","5","","","","","","","<div style='text-align: center;'>
                            <span style=""color: green; font-size: 40px""><b>正确！+1 pts</b></span></div>
                            ","","learn","7","7","7","learn","2","2","[0, 1, 2]","34","4","setsize","8S3A","sports","1","9","3","1",""
"null","null","fixation","html-keyboard-response","224","748184","0.0-1.0-6.0-3.0-0.35","16:17:21","5","","","","","","","fixation","","","","","","","","","","","","","","","","","","",""
"1254","1","pic_response","html-keyboard-response","225","749441","0.0-1.0-6.0-3.0-1.35","16:17:21","5","","","","","","","<div>
            <img class='stim' src=""pictures/sports/1.jpg""></div><div class=""button_prompt"">
                    <b>请用数字键1-3回答</b>
                    </div>","","","","","","","","","","","","","","","","","","",""
"1254","null","sub_response","html-keyboard-response","226","750449","0.0-1.0-6.0-3.0-2.35","16:17:21","5","","","","","","","<div style='text-align: center;'>
                            <span style=""color: green; font-size: 40px""><b>正确！+1 pts</b></span></div>
                            ","","learn","1","1","1","learn","0","0","[0, 1, 2]","35","4","setsize","8S3A","sports","1","10","1","1",""
"null","null","fixation","html-keyboard-response","227","750966","0.0-1.0-6.0-3.0-0.36","16:17:21","5","","","","","","","fixation","","","","","","","","","","","","","","","","","","",""
"882","2","pic_response","html-keyboard-response","228","751849","0.0-1.0-6.0-3.0-1.36","16:17:21","5","","","","","","","<div>
            <img class='stim' src=""pictures/sports/3.jpg""></div><div class=""button_prompt"">
                    <b>请用数字键1-3回答</b>
                    </div>","","","","","","","","","","","","","","","","","","",""
"882","null","sub_response","html-keyboard-response","229","752853","0.0-1.0-6.0-3.0-2.36","16:17:21","5","","","","","","","<div style='text-align: center;'>
                            <span style=""color: green; font-size: 40px""><b>正确！+1 pts</b></span></div>
                            ","","learn","3","3","3","learn","1","1","[0, 1, 2]","36","4","setsize","8S3A","sports","1","11","2","1",""
"null","null","fixation","html-keyboard-response","230","753366","0.0-1.0-6.0-3.0-0.37","16:17:21","5","","","","","","","fixation","","","","","","","","","","","","","","","","","","",""
"1482","1","pic_response","html-keyboard-response","231","754849","0.0-1.0-6.0-3.0-1.37","16:17:21","5","","","","","","","<div>
            <img class='stim' src=""pictures/sports/0.jpg""></div><div class=""button_prompt"">
                    <b>请用数字键1-3回答</b>
                    </div>","","","","","","","","","","","","","","","","","","",""
"1482","null","sub_response","html-keyboard-response","232","755850","0.0-1.0-6.0-3.0-2.37","16:17:21","5","","","","","","","<div style='text-align: center;'>
                            <span style=""color: green; font-size: 40px""><b>正确！+1 pts</b></span></div>
                            ","","learn","0","0","0","learn","0","0","[0, 1, 2]","37","4","setsize","8S3A","sports","1","12","1","1",""
"null","null","fixation","html-keyboard-response","233","756365","0.0-1.0-6.0-3.0-0.38","16:17:21","5","","","","","","","fixation","","","","","","","","","","","","","","","","","","",""
"865","1","pic_response","html-keyboard-response","234","757232","0.0-1.0-6.0-3.0-1.38","16:17:21","5","","","","","","","<div>
            <img class='stim' src=""pictures/sports/2.jpg""></div><div class=""button_prompt"">
                    <b>请用数字键1-3回答</b>
                    </div>","","","","","","","","","","","","","","","","","","",""
"865","null","sub_response","html-keyboard-response","235","758244","0.0-1.0-6.0-3.0-2.38","16:17:21","5","","","","","","","<div style='text-align: center;'>
                            <span style=""color: green; font-size: 40px""><b>正确！+1 pts</b></span></div>
                            ","","learn","2","2","2","learn","0","0","[0, 1, 2]","38","4","setsize","8S3A","sports","1","13","1","1",""
"null","null","fixation","html-keyboard-response","236","758746","0.0-1.0-6.0-3.0-0.39","16:17:21","5","","","","","","","fixation","","","","","","","","","","","","","","","","","","",""
"1117","2","pic_response","html-keyboard-response","237","759865","0.0-1.0-6.0-3.0-1.39","16:17:21","5","","","","","","","<div>
            <img class='stim' src=""pictures/sports/4.jpg""></div><div class=""button_prompt"">
                    <b>请用数字键1-3回答</b>
                    </div>","","","","","","","","","","","","","","","","","","",""
"1117","null","sub_response","html-keyboard-response","238","760871","0.0-1.0-6.0-3.0-2.39","16:17:21","5","","","","","","","<div style='text-align: center;'>
                            <span style=""color: green; font-size: 40px""><b>正确！+1 pts</b></span></div>
                            ","","learn","4","4","4","learn","1","1","[0, 1, 2]","39","4","setsize","8S3A","sports","1","14","2","1",""
"null","null","fixation","html-keyboard-response","239","761388","0.0-1.0-6.0-3.0-0.40","16:17:21","5","","","","","","","fixation","","","","","","","","","","","","","","","","","","",""
"1660","2","pic_response","html-keyboard-response","240","763049","0.0-1.0-6.0-3.0-1.40","16:17:21","5","","","","","","","<div>
            <img class='stim' src=""pictures/sports/5.jpg""></div><div class=""button_prompt"">
                    <b>请用数字键1-3回答</b>
                    </div>","","","","","","","","","","","","","","","","","","",""
"1660","null","sub_response","html-keyboard-response","241","764053","0.0-1.0-6.0-3.0-2.40","16:17:21","5","","","","","","","<div style='text-align: center;'>
                            <span style=""color: green; font-size: 40px""><b>正确！+1 pts</b></span></div>
                            ","","learn","5","5","5","learn","1","1","[0, 1, 2]","40","5","setsize","8S3A","sports","1","15","2","1",""
"null","null","fixation","html-keyboard-response","242","764569","0.0-1.0-6.0-3.0-0.41","16:17:21","5","","","","","","","fixation","","","","","","","","","","","","","","","","","","",""
"1134","1","pic_response","html-keyboard-response","243","765704","0.0-1.0-6.0-3.0-1.41","16:17:21","5","","","","","","","<div>
            <img class='stim' src=""pictures/sports/1.jpg""></div><div class=""button_prompt"">
                    <b>请用数字键1-3回答</b>
                    </div>","","","","","","","","","","","","","","","","","","",""
"1134","null","sub_response","html-keyboard-response","244","766719","0.0-1.0-6.0-3.0-2.41","16:17:21","5","","","","","","","<div style='text-align: center;'>
                            <span style=""color: green; font-size: 40px""><b>正确！+1 pts</b></span></div>
                            ","","learn","1","1","1","learn","0","0","[0, 1, 2]","41","5","setsize","8S3A","sports","1","16","1","1",""
"null","null","fixation","html-keyboard-response","245","767236","0.0-1.0-6.0-3.0-0.42","16:17:21","5","","","","","","","fixation","","","","","","","","","","","","","","","","","","",""
"1755","3","pic_response","html-keyboard-response","246","768993","0.0-1.0-6.0-3.0-1.42","16:17:21","5","","","","","","","<div>
            <img class='stim' src=""pictures/sports/6.jpg""></div><div class=""button_prompt"">
                    <b>请用数字键1-3回答</b>
                    </div>","","","","","","","","","","","","","","","","","","",""
"1755","null","sub_response","html-keyboard-response","247","770006","0.0-1.0-6.0-3.0-2.42","16:17:21","5","","","","","","","<div style='text-align: center;'>
                            <span style=""color: green; font-size: 40px""><b>正确！+1 pts</b></span></div>
                            ","","learn","6","6","6","learn","2","2","[0, 1, 2]","42","5","setsize","8S3A","sports","1","17","3","1",""
"null","null","fixation","html-keyboard-response","248","770512","0.0-1.0-6.0-3.0-0.43","16:17:21","5","","","","","","","fixation","","","","","","","","","","","","","","","","","","",""
"960","2","pic_response","html-keyboard-response","249","771472","0.0-1.0-6.0-3.0-1.43","16:17:21","5","","","","","","","<div>
            <img class='stim' src=""pictures/sports/4.jpg""></div><div class=""button_prompt"">
                    <b>请用数字键1-3回答</b>
                    </div>","","","","","","","","","","","","","","","","","","",""
"960","null","sub_response","html-keyboard-response","250","772475","0.0-1.0-6.0-3.0-2.43","16:17:21","5","","","","","","","<div style='text-align: center;'>
                            <span style=""color: green; font-size: 40px""><b>正确！+1 pts</b></span></div>
                            ","","learn","4","4","4","learn","1","1","[0, 1, 2]","43","5","setsize","8S3A","sports","1","18","2","1",""
"null","null","fixation","html-keyboard-response","251","772991","0.0-1.0-6.0-3.0-0.44","16:17:21","5","","","","","","","fixation","","","","","","","","","","","","","","","","","","",""
"888","2","pic_response","html-keyboard-response","252","773881","0.0-1.0-6.0-3.0-1.44","16:17:21","5","","","","","","","<div>
            <img class='stim' src=""pictures/sports/3.jpg""></div><div class=""button_prompt"">
                    <b>请用数字键1-3回答</b>
                    </div>","","","","","","","","","","","","","","","","","","",""
"888","null","sub_response","html-keyboard-response","253","774886","0.0-1.0-6.0-3.0-2.44","16:17:21","5","","","","","","","<div style='text-align: center;'>
                            <span style=""color: green; font-size: 40px""><b>正确！+1 pts</b></span></div>
                            ","","learn","3","3","3","learn","1","1","[0, 1, 2]","44","5","setsize","8S3A","sports","1","19","2","1",""
"null","null","fixation","html-keyboard-response","254","775403","0.0-1.0-6.0-3.0-0.45","16:17:21","5","","","","","","","fixation","","","","","","","","","","","","","","","","","","",""
"1244","1","pic_response","html-keyboard-response","255","776649","0.0-1.0-6.0-3.0-1.45","16:17:21","5","","","","","","","<div>
            <img class='stim' src=""pictures/sports/0.jpg""></div><div class=""button_prompt"">
                    <b>请用数字键1-3回答</b>
                    </div>","","","","","","","","","","","","","","","","","","",""
"1244","null","sub_response","html-keyboard-response","256","777658","0.0-1.0-6.0-3.0-2.45","16:17:21","5","","","","","","","<div style='text-align: center;'>
                            <span style=""color: green; font-size: 40px""><b>正确！+1 pts</b></span></div>
                            ","","learn","0","0","0","learn","0","0","[0, 1, 2]","45","5","setsize","8S3A","sports","1","20","1","1",""
"null","null","fixation","html-keyboard-response","257","778174","0.0-1.0-6.0-3.0-0.46","16:17:21","5","","","","","","","fixation","","","","","","","","","","","","","","","","","","",""
"897","1","pic_response","html-keyboard-response","258","779072","0.0-1.0-6.0-3.0-1.46","16:17:21","5","","","","","","","<div>
            <img class='stim' src=""pictures/sports/2.jpg""></div><div class=""button_prompt"">
                    <b>请用数字键1-3回答</b>
                    </div>","","","","","","","","","","","","","","","","","","",""
"897","null","sub_response","html-keyboard-response","259","780074","0.0-1.0-6.0-3.0-2.46","16:17:21","5","","","","","","","<div style='text-align: center;'>
                            <span style=""color: green; font-size: 40px""><b>正确！+1 pts</b></span></div>
                            ","","learn","2","2","2","learn","0","0","[0, 1, 2]","46","5","setsize","8S3A","sports","1","21","1","1",""
"null","null","fixation","html-keyboard-response","260","780590","0.0-1.0-6.0-3.0-0.47","16:17:21","5","","","","","","","fixation","","","","","","","","","","","","","","","","","","",""
"2721","3","pic_response","html-keyboard-response","261","783313","0.0-1.0-6.0-3.0-1.47","16:17:21","5","","","","","","","<div>
            <img class='stim' src=""pictures/sports/7.jpg""></div><div class=""button_prompt"">
                    <b>请用数字键1-3回答</b>
                    </div>","","","","","","","","","","","","","","","","","","",""
"2721","null","sub_response","html-keyboard-response","262","784324","0.0-1.0-6.0-3.0-2.47","16:17:21","5","","","","","","","<div style='text-align: center;'>
                            <span style=""color: green; font-size: 40px""><b>正确！+1 pts</b></span></div>
                            ","","learn","7","7","7","learn","2","2","[0, 1, 2]","47","5","setsize","8S3A","sports","1","22","3","1",""
"null","null","fixation","html-keyboard-response","263","784840","0.0-1.0-6.0-3.0-0.48","16:17:21","5","","","","","","","fixation","","","","","","","","","","","","","","","","","","",""
"1215","1","pic_response","html-keyboard-response","264","786057","0.0-1.0-6.0-3.0-1.48","16:17:21","5","","","","","","","<div>
            <img class='stim' src=""pictures/sports/2.jpg""></div><div class=""button_prompt"">
                    <b>请用数字键1-3回答</b>
                    </div>","","","","","","","","","","","","","","","","","","",""
"1215","null","sub_response","html-keyboard-response","265","787059","0.0-1.0-6.0-3.0-2.48","16:17:21","5","","","","","","","<div style='text-align: center;'>
                            <span style=""color: green; font-size: 40px""><b>正确！+1 pts</b></span></div>
                            ","","learn","2","2","2","learn","0","0","[0, 1, 2]","48","6","setsize","8S3A","sports","1","23","1","1",""
"null","null","fixation","html-keyboard-response","266","787574","0.0-1.0-6.0-3.0-0.49","16:17:21","5","","","","","","","fixation","","","","","","","","","","","","","","","","","","",""
"881","2","pic_response","html-keyboard-response","267","788456","0.0-1.0-6.0-3.0-1.49","16:17:21","5","","","","","","","<div>
            <img class='stim' src=""pictures/sports/3.jpg""></div><div class=""button_prompt"">
                    <b>请用数字键1-3回答</b>
                    </div>","","","","","","","","","","","","","","","","","","",""
"881","null","sub_response","html-keyboard-response","268","789470","0.0-1.0-6.0-3.0-2.49","16:17:21","5","","","","","","","<div style='text-align: center;'>
                            <span style=""color: green; font-size: 40px""><b>正确！+1 pts</b></span></div>
                            ","","learn","3","3","3","learn","1","1","[0, 1, 2]","49","6","setsize","8S3A","sports","1","24","2","1",""
"null","null","fixation","html-keyboard-response","269","789971","0.0-1.0-6.0-3.0-0.50","16:17:21","5","","","","","","","fixation","","","","","","","","","","","","","","","","","","",""
"916","2","pic_response","html-keyboard-response","270","790888","0.0-1.0-6.0-3.0-1.50","16:17:21","5","","","","","","","<div>
            <img class='stim' src=""pictures/sports/4.jpg""></div><div class=""button_prompt"">
                    <b>请用数字键1-3回答</b>
                    </div>","","","","","","","","","","","","","","","","","","",""
"916","null","sub_response","html-keyboard-response","271","791892","0.0-1.0-6.0-3.0-2.50","16:17:21","5","","","","","","","<div style='text-align: center;'>
                            <span style=""color: green; font-size: 40px""><b>正确！+1 pts</b></span></div>
                            ","","learn","4","4","4","learn","1","1","[0, 1, 2]","50","6","setsize","8S3A","sports","1","25","2","1",""
"null","null","fixation","html-keyboard-response","272","792407","0.0-1.0-6.0-3.0-0.51","16:17:21","5","","","","","","","fixation","","","","","","","","","","","","","","","","","","",""
"1792","2","pic_response","html-keyboard-response","273","794200","0.0-1.0-6.0-3.0-1.51","16:17:21","5","","","","","","","<div>
            <img class='stim' src=""pictures/sports/5.jpg""></div><div class=""button_prompt"">
                    <b>请用数字键1-3回答</b>
                    </div>","","","","","","","","","","","","","","","","","","",""
"1792","null","sub_response","html-keyboard-response","274","795204","0.0-1.0-6.0-3.0-2.51","16:17:21","5","","","","","","","<div style='text-align: center;'>
                            <span style=""color: green; font-size: 40px""><b>正确！+1 pts</b></span></div>
                            ","","learn","5","5","5","learn","1","1","[0, 1, 2]","51","6","setsize","8S3A","sports","1","26","2","1",""
"null","null","fixation","html-keyboard-response","275","795720","0.0-1.0-6.0-3.0-0.52","16:17:21","5","","","","","","","fixation","","","","","","","","","","","","","","","","","","",""
"999","1","pic_response","html-keyboard-response","276","796721","0.0-1.0-6.0-3.0-1.52","16:17:21","5","","","","","","","<div>
            <img class='stim' src=""pictures/sports/0.jpg""></div><div class=""button_prompt"">
                    <b>请用数字键1-3回答</b>
                    </div>","","","","","","","","","","","","","","","","","","",""
"999","null","sub_response","html-keyboard-response","277","797726","0.0-1.0-6.0-3.0-2.52","16:17:21","5","","","","","","","<div style='text-align: center;'>
                            <span style=""color: green; font-size: 40px""><b>正确！+1 pts</b></span></div>
                            ","","learn","0","0","0","learn","0","0","[0, 1, 2]","52","6","setsize","8S3A","sports","1","27","1","1",""
"null","null","fixation","html-keyboard-response","278","798241","0.0-1.0-6.0-3.0-0.53","16:17:21","5","","","","","","","fixation","","","","","","","","","","","","","","","","","","",""
"1174","3","pic_response","html-keyboard-response","279","799417","0.0-1.0-6.0-3.0-1.53","16:17:21","5","","","","","","","<div>
            <img class='stim' src=""pictures/sports/6.jpg""></div><div class=""button_prompt"">
                    <b>请用数字键1-3回答</b>
                    </div>","","","","","","","","","","","","","","","","","","",""
"1174","null","sub_response","html-keyboard-response","280","800428","0.0-1.0-6.0-3.0-2.53","16:17:21","5","","","","","","","<div style='text-align: center;'>
                            <span style=""color: green; font-size: 40px""><b>正确！+1 pts</b></span></div>
                            ","","learn","6","6","6","learn","2","2","[0, 1, 2]","53","6","setsize","8S3A","sports","1","28","3","1",""
"null","null","fixation","html-keyboard-response","281","800945","0.0-1.0-6.0-3.0-0.54","16:17:21","5","","","","","","","fixation","","","","","","","","","","","","","","","","","","",""
"1143","1","pic_response","html-keyboard-response","282","802089","0.0-1.0-6.0-3.0-1.54","16:17:21","5","","","","","","","<div>
            <img class='stim' src=""pictures/sports/1.jpg""></div><div class=""button_prompt"">
                    <b>请用数字键1-3回答</b>
                    </div>","","","","","","","","","","","","","","","","","","",""
"1143","null","sub_response","html-keyboard-response","283","803095","0.0-1.0-6.0-3.0-2.54","16:17:21","5","","","","","","","<div style='text-align: center;'>
                            <span style=""color: green; font-size: 40px""><b>正确！+1 pts</b></span></div>
                            ","","learn","1","1","1","learn","0","0","[0, 1, 2]","54","6","setsize","8S3A","sports","1","29","1","1",""
"null","null","fixation","html-keyboard-response","284","803611","0.0-1.0-6.0-3.0-0.55","16:17:21","5","","","","","","","fixation","","","","","","","","","","","","","","","","","","",""
"1148","3","pic_response","html-keyboard-response","285","804760","0.0-1.0-6.0-3.0-1.55","16:17:21","5","","","","","","","<div>
            <img class='stim' src=""pictures/sports/7.jpg""></div><div class=""button_prompt"">
                    <b>请用数字键1-3回答</b>
                    </div>","","","","","","","","","","","","","","","","","","",""
"1148","null","sub_response","html-keyboard-response","286","805762","0.0-1.0-6.0-3.0-2.55","16:17:21","5","","","","","","","<div style='text-align: center;'>
                            <span style=""color: green; font-size: 40px""><b>正确！+1 pts</b></span></div>
                            ","","learn","7","7","7","learn","2","2","[0, 1, 2]","55","6","setsize","8S3A","sports","1","30","3","1",""
"null","null","fixation","html-keyboard-response","287","806277","0.0-1.0-6.0-3.0-0.56","16:17:21","5","","","","","","","fixation","","","","","","","","","","","","","","","","","","",""
"866","3","pic_response","html-keyboard-response","288","807144","0.0-1.0-6.0-3.0-1.56","16:17:21","5","","","","","","","<div>
            <img class='stim' src=""pictures/sports/7.jpg""></div><div class=""button_prompt"">
                    <b>请用数字键1-3回答</b>
                    </div>","","","","","","","","","","","","","","","","","","",""
"866","null","sub_response","html-keyboard-response","289","808160","0.0-1.0-6.0-3.0-2.56","16:17:21","5","","","","","","","<div style='text-align: center;'>
                            <span style=""color: green; font-size: 40px""><b>正确！+1 pts</b></span></div>
                            ","","learn","7","7","7","learn","2","2","[0, 1, 2]","56","7","setsize","8S3A","sports","1","31","3","1",""
"null","null","fixation","html-keyboard-response","290","808663","0.0-1.0-6.0-3.0-0.57","16:17:21","5","","","","","","","fixation","","","","","","","","","","","","","","","","","","",""
"952","1","pic_response","html-keyboard-response","291","809617","0.0-1.0-6.0-3.0-1.57","16:17:21","5","","","","","","","<div>
            <img class='stim' src=""pictures/sports/2.jpg""></div><div class=""button_prompt"">
                    <b>请用数字键1-3回答</b>
                    </div>","","","","","","","","","","","","","","","","","","",""
"952","null","sub_response","html-keyboard-response","292","810621","0.0-1.0-6.0-3.0-2.57","16:17:21","5","","","","","","","<div style='text-align: center;'>
                            <span style=""color: green; font-size: 40px""><b>正确！+1 pts</b></span></div>
                            ","","learn","2","2","2","learn","0","0","[0, 1, 2]","57","7","setsize","8S3A","sports","1","32","1","1",""
"null","null","fixation","html-keyboard-response","293","811138","0.0-1.0-6.0-3.0-0.58","16:17:21","5","","","","","","","fixation","","","","","","","","","","","","","","","","","","",""
"926","2","pic_response","html-keyboard-response","294","812065","0.0-1.0-6.0-3.0-1.58","16:17:21","5","","","","","","","<div>
            <img class='stim' src=""pictures/sports/4.jpg""></div><div class=""button_prompt"">
                    <b>请用数字键1-3回答</b>
                    </div>","","","","","","","","","","","","","","","","","","",""
"926","null","sub_response","html-keyboard-response","295","813075","0.0-1.0-6.0-3.0-2.58","16:17:21","5","","","","","","","<div style='text-align: center;'>
                            <span style=""color: green; font-size: 40px""><b>正确！+1 pts</b></span></div>
                            ","","learn","4","4","4","learn","1","1","[0, 1, 2]","58","7","setsize","8S3A","sports","1","33","2","1",""
"null","null","fixation","html-keyboard-response","296","813590","0.0-1.0-6.0-3.0-0.59","16:17:21","5","","","","","","","fixation","","","","","","","","","","","","","","","","","","",""
"1209","1","pic_response","html-keyboard-response","297","814801","0.0-1.0-6.0-3.0-1.59","16:17:21","5","","","","","","","<div>
            <img class='stim' src=""pictures/sports/0.jpg""></div><div class=""button_prompt"">
                    <b>请用数字键1-3回答</b>
                    </div>","","","","","","","","","","","","","","","","","","",""
"1209","null","sub_response","html-keyboard-response","298","815803","0.0-1.0-6.0-3.0-2.59","16:17:21","5","","","","","","","<div style='text-align: center;'>
                            <span style=""color: green; font-size: 40px""><b>正确！+1 pts</b></span></div>
                            ","","learn","0","0","0","learn","0","0","[0, 1, 2]","59","7","setsize","8S3A","sports","1","34","1","1",""
"null","null","fixation","html-keyboard-response","299","816319","0.0-1.0-6.0-3.0-0.60","16:17:21","5","","","","","","","fixation","","","","","","","","","","","","","","","","","","",""
"1472","1","pic_response","html-keyboard-response","300","817793","0.0-1.0-6.0-3.0-1.60","16:17:21","5","","","","","","","<div>
            <img class='stim' src=""pictures/sports/1.jpg""></div><div class=""button_prompt"">
                    <b>请用数字键1-3回答</b>
                    </div>","","","","","","","","","","","","","","","","","","",""
"1472","null","sub_response","html-keyboard-response","301","818803","0.0-1.0-6.0-3.0-2.60","16:17:21","5","","","","","","","<div style='text-align: center;'>
                            <span style=""color: green; font-size: 40px""><b>正确！+1 pts</b></span></div>
                            ","","learn","1","1","1","learn","0","0","[0, 1, 2]","60","7","setsize","8S3A","sports","1","35","1","1",""
"null","null","fixation","html-keyboard-response","302","819304","0.0-1.0-6.0-3.0-0.61","16:17:21","5","","","","","","","fixation","","","","","","","","","","","","","","","","","","",""
"1143","2","pic_response","html-keyboard-response","303","820449","0.0-1.0-6.0-3.0-1.61","16:17:21","5","","","","","","","<div>
            <img class='stim' src=""pictures/sports/3.jpg""></div><div class=""button_prompt"">
                    <b>请用数字键1-3回答</b>
                    </div>","","","","","","","","","","","","","","","","","","",""
"1143","null","sub_response","html-keyboard-response","304","821465","0.0-1.0-6.0-3.0-2.61","16:17:21","5","","","","","","","<div style='text-align: center;'>
                            <span style=""color: green; font-size: 40px""><b>正确！+1 pts</b></span></div>
                            ","","learn","3","3","3","learn","1","1","[0, 1, 2]","61","7","setsize","8S3A","sports","1","36","2","1",""
"null","null","fixation","html-keyboard-response","305","821970","0.0-1.0-6.0-3.0-0.62","16:17:21","5","","","","","","","fixation","","","","","","","","","","","","","","","","","","",""
"1620","3","pic_response","html-keyboard-response","306","823591","0.0-1.0-6.0-3.0-1.62","16:17:21","5","","","","","","","<div>
            <img class='stim' src=""pictures/sports/6.jpg""></div><div class=""button_prompt"">
                    <b>请用数字键1-3回答</b>
                    </div>","","","","","","","","","","","","","","","","","","",""
"1620","null","sub_response","html-keyboard-response","307","824595","0.0-1.0-6.0-3.0-2.62","16:17:21","5","","","","","","","<div style='text-align: center;'>
                            <span style=""color: green; font-size: 40px""><b>正确！+1 pts</b></span></div>
                            ","","learn","6","6","6","learn","2","2","[0, 1, 2]","62","7","setsize","8S3A","sports","1","37","3","1",""
"null","null","fixation","html-keyboard-response","308","825111","0.0-1.0-6.0-3.0-0.63","16:17:21","5","","","","","","","fixation","","","","","","","","","","","","","","","","","","",""
"1784","2","pic_response","html-keyboard-response","309","826897","0.0-1.0-6.0-3.0-1.63","16:17:21","5","","","","","","","<div>
            <img class='stim' src=""pictures/sports/5.jpg""></div><div class=""button_prompt"">
                    <b>请用数字键1-3回答</b>
                    </div>","","","","","","","","","","","","","","","","","","",""
"1784","null","sub_response","html-keyboard-response","310","827904","0.0-1.0-6.0-3.0-2.63","16:17:21","5","","","","","","","<div style='text-align: center;'>
                            <span style=""color: green; font-size: 40px""><b>正确！+1 pts</b></span></div>
                            ","","learn","5","5","5","learn","1","1","[0, 1, 2]","63","7","setsize","8S3A","sports","1","38","2","1",""
"null","null","fixation","html-keyboard-response","311","828407","0.0-1.0-6.0-3.0-0.64","16:17:21","5","","","","","","","fixation","","","","","","","","","","","","","","","","","","",""
"1216","1","pic_response","html-keyboard-response","312","829625","0.0-1.0-6.0-3.0-1.64","16:17:21","5","","","","","","","<div>
            <img class='stim' src=""pictures/sports/0.jpg""></div><div class=""button_prompt"">
                    <b>请用数字键1-3回答</b>
                    </div>","","","","","","","","","","","","","","","","","","",""
"1216","null","sub_response","html-keyboard-response","313","830637","0.0-1.0-6.0-3.0-2.64","16:17:21","5","","","","","","","<div style='text-align: center;'>
                            <span style=""color: green; font-size: 40px""><b>正确！+1 pts</b></span></div>
                            ","","learn","0","0","0","learn","0","0","[0, 1, 2]","64","8","setsize","8S3A","sports","1","39","1","1",""
"null","null","fixation","html-keyboard-response","314","831153","0.0-1.0-6.0-3.0-0.65","16:17:21","5","","","","","","","fixation","","","","","","","","","","","","","","","","","","",""
"1967","2","pic_response","html-keyboard-response","315","833121","0.0-1.0-6.0-3.0-1.65","16:17:21","5","","","","","","","<div>
            <img class='stim' src=""pictures/sports/5.jpg""></div><div class=""button_prompt"">
                    <b>请用数字键1-3回答</b>
                    </div>","","","","","","","","","","","","","","","","","","",""
"1967","null","sub_response","html-keyboard-response","316","834136","0.0-1.0-6.0-3.0-2.65","16:17:21","5","","","","","","","<div style='text-align: center;'>
                            <span style=""color: green; font-size: 40px""><b>正确！+1 pts</b></span></div>
                            ","","learn","5","5","5","learn","1","1","[0, 1, 2]","65","8","setsize","8S3A","sports","1","40","2","1",""
"null","null","fixation","html-keyboard-response","317","834638","0.0-1.0-6.0-3.0-0.66","16:17:21","5","","","","","","","fixation","","","","","","","","","","","","","","","","","","",""
"1705","3","pic_response","html-keyboard-response","318","836345","0.0-1.0-6.0-3.0-1.66","16:17:21","5","","","","","","","<div>
            <img class='stim' src=""pictures/sports/7.jpg""></div><div class=""button_prompt"">
                    <b>请用数字键1-3回答</b>
                    </div>","","","","","","","","","","","","","","","","","","",""
"1705","null","sub_response","html-keyboard-response","319","837350","0.0-1.0-6.0-3.0-2.66","16:17:21","5","","","","","","","<div style='text-align: center;'>
                            <span style=""color: green; font-size: 40px""><b>正确！+1 pts</b></span></div>
                            ","","learn","7","7","7","learn","2","2","[0, 1, 2]","66","8","setsize","8S3A","sports","1","41","3","1",""
"null","null","fixation","html-keyboard-response","320","837866","0.0-1.0-6.0-3.0-0.67","16:17:21","5","","","","","","","fixation","","","","","","","","","","","","","","","","","","",""
"837","1","pic_response","html-keyboard-response","321","838705","0.0-1.0-6.0-3.0-1.67","16:17:21","5","","","","","","","<div>
            <img class='stim' src=""pictures/sports/2.jpg""></div><div class=""button_prompt"">
                    <b>请用数字键1-3回答</b>
                    </div>","","","","","","","","","","","","","","","","","","",""
"837","null","sub_response","html-keyboard-response","322","839720","0.0-1.0-6.0-3.0-2.67","16:17:21","5","","","","","","","<div style='text-align: center;'>
                            <span style=""color: green; font-size: 40px""><b>正确！+1 pts</b></span></div>
                            ","","learn","2","2","2","learn","0","0","[0, 1, 2]","67","8","setsize","8S3A","sports","1","42","1","1",""
