"rt","response","screen_id","trial_type","trial_index","time_elapsed","internal_node_id","start_time","n_Prac","success","timeout","failed_images","failed_audio","failed_video","view_history","stimulus","question_order","stage","s","word","word_id","phase","a_cor","a_real","a_ava","trial","tps","task_type","block_typ","pic_typ","block_id","cum_r","a","r","plugin_name"
"27052","{""sub_id"":""CN002"",""task_type"":""task1"",""name"":""程靖尧"",""gender"":""M""}","basic_info","survey-html-form","0","27054","0.0-0.0","7:29:45 PM","2","","","","","","","","","","","","","","","","","","","","","","","","","",""
"","","","preload","1","27071","0.0-1.0-0.0","7:29:45 PM","2","true","false","[]","[]","[]","","","","","","","","","","","","","","","","","","","","",""
"","","","fullscreen","2","31006","0.0-1.0-1.0","7:29:45 PM","2","true","","","","","","","","","","","","","","","","","","","","","","","","",""
"37636","","instruct","instructions","3","68643","0.0-1.0-2.0-0.0","7:29:45 PM","2","","","","","","[{""page_index"":0,""viewing_time"":11104},{""page_index"":1,""viewing_time"":18784},{""page_index"":2,""viewing_time"":7747}]","","","","","","","","","","","","","","","","","","","",""
"12748","{""Q0"":"""",""task1"":""<span style='font-size: 24px'>学习图片和数字的对应关系</span>"",""task2"":""<span style='font-size: 24px'> 数字键1-3 </span>"",""task3"":""<span style='font-size: 24px'> 看到图片选出正确对应的数字 </span>""}","question","survey-multi-choice","4","81393","0.0-1.0-2.0-1.0","7:29:45 PM","2","","","","","","","","[0,1,2,3]","","","","","","","","","","","","","","","","","",""
"2509"," ","inst_q","html-keyboard-response","5","83904","0.0-1.0-2.0-2.0","7:29:45 PM","2","","","","","","","inst","","1","","","","","","","","","","","","","","","","",""
"6728","","instruct","instructions","6","90632","0.0-1.0-2.1-0.1","7:29:45 PM","2","","","","","","[{""page_index"":0,""viewing_time"":3334},{""page_index"":1,""viewing_time"":1505},{""page_index"":2,""viewing_time"":1889}]","","","","","","","","","","","","","","","","","","","",""
"19539","{""Q0"":"""",""task1"":""<span style='font-size: 24px'>学习图片和数字的对应关系</span>"",""task2"":""<span style='font-size: 24px'> 图片下方标注为可用的数字键（数字键1-3或1-8） </span>"",""task3"":""<span style='font-size: 24px'> 看到图片选出正确对应的数字 </span>""}","question","survey-multi-choice","7","110172","0.0-1.0-2.1-1.1","7:29:45 PM","2","","","","","","","","[0,1,2,3]","","","","","","","","","","","","","","","","","",""
"2067"," ","inst_q","html-keyboard-response","8","112241","0.0-1.0-2.1-2.1","7:29:45 PM","2","","","","","","","inst","","1","","","","","","","","","","","","","","","","",""
"","","","preload","9","112246","0.0-1.0-3.0-0.0","7:29:45 PM","2","true","false","[]","[]","[]","","","","","","","","","","","","","","","","","","","","",""
"11309"," ","","html-keyboard-response","10","123555","0.0-1.0-3.0-1.0","7:29:45 PM","2","","","","","","","<div style='font-size: 32px; text-align: center;'
                    <p>请学习图片和数字之间的对应关系</p>
                    <p>我们将<span style='color: blue'><b> 告诉 </b></span>您选择的对错。请根据反馈学习。</p>
                    <p>请按""空格""继续实验。</p></div>","","","","","","","","","","","","","","","","","","",""
"7257"," ","inst","html-keyboard-response","11","130813","0.0-1.0-3.0-2.0","7:29:45 PM","2","","","","","","","<img class='instruct_stim' src=""instruction/prac3.png""></div>","","","","","","","","","","","","","","","","","","",""
"null","null","fixation","html-keyboard-response","12","131318","0.0-1.0-3.0-3.0-0.0","7:29:45 PM","2","","","","","","","fixation","","","","","","","","","","","","","","","","","","",""
"779","1","pic_response","html-keyboard-response","13","132098","0.0-1.0-3.0-3.0-1.0","7:29:45 PM","2","","","","","","","<div>
            <img class='stim' src=""pictures/prac/0.jpg""></div><div class=""button_prompt"">
                    <b>请用数字键1-3回答</b>
                    </div>","","","","","","","","","","","","","","","","","","",""
"779","null","sub_response","html-keyboard-response","14","133115","0.0-1.0-3.0-3.0-2.0","7:29:45 PM","2","","","","","","","<div style='text-align: center;'>
                            <span style=""color: green; font-size: 40px""><b>正确！+1 pts</b></span></div>
                            ","","learn","0","0","0","learn","0","0","[0, 1, 2]","0","0","setsize","99","prac","0","1","1","1",""
"null","null","fixation","html-keyboard-response","15","133632","0.0-1.0-3.0-3.0-0.1","7:29:45 PM","2","","","","","","","fixation","","","","","","","","","","","","","","","","","","",""
"732","2","pic_response","html-keyboard-response","16","134364","0.0-1.0-3.0-3.0-1.1","7:29:45 PM","2","","","","","","","<div>
            <img class='stim' src=""pictures/prac/2.jpg""></div><div class=""button_prompt"">
                    <b>请用数字键1-3回答</b>
                    </div>","","","","","","","","","","","","","","","","","","",""
"732","null","sub_response","html-keyboard-response","17","135380","0.0-1.0-3.0-3.0-2.1","7:29:45 PM","2","","","","","","","<div style='text-align: center;'>
                            <span style=""color: red; font-size: 40px""><b>错误！+0 pts</b></span></div>
                            ","","learn","2","2","2","learn","2","2","[0, 1, 2]","1","0","setsize","99","prac","0","0","2","0",""
"null","null","fixation","html-keyboard-response","18","135881","0.0-1.0-3.0-3.0-0.2","7:29:45 PM","2","","","","","","","fixation","","","","","","","","","","","","","","","","","","",""
"1030","2","pic_response","html-keyboard-response","19","136912","0.0-1.0-3.0-3.0-1.2","7:29:45 PM","2","","","","","","","<div>
            <img class='stim' src=""pictures/prac/1.jpg""></div><div class=""button_prompt"">
                    <b>请用数字键1-3回答</b>
                    </div>","","","","","","","","","","","","","","","","","","",""
"1030","null","sub_response","html-keyboard-response","20","137914","0.0-1.0-3.0-3.0-2.2","7:29:45 PM","2","","","","","","","<div style='text-align: center;'>
                            <span style=""color: red; font-size: 40px""><b>错误！+0 pts</b></span></div>
                            ","","learn","1","1","1","learn","0","0","[0, 1, 2]","2","0","setsize","99","prac","0","0","2","0",""
"null","null","fixation","html-keyboard-response","21","138423","0.0-1.0-3.0-3.0-0.3","7:29:45 PM","2","","","","","","","fixation","","","","","","","","","","","","","","","","","","",""
"665","1","pic_response","html-keyboard-response","22","139089","0.0-1.0-3.0-3.0-1.3","7:29:45 PM","2","","","","","","","<div>
            <img class='stim' src=""pictures/prac/0.jpg""></div><div class=""button_prompt"">
                    <b>请用数字键1-3回答</b>
                    </div>","","","","","","","","","","","","","","","","","","",""
"665","null","sub_response","html-keyboard-response","23","140106","0.0-1.0-3.0-3.0-2.3","7:29:45 PM","2","","","","","","","<div style='text-align: center;'>
                            <span style=""color: green; font-size: 40px""><b>正确！+1 pts</b></span></div>
                            ","","learn","0","0","0","learn","0","0","[0, 1, 2]","3","1","setsize","99","prac","0","1","1","1",""
"null","null","fixation","html-keyboard-response","24","140609","0.0-1.0-3.0-3.0-0.4","7:29:45 PM","2","","","","","","","fixation","","","","","","","","","","","","","","","","","","",""
"974","3","pic_response","html-keyboard-response","25","141583","0.0-1.0-3.0-3.0-1.4","7:29:45 PM","2","","","","","","","<div>
            <img class='stim' src=""pictures/prac/2.jpg""></div><div class=""button_prompt"">
                    <b>请用数字键1-3回答</b>
                    </div>","","","","","","","","","","","","","","","","","","",""
"974","null","sub_response","html-keyboard-response","26","142595","0.0-1.0-3.0-3.0-2.4","7:29:45 PM","2","","","","","","","<div style='text-align: center;'>
                            <span style=""color: green; font-size: 40px""><b>正确！+1 pts</b></span></div>
                            ","","learn","2","2","2","learn","2","2","[0, 1, 2]","4","1","setsize","99","prac","0","2","3","1",""
"null","null","fixation","html-keyboard-response","27","143096","0.0-1.0-3.0-3.0-0.5","7:29:45 PM","2","","","","","","","fixation","","","","","","","","","","","","","","","","","","",""
"634","3","pic_response","html-keyboard-response","28","143731","0.0-1.0-3.0-3.0-1.5","7:29:45 PM","2","","","","","","","<div>
            <img class='stim' src=""pictures/prac/1.jpg""></div><div class=""button_prompt"">
                    <b>请用数字键1-3回答</b>
                    </div>","","","","","","","","","","","","","","","","","","",""
"634","null","sub_response","html-keyboard-response","29","144741","0.0-1.0-3.0-3.0-2.5","7:29:45 PM","2","","","","","","","<div style='text-align: center;'>
                            <span style=""color: red; font-size: 40px""><b>错误！+0 pts</b></span></div>
                            ","","learn","1","1","1","learn","0","0","[0, 1, 2]","5","1","setsize","99","prac","0","0","3","0",""
"","","","preload","30","144743","0.0-1.0-3.1-0.1","7:29:45 PM","2","true","false","[]","[]","[]","","","","","","","","","","","","","","","","","","","","",""
"3768"," ","","html-keyboard-response","31","148512","0.0-1.0-3.1-1.1","7:29:45 PM","2","","","","","","","<div style='font-size: 32px; text-align: center;'
                    <p>请学习图片和数字之间的对应关系</p>
                    <p>我们将<span style='color: blue'><b> 告诉 </b></span>您选择的对错。请根据反馈学习。</p>
                    <p>请按""空格""继续实验。</p></div>","","","","","","","","","","","","","","","","","","",""
"2801"," ","inst","html-keyboard-response","32","151314","0.0-1.0-3.1-2.1","7:29:45 PM","2","","","","","","","<img class='instruct_stim' src=""instruction/prac3.png""></div>","","","","","","","","","","","","","","","","","","",""
"null","null","fixation","html-keyboard-response","33","151816","0.0-1.0-3.1-3.1-0.6","7:29:45 PM","2","","","","","","","fixation","","","","","","","","","","","","","","","","","","",""
"555","1","pic_response","html-keyboard-response","34","152371","0.0-1.0-3.1-3.1-1.6","7:29:45 PM","2","","","","","","","<div>
            <img class='stim' src=""pictures/prac/0.jpg""></div><div class=""button_prompt"">
                    <b>请用数字键1-3回答</b>
                    </div>","","","","","","","","","","","","","","","","","","",""
"555","null","sub_response","html-keyboard-response","35","153387","0.0-1.0-3.1-3.1-2.6","7:29:45 PM","2","","","","","","","<div style='text-align: center;'>
                            <span style=""color: green; font-size: 40px""><b>正确！+1 pts</b></span></div>
                            ","","learn","0","0","0","learn","0","0","[0, 1, 2]","0","0","setsize","99","prac","0","1","1","1",""
"null","null","fixation","html-keyboard-response","36","153903","0.0-1.0-3.1-3.1-0.7","7:29:45 PM","2","","","","","","","fixation","","","","","","","","","","","","","","","","","","",""
"1160","3","pic_response","html-keyboard-response","37","155065","0.0-1.0-3.1-3.1-1.7","7:29:45 PM","2","","","","","","","<div>
            <img class='stim' src=""pictures/prac/2.jpg""></div><div class=""button_prompt"">
                    <b>请用数字键1-3回答</b>
                    </div>","","","","","","","","","","","","","","","","","","",""
"1160","null","sub_response","html-keyboard-response","38","156081","0.0-1.0-3.1-3.1-2.7","7:29:45 PM","2","","","","","","","<div style='text-align: center;'>
                            <span style=""color: green; font-size: 40px""><b>正确！+1 pts</b></span></div>
                            ","","learn","2","2","2","learn","2","2","[0, 1, 2]","1","0","setsize","99","prac","0","2","3","1",""
"null","null","fixation","html-keyboard-response","39","156587","0.0-1.0-3.1-3.1-0.8","7:29:45 PM","2","","","","","","","fixation","","","","","","","","","","","","","","","","","","",""
"254","3","pic_response","html-keyboard-response","40","156842","0.0-1.0-3.1-3.1-1.8","7:29:45 PM","2","","","","","","","<div>
            <img class='stim' src=""pictures/prac/1.jpg""></div><div class=""button_prompt"">
                    <b>请用数字键1-3回答</b>
                    </div>","","","","","","","","","","","","","","","","","","",""
"254","null","sub_response","html-keyboard-response","41","157856","0.0-1.0-3.1-3.1-2.8","7:29:45 PM","2","","","","","","","<div style='text-align: center;'>
                            <span style=""color: red; font-size: 40px""><b>错误！+0 pts</b></span></div>
                            ","","learn","1","1","1","learn","0","0","[0, 1, 2]","2","0","setsize","99","prac","0","0","3","0",""
"null","null","fixation","html-keyboard-response","42","158357","0.0-1.0-3.1-3.1-0.9","7:29:45 PM","2","","","","","","","fixation","","","","","","","","","","","","","","","","","","",""
"630","1","pic_response","html-keyboard-response","43","158988","0.0-1.0-3.1-3.1-1.9","7:29:45 PM","2","","","","","","","<div>
            <img class='stim' src=""pictures/prac/0.jpg""></div><div class=""button_prompt"">
                    <b>请用数字键1-3回答</b>
                    </div>","","","","","","","","","","","","","","","","","","",""
"630","null","sub_response","html-keyboard-response","44","160004","0.0-1.0-3.1-3.1-2.9","7:29:45 PM","2","","","","","","","<div style='text-align: center;'>
                            <span style=""color: green; font-size: 40px""><b>正确！+1 pts</b></span></div>
                            ","","learn","0","0","0","learn","0","0","[0, 1, 2]","3","1","setsize","99","prac","0","1","1","1",""
"null","null","fixation","html-keyboard-response","45","160508","0.0-1.0-3.1-3.1-0.10","7:29:45 PM","2","","","","","","","fixation","","","","","","","","","","","","","","","","","","",""
"431","3","pic_response","html-keyboard-response","46","160940","0.0-1.0-3.1-3.1-1.10","7:29:45 PM","2","","","","","","","<div>
            <img class='stim' src=""pictures/prac/2.jpg""></div><div class=""button_prompt"">
                    <b>请用数字键1-3回答</b>
                    </div>","","","","","","","","","","","","","","","","","","",""
"431","null","sub_response","html-keyboard-response","47","161956","0.0-1.0-3.1-3.1-2.10","7:29:45 PM","2","","","","","","","<div style='text-align: center;'>
                            <span style=""color: green; font-size: 40px""><b>正确！+1 pts</b></span></div>
                            ","","learn","2","2","2","learn","2","2","[0, 1, 2]","4","1","setsize","99","prac","0","2","3","1",""
"null","null","fixation","html-keyboard-response","48","162459","0.0-1.0-3.1-3.1-0.11","7:29:45 PM","2","","","","","","","fixation","","","","","","","","","","","","","","","","","","",""
"283","1","pic_response","html-keyboard-response","49","162742","0.0-1.0-3.1-3.1-1.11","7:29:45 PM","2","","","","","","","<div>
            <img class='stim' src=""pictures/prac/1.jpg""></div><div class=""button_prompt"">
                    <b>请用数字键1-3回答</b>
                    </div>","","","","","","","","","","","","","","","","","","",""
"283","null","sub_response","html-keyboard-response","50","163749","0.0-1.0-3.1-3.1-2.11","7:29:45 PM","2","","","","","","","<div style='text-align: center;'>
                            <span style=""color: green; font-size: 40px""><b>正确！+1 pts</b></span></div>
                            ","","learn","1","1","1","learn","0","0","[0, 1, 2]","5","1","setsize","99","prac","0","3","1","1",""
"3946"," ","","html-keyboard-response","51","167696","0.0-1.0-4.0","7:29:45 PM","2","","","","","","","<div style=""font-size: 25px""><p>距下一个实验开始还有</p><div style=""font-size: 50px; color: blue""><p><span id=""clock"">1:00</span></div></p><p>按""空格""跳过休息</p></div>","","","","","","","","","","","","","","","","","","",""
"979"," ","","html-keyboard-response","52","168675","0.0-1.0-5.0","7:29:45 PM","2","","","","","","","<div style='font-size: 32px; text-align: center;'
                    <p>请按""空格""继续正式实验。</p></div>","","","","","","","","","","","","","","","","","","",""
"","","","preload","53","168691","0.0-1.0-6.0-0.0","7:29:45 PM","2","true","false","[]","[]","[]","","","","","","","","","","","","","","","","","","","","",""
"2647"," ","","html-keyboard-response","54","171338","0.0-1.0-6.0-1.0","7:29:45 PM","2","","","","","","","<div style='font-size: 32px; text-align: center;'
                    <p>请学习图片和数字之间的对应关系</p>
                    <p>我们将<span style='color: blue'><b> 告诉 </b></span>您选择的对错。请根据反馈学习。</p>
                    <p>请按""空格""继续实验。</p></div>","","","","","","","","","","","","","","","","","","",""
"5802"," ","inst","html-keyboard-response","55","177140","0.0-1.0-6.0-2.0","7:29:45 PM","2","","","","","","","<img class='instruct_stim' src=""instruction/sports8.png""></div>","","","","","","","","","","","","","","","","","","",""
"null","null","fixation","html-keyboard-response","56","177643","0.0-1.0-6.0-3.0-0.0","7:29:45 PM","2","","","","","","","fixation","","","","","","","","","","","","","","","","","","",""
"637","1","pic_response","html-keyboard-response","57","178281","0.0-1.0-6.0-3.0-1.0","7:29:45 PM","2","","","","","","","<div>
            <img class='stim' src=""pictures/sports/6.jpg""></div><div class=""button_prompt"">
                    <b>请用数字键1-3回答</b>
                    </div>","","","","","","","","","","","","","","","","","","",""
"637","null","sub_response","html-keyboard-response","58","179296","0.0-1.0-6.0-3.0-2.0","7:29:45 PM","2","","","","","","","<div style='text-align: center;'>
                            <span style=""color: red; font-size: 40px""><b>错误！+0 pts</b></span></div>
                            ","","learn","6","6","6","learn","2","2","[0, 1, 2]","0","0","setsize","8S3A","sports","1","0","1","0",""
"null","null","fixation","html-keyboard-response","59","179808","0.0-1.0-6.0-3.0-0.1","7:29:45 PM","2","","","","","","","fixation","","","","","","","","","","","","","","","","","","",""
"996","2","pic_response","html-keyboard-response","60","180804","0.0-1.0-6.0-3.0-1.1","7:29:45 PM","2","","","","","","","<div>
            <img class='stim' src=""pictures/sports/0.jpg""></div><div class=""button_prompt"">
                    <b>请用数字键1-3回答</b>
                    </div>","","","","","","","","","","","","","","","","","","",""
"996","null","sub_response","html-keyboard-response","61","181806","0.0-1.0-6.0-3.0-2.1","7:29:45 PM","2","","","","","","","<div style='text-align: center;'>
                            <span style=""color: red; font-size: 40px""><b>错误！+0 pts</b></span></div>
                            ","","learn","0","0","0","learn","0","0","[0, 1, 2]","1","0","setsize","8S3A","sports","1","0","2","0",""
"null","null","fixation","html-keyboard-response","62","182312","0.0-1.0-6.0-3.0-0.2","7:29:45 PM","2","","","","","","","fixation","","","","","","","","","","","","","","","","","","",""
"468","1","pic_response","html-keyboard-response","63","182781","0.0-1.0-6.0-3.0-1.2","7:29:45 PM","2","","","","","","","<div>
            <img class='stim' src=""pictures/sports/7.jpg""></div><div class=""button_prompt"">
                    <b>请用数字键1-3回答</b>
                    </div>","","","","","","","","","","","","","","","","","","",""
"468","null","sub_response","html-keyboard-response","64","183798","0.0-1.0-6.0-3.0-2.2","7:29:45 PM","2","","","","","","","<div style='text-align: center;'>
                            <span style=""color: red; font-size: 40px""><b>错误！+0 pts</b></span></div>
                            ","","learn","7","7","7","learn","2","2","[0, 1, 2]","2","0","setsize","8S3A","sports","1","0","1","0",""
"null","null","fixation","html-keyboard-response","65","184314","0.0-1.0-6.0-3.0-0.3","7:29:45 PM","2","","","","","","","fixation","","","","","","","","","","","","","","","","","","",""
"474","3","pic_response","html-keyboard-response","66","184789","0.0-1.0-6.0-3.0-1.3","7:29:45 PM","2","","","","","","","<div>
            <img class='stim' src=""pictures/sports/2.jpg""></div><div class=""button_prompt"">
                    <b>请用数字键1-3回答</b>
                    </div>","","","","","","","","","","","","","","","","","","",""
"474","null","sub_response","html-keyboard-response","67","185805","0.0-1.0-6.0-3.0-2.3","7:29:45 PM","2","","","","","","","<div style='text-align: center;'>
                            <span style=""color: red; font-size: 40px""><b>错误！+0 pts</b></span></div>
                            ","","learn","2","2","2","learn","0","0","[0, 1, 2]","3","0","setsize","8S3A","sports","1","0","3","0",""
"null","null","fixation","html-keyboard-response","68","186318","0.0-1.0-6.0-3.0-0.4","7:29:45 PM","2","","","","","","","fixation","","","","","","","","","","","","","","","","","","",""
"1643","1","pic_response","html-keyboard-response","69","187961","0.0-1.0-6.0-3.0-1.4","7:29:45 PM","2","","","","","","","<div>
            <img class='stim' src=""pictures/sports/5.jpg""></div><div class=""button_prompt"">
                    <b>请用数字键1-3回答</b>
                    </div>","","","","","","","","","","","","","","","","","","",""
"1643","null","sub_response","html-keyboard-response","70","188976","0.0-1.0-6.0-3.0-2.4","7:29:45 PM","2","","","","","","","<div style='text-align: center;'>
                            <span style=""color: red; font-size: 40px""><b>错误！+0 pts</b></span></div>
                            ","","learn","5","5","5","learn","1","1","[0, 1, 2]","4","0","setsize","8S3A","sports","1","0","1","0",""
"null","null","fixation","html-keyboard-response","71","189493","0.0-1.0-6.0-3.0-0.5","7:29:45 PM","2","","","","","","","fixation","","","","","","","","","","","","","","","","","","",""
"1303","2","pic_response","html-keyboard-response","72","190796","0.0-1.0-6.0-3.0-1.5","7:29:45 PM","2","","","","","","","<div>
            <img class='stim' src=""pictures/sports/3.jpg""></div><div class=""button_prompt"">
                    <b>请用数字键1-3回答</b>
                    </div>","","","","","","","","","","","","","","","","","","",""
"1303","null","sub_response","html-keyboard-response","73","191809","0.0-1.0-6.0-3.0-2.5","7:29:45 PM","2","","","","","","","<div style='text-align: center;'>
                            <span style=""color: green; font-size: 40px""><b>正确！+1 pts</b></span></div>
                            ","","learn","3","3","3","learn","1","1","[0, 1, 2]","5","0","setsize","8S3A","sports","1","1","2","1",""
"null","null","fixation","html-keyboard-response","74","192322","0.0-1.0-6.0-3.0-0.6","7:29:45 PM","2","","","","","","","fixation","","","","","","","","","","","","","","","","","","",""
"1023","2","pic_response","html-keyboard-response","75","193345","0.0-1.0-6.0-3.0-1.6","7:29:45 PM","2","","","","","","","<div>
            <img class='stim' src=""pictures/sports/4.jpg""></div><div class=""button_prompt"">
                    <b>请用数字键1-3回答</b>
                    </div>","","","","","","","","","","","","","","","","","","",""
"1023","null","sub_response","html-keyboard-response","76","194349","0.0-1.0-6.0-3.0-2.6","7:29:45 PM","2","","","","","","","<div style='text-align: center;'>
                            <span style=""color: green; font-size: 40px""><b>正确！+1 pts</b></span></div>
                            ","","learn","4","4","4","learn","1","1","[0, 1, 2]","6","0","setsize","8S3A","sports","1","2","2","1",""
"null","null","fixation","html-keyboard-response","77","194853","0.0-1.0-6.0-3.0-0.7","7:29:45 PM","2","","","","","","","fixation","","","","","","","","","","","","","","","","","","",""
"1209","2","pic_response","html-keyboard-response","78","196063","0.0-1.0-6.0-3.0-1.7","7:29:45 PM","2","","","","","","","<div>
            <img class='stim' src=""pictures/sports/1.jpg""></div><div class=""button_prompt"">
                    <b>请用数字键1-3回答</b>
                    </div>","","","","","","","","","","","","","","","","","","",""
"1209","null","sub_response","html-keyboard-response","79","197079","0.0-1.0-6.0-3.0-2.7","7:29:45 PM","2","","","","","","","<div style='text-align: center;'>
                            <span style=""color: red; font-size: 40px""><b>错误！+0 pts</b></span></div>
                            ","","learn","1","1","1","learn","0","0","[0, 1, 2]","7","0","setsize","8S3A","sports","1","0","2","0",""
"null","null","fixation","html-keyboard-response","80","197590","0.0-1.0-6.0-3.0-0.8","7:29:45 PM","2","","","","","","","fixation","","","","","","","","","","","","","","","","","","",""
"850","2","pic_response","html-keyboard-response","81","198441","0.0-1.0-6.0-3.0-1.8","7:29:45 PM","2","","","","","","","<div>
            <img class='stim' src=""pictures/sports/1.jpg""></div><div class=""button_prompt"">
                    <b>请用数字键1-3回答</b>
                    </div>","","","","","","","","","","","","","","","","","","",""
"850","null","sub_response","html-keyboard-response","82","199456","0.0-1.0-6.0-3.0-2.8","7:29:45 PM","2","","","","","","","<div style='text-align: center;'>
                            <span style=""color: red; font-size: 40px""><b>错误！+0 pts</b></span></div>
                            ","","learn","1","1","1","learn","0","0","[0, 1, 2]","8","1","setsize","8S3A","sports","1","0","2","0",""
"null","null","fixation","html-keyboard-response","83","199966","0.0-1.0-6.0-3.0-0.9","7:29:45 PM","2","","","","","","","fixation","","","","","","","","","","","","","","","","","","",""
"1935","1","pic_response","html-keyboard-response","84","201901","0.0-1.0-6.0-3.0-1.9","7:29:45 PM","2","","","","","","","<div>
            <img class='stim' src=""pictures/sports/5.jpg""></div><div class=""button_prompt"">
                    <b>请用数字键1-3回答</b>
                    </div>","","","","","","","","","","","","","","","","","","",""
"1935","null","sub_response","html-keyboard-response","85","202906","0.0-1.0-6.0-3.0-2.9","7:29:45 PM","2","","","","","","","<div style='text-align: center;'>
                            <span style=""color: red; font-size: 40px""><b>错误！+0 pts</b></span></div>
                            ","","learn","5","5","5","learn","1","1","[0, 1, 2]","9","1","setsize","8S3A","sports","1","0","1","0",""
"null","null","fixation","html-keyboard-response","86","203421","0.0-1.0-6.0-3.0-0.10","7:29:45 PM","2","","","","","","","fixation","","","","","","","","","","","","","","","","","","",""
"685","1","pic_response","html-keyboard-response","87","204107","0.0-1.0-6.0-3.0-1.10","7:29:45 PM","2","","","","","","","<div>
            <img class='stim' src=""pictures/sports/2.jpg""></div><div class=""button_prompt"">
                    <b>请用数字键1-3回答</b>
                    </div>","","","","","","","","","","","","","","","","","","",""
"685","null","sub_response","html-keyboard-response","88","205112","0.0-1.0-6.0-3.0-2.10","7:29:45 PM","2","","","","","","","<div style='text-align: center;'>
                            <span style=""color: green; font-size: 40px""><b>正确！+1 pts</b></span></div>
                            ","","learn","2","2","2","learn","0","0","[0, 1, 2]","10","1","setsize","8S3A","sports","1","1","1","1",""
"null","null","fixation","html-keyboard-response","89","205617","0.0-1.0-6.0-3.0-0.11","7:29:45 PM","2","","","","","","","fixation","","","","","","","","","","","","","","","","","","",""
"1014","3","pic_response","html-keyboard-response","90","206631","0.0-1.0-6.0-3.0-1.11","7:29:45 PM","2","","","","","","","<div>
            <img class='stim' src=""pictures/sports/7.jpg""></div><div class=""button_prompt"">
                    <b>请用数字键1-3回答</b>
                    </div>","","","","","","","","","","","","","","","","","","",""
"1014","null","sub_response","html-keyboard-response","91","207633","0.0-1.0-6.0-3.0-2.11","7:29:45 PM","2","","","","","","","<div style='text-align: center;'>
                            <span style=""color: green; font-size: 40px""><b>正确！+1 pts</b></span></div>
                            ","","learn","7","7","7","learn","2","2","[0, 1, 2]","11","1","setsize","8S3A","sports","1","2","3","1",""
"null","null","fixation","html-keyboard-response","92","208150","0.0-1.0-6.0-3.0-0.12","7:29:45 PM","2","","","","","","","fixation","","","","","","","","","","","","","","","","","","",""
"1285","2","pic_response","html-keyboard-response","93","209435","0.0-1.0-6.0-3.0-1.12","7:29:45 PM","2","","","","","","","<div>
            <img class='stim' src=""pictures/sports/3.jpg""></div><div class=""button_prompt"">
                    <b>请用数字键1-3回答</b>
                    </div>","","","","","","","","","","","","","","","","","","",""
"1285","null","sub_response","html-keyboard-response","94","210437","0.0-1.0-6.0-3.0-2.12","7:29:45 PM","2","","","","","","","<div style='text-align: center;'>
                            <span style=""color: green; font-size: 40px""><b>正确！+1 pts</b></span></div>
                            ","","learn","3","3","3","learn","1","1","[0, 1, 2]","12","1","setsize","8S3A","sports","1","3","2","1",""
"null","null","fixation","html-keyboard-response","95","210954","0.0-1.0-6.0-3.0-0.13","7:29:45 PM","2","","","","","","","fixation","","","","","","","","","","","","","","","","","","",""
"516","2","pic_response","html-keyboard-response","96","211470","0.0-1.0-6.0-3.0-1.13","7:29:45 PM","2","","","","","","","<div>
            <img class='stim' src=""pictures/sports/4.jpg""></div><div class=""button_prompt"">
                    <b>请用数字键1-3回答</b>
                    </div>","","","","","","","","","","","","","","","","","","",""
"516","null","sub_response","html-keyboard-response","97","212483","0.0-1.0-6.0-3.0-2.13","7:29:45 PM","2","","","","","","","<div style='text-align: center;'>
                            <span style=""color: green; font-size: 40px""><b>正确！+1 pts</b></span></div>
                            ","","learn","4","4","4","learn","1","1","[0, 1, 2]","13","1","setsize","8S3A","sports","1","4","2","1",""
"null","null","fixation","html-keyboard-response","98","212997","0.0-1.0-6.0-3.0-0.14","7:29:45 PM","2","","","","","","","fixation","","","","","","","","","","","","","","","","","","",""
"2107","3","pic_response","html-keyboard-response","99","215105","0.0-1.0-6.0-3.0-1.14","7:29:45 PM","2","","","","","","","<div>
            <img class='stim' src=""pictures/sports/6.jpg""></div><div class=""button_prompt"">
                    <b>请用数字键1-3回答</b>
                    </div>","","","","","","","","","","","","","","","","","","",""
"2107","null","sub_response","html-keyboard-response","100","216111","0.0-1.0-6.0-3.0-2.14","7:29:45 PM","2","","","","","","","<div style='text-align: center;'>
                            <span style=""color: green; font-size: 40px""><b>正确！+1 pts</b></span></div>
                            ","","learn","6","6","6","learn","2","2","[0, 1, 2]","14","1","setsize","8S3A","sports","1","5","3","1",""
"null","null","fixation","html-keyboard-response","101","216627","0.0-1.0-6.0-3.0-0.15","7:29:45 PM","2","","","","","","","fixation","","","","","","","","","","","","","","","","","","",""
"997","3","pic_response","html-keyboard-response","102","217625","0.0-1.0-6.0-3.0-1.15","7:29:45 PM","2","","","","","","","<div>
            <img class='stim' src=""pictures/sports/0.jpg""></div><div class=""button_prompt"">
                    <b>请用数字键1-3回答</b>
                    </div>","","","","","","","","","","","","","","","","","","",""
"997","null","sub_response","html-keyboard-response","103","218631","0.0-1.0-6.0-3.0-2.15","7:29:45 PM","2","","","","","","","<div style='text-align: center;'>
                            <span style=""color: red; font-size: 40px""><b>错误！+0 pts</b></span></div>
                            ","","learn","0","0","0","learn","0","0","[0, 1, 2]","15","1","setsize","8S3A","sports","1","0","3","0",""
"null","null","fixation","html-keyboard-response","104","219143","0.0-1.0-6.0-3.0-0.16","7:29:45 PM","2","","","","","","","fixation","","","","","","","","","","","","","","","","","","",""
"629","2","pic_response","html-keyboard-response","105","219773","0.0-1.0-6.0-3.0-1.16","7:29:45 PM","2","","","","","","","<div>
            <img class='stim' src=""pictures/sports/3.jpg""></div><div class=""button_prompt"">
                    <b>请用数字键1-3回答</b>
                    </div>","","","","","","","","","","","","","","","","","","",""
"629","null","sub_response","html-keyboard-response","106","220786","0.0-1.0-6.0-3.0-2.16","7:29:45 PM","2","","","","","","","<div style='text-align: center;'>
                            <span style=""color: green; font-size: 40px""><b>正确！+1 pts</b></span></div>
                            ","","learn","3","3","3","learn","1","1","[0, 1, 2]","16","2","setsize","8S3A","sports","1","1","2","1",""
"null","null","fixation","html-keyboard-response","107","221288","0.0-1.0-6.0-3.0-0.17","7:29:45 PM","2","","","","","","","fixation","","","","","","","","","","","","","","","","","","",""
"918","3","pic_response","html-keyboard-response","108","222207","0.0-1.0-6.0-3.0-1.17","7:29:45 PM","2","","","","","","","<div>
            <img class='stim' src=""pictures/sports/6.jpg""></div><div class=""button_prompt"">
                    <b>请用数字键1-3回答</b>
                    </div>","","","","","","","","","","","","","","","","","","",""
"918","null","sub_response","html-keyboard-response","109","223215","0.0-1.0-6.0-3.0-2.17","7:29:45 PM","2","","","","","","","<div style='text-align: center;'>
                            <span style=""color: green; font-size: 40px""><b>正确！+1 pts</b></span></div>
                            ","","learn","6","6","6","learn","2","2","[0, 1, 2]","17","2","setsize","8S3A","sports","1","2","3","1",""
"null","null","fixation","html-keyboard-response","110","223718","0.0-1.0-6.0-3.0-0.18","7:29:45 PM","2","","","","","","","fixation","","","","","","","","","","","","","","","","","","",""
"null","null","pic_response","html-keyboard-response","111","226735","0.0-1.0-6.0-3.0-1.18","7:29:45 PM","2","","","","","","","<div>
            <img class='stim' src=""pictures/sports/2.jpg""></div><div class=""button_prompt"">
                    <b>请用数字键1-3回答</b>
                    </div>","","","","","","","","","","","","","","","","","","",""
"null","null","sub_response","html-keyboard-response","112","227743","0.0-1.0-6.0-3.0-2.18","7:29:45 PM","2","","","","","","","<div style='text-align: center;'>
                            <span style=""color: red; font-size: 40px""><b>错误！+0 pts</b></span></div>
                            ","","learn","2","2","2","learn","0","0","[0, 1, 2]","18","2","setsize","8S3A","sports","1","0","0","0",""
"null","null","fixation","html-keyboard-response","113","228250","0.0-1.0-6.0-3.0-0.19","7:29:45 PM","2","","","","","","","fixation","","","","","","","","","","","","","","","","","","",""
"1032","1","pic_response","html-keyboard-response","114","229282","0.0-1.0-6.0-3.0-1.19","7:29:45 PM","2","","","","","","","<div>
            <img class='stim' src=""pictures/sports/1.jpg""></div><div class=""button_prompt"">
                    <b>请用数字键1-3回答</b>
                    </div>","","","","","","","","","","","","","","","","","","",""
"1032","null","sub_response","html-keyboard-response","115","230287","0.0-1.0-6.0-3.0-2.19","7:29:45 PM","2","","","","","","","<div style='text-align: center;'>
                            <span style=""color: green; font-size: 40px""><b>正确！+1 pts</b></span></div>
                            ","","learn","1","1","1","learn","0","0","[0, 1, 2]","19","2","setsize","8S3A","sports","1","1","1","1",""
"null","null","fixation","html-keyboard-response","116","230794","0.0-1.0-6.0-3.0-0.20","7:29:45 PM","2","","","","","","","fixation","","","","","","","","","","","","","","","","","","",""
"722","1","pic_response","html-keyboard-response","117","231516","0.0-1.0-6.0-3.0-1.20","7:29:45 PM","2","","","","","","","<div>
            <img class='stim' src=""pictures/sports/5.jpg""></div><div class=""button_prompt"">
                    <b>请用数字键1-3回答</b>
                    </div>","","","","","","","","","","","","","","","","","","",""
"722","null","sub_response","html-keyboard-response","118","232529","0.0-1.0-6.0-3.0-2.20","7:29:45 PM","2","","","","","","","<div style='text-align: center;'>
                            <span style=""color: red; font-size: 40px""><b>错误！+0 pts</b></span></div>
                            ","","learn","5","5","5","learn","1","1","[0, 1, 2]","20","2","setsize","8S3A","sports","1","0","1","0",""
"null","null","fixation","html-keyboard-response","119","233033","0.0-1.0-6.0-3.0-0.21","7:29:45 PM","2","","","","","","","fixation","","","","","","","","","","","","","","","","","","",""
"1116","1","pic_response","html-keyboard-response","120","234149","0.0-1.0-6.0-3.0-1.21","7:29:45 PM","2","","","","","","","<div>
            <img class='stim' src=""pictures/sports/0.jpg""></div><div class=""button_prompt"">
                    <b>请用数字键1-3回答</b>
                    </div>","","","","","","","","","","","","","","","","","","",""
"1116","null","sub_response","html-keyboard-response","121","235165","0.0-1.0-6.0-3.0-2.21","7:29:45 PM","2","","","","","","","<div style='text-align: center;'>
                            <span style=""color: green; font-size: 40px""><b>正确！+1 pts</b></span></div>
                            ","","learn","0","0","0","learn","0","0","[0, 1, 2]","21","2","setsize","8S3A","sports","1","1","1","1",""
"null","null","fixation","html-keyboard-response","122","235667","0.0-1.0-6.0-3.0-0.22","7:29:45 PM","2","","","","","","","fixation","","","","","","","","","","","","","","","","","","",""
"2086","3","pic_response","html-keyboard-response","123","237754","0.0-1.0-6.0-3.0-1.22","7:29:45 PM","2","","","","","","","<div>
            <img class='stim' src=""pictures/sports/7.jpg""></div><div class=""button_prompt"">
                    <b>请用数字键1-3回答</b>
                    </div>","","","","","","","","","","","","","","","","","","",""
"2086","null","sub_response","html-keyboard-response","124","238764","0.0-1.0-6.0-3.0-2.22","7:29:45 PM","2","","","","","","","<div style='text-align: center;'>
                            <span style=""color: green; font-size: 40px""><b>正确！+1 pts</b></span></div>
                            ","","learn","7","7","7","learn","2","2","[0, 1, 2]","22","2","setsize","8S3A","sports","1","2","3","1",""
"null","null","fixation","html-keyboard-response","125","239273","0.0-1.0-6.0-3.0-0.23","7:29:45 PM","2","","","","","","","fixation","","","","","","","","","","","","","","","","","","",""
"597","2","pic_response","html-keyboard-response","126","239871","0.0-1.0-6.0-3.0-1.23","7:29:45 PM","2","","","","","","","<div>
            <img class='stim' src=""pictures/sports/4.jpg""></div><div class=""button_prompt"">
                    <b>请用数字键1-3回答</b>
                    </div>","","","","","","","","","","","","","","","","","","",""
"597","null","sub_response","html-keyboard-response","127","240885","0.0-1.0-6.0-3.0-2.23","7:29:45 PM","2","","","","","","","<div style='text-align: center;'>
                            <span style=""color: green; font-size: 40px""><b>正确！+1 pts</b></span></div>
                            ","","learn","4","4","4","learn","1","1","[0, 1, 2]","23","2","setsize","8S3A","sports","1","3","2","1",""
"null","null","fixation","html-keyboard-response","128","241397","0.0-1.0-6.0-3.0-0.24","7:29:45 PM","2","","","","","","","fixation","","","","","","","","","","","","","","","","","","",""
"507","2","pic_response","html-keyboard-response","129","241905","0.0-1.0-6.0-3.0-1.24","7:29:45 PM","2","","","","","","","<div>
            <img class='stim' src=""pictures/sports/4.jpg""></div><div class=""button_prompt"">
                    <b>请用数字键1-3回答</b>
                    </div>","","","","","","","","","","","","","","","","","","",""
"507","null","sub_response","html-keyboard-response","130","242914","0.0-1.0-6.0-3.0-2.24","7:29:45 PM","2","","","","","","","<div style='text-align: center;'>
                            <span style=""color: green; font-size: 40px""><b>正确！+1 pts</b></span></div>
                            ","","learn","4","4","4","learn","1","1","[0, 1, 2]","24","3","setsize","8S3A","sports","1","4","2","1",""
"null","null","fixation","html-keyboard-response","131","243426","0.0-1.0-6.0-3.0-0.25","7:29:45 PM","2","","","","","","","fixation","","","","","","","","","","","","","","","","","","",""
"710","1","pic_response","html-keyboard-response","132","244137","0.0-1.0-6.0-3.0-1.25","7:29:45 PM","2","","","","","","","<div>
            <img class='stim' src=""pictures/sports/2.jpg""></div><div class=""button_prompt"">
                    <b>请用数字键1-3回答</b>
                    </div>","","","","","","","","","","","","","","","","","","",""
"710","null","sub_response","html-keyboard-response","133","245149","0.0-1.0-6.0-3.0-2.25","7:29:45 PM","2","","","","","","","<div style='text-align: center;'>
                            <span style=""color: green; font-size: 40px""><b>正确！+1 pts</b></span></div>
                            ","","learn","2","2","2","learn","0","0","[0, 1, 2]","25","3","setsize","8S3A","sports","1","5","1","1",""
"null","null","fixation","html-keyboard-response","134","245660","0.0-1.0-6.0-3.0-0.26","7:29:45 PM","2","","","","","","","fixation","","","","","","","","","","","","","","","","","","",""
"856","3","pic_response","html-keyboard-response","135","246517","0.0-1.0-6.0-3.0-1.26","7:29:45 PM","2","","","","","","","<div>
            <img class='stim' src=""pictures/sports/6.jpg""></div><div class=""button_prompt"">
                    <b>请用数字键1-3回答</b>
                    </div>","","","","","","","","","","","","","","","","","","",""
"856","null","sub_response","html-keyboard-response","136","247528","0.0-1.0-6.0-3.0-2.26","7:29:45 PM","2","","","","","","","<div style='text-align: center;'>
                            <span style=""color: green; font-size: 40px""><b>正确！+1 pts</b></span></div>
                            ","","learn","6","6","6","learn","2","2","[0, 1, 2]","26","3","setsize","8S3A","sports","1","6","3","1",""
"null","null","fixation","html-keyboard-response","137","248029","0.0-1.0-6.0-3.0-0.27","7:29:45 PM","2","","","","","","","fixation","","","","","","","","","","","","","","","","","","",""
"806","3","pic_response","html-keyboard-response","138","248836","0.0-1.0-6.0-3.0-1.27","7:29:45 PM","2","","","","","","","<div>
            <img class='stim' src=""pictures/sports/1.jpg""></div><div class=""button_prompt"">
                    <b>请用数字键1-3回答</b>
                    </div>","","","","","","","","","","","","","","","","","","",""
"806","null","sub_response","html-keyboard-response","139","249838","0.0-1.0-6.0-3.0-2.27","7:29:45 PM","2","","","","","","","<div style='text-align: center;'>
                            <span style=""color: red; font-size: 40px""><b>错误！+0 pts</b></span></div>
                            ","","learn","1","1","1","learn","0","0","[0, 1, 2]","27","3","setsize","8S3A","sports","1","0","3","0",""
"null","null","fixation","html-keyboard-response","140","250346","0.0-1.0-6.0-3.0-0.28","7:29:45 PM","2","","","","","","","fixation","","","","","","","","","","","","","","","","","","",""
"1265","3","pic_response","html-keyboard-response","141","251612","0.0-1.0-6.0-3.0-1.28","7:29:45 PM","2","","","","","","","<div>
            <img class='stim' src=""pictures/sports/5.jpg""></div><div class=""button_prompt"">
                    <b>请用数字键1-3回答</b>
                    </div>","","","","","","","","","","","","","","","","","","",""
"1265","null","sub_response","html-keyboard-response","142","252628","0.0-1.0-6.0-3.0-2.28","7:29:45 PM","2","","","","","","","<div style='text-align: center;'>
                            <span style=""color: red; font-size: 40px""><b>错误！+0 pts</b></span></div>
                            ","","learn","5","5","5","learn","1","1","[0, 1, 2]","28","3","setsize","8S3A","sports","1","0","3","0",""
"null","null","fixation","html-keyboard-response","143","253137","0.0-1.0-6.0-3.0-0.29","7:29:45 PM","2","","","","","","","fixation","","","","","","","","","","","","","","","","","","",""
"592","2","pic_response","html-keyboard-response","144","253730","0.0-1.0-6.0-3.0-1.29","7:29:45 PM","2","","","","","","","<div>
            <img class='stim' src=""pictures/sports/0.jpg""></div><div class=""button_prompt"">
                    <b>请用数字键1-3回答</b>
                    </div>","","","","","","","","","","","","","","","","","","",""
"592","null","sub_response","html-keyboard-response","145","254745","0.0-1.0-6.0-3.0-2.29","7:29:45 PM","2","","","","","","","<div style='text-align: center;'>
                            <span style=""color: red; font-size: 40px""><b>错误！+0 pts</b></span></div>
                            ","","learn","0","0","0","learn","0","0","[0, 1, 2]","29","3","setsize","8S3A","sports","1","0","2","0",""
"null","null","fixation","html-keyboard-response","146","255255","0.0-1.0-6.0-3.0-0.30","7:29:45 PM","2","","","","","","","fixation","","","","","","","","","","","","","","","","","","",""
"538","2","pic_response","html-keyboard-response","147","255794","0.0-1.0-6.0-3.0-1.30","7:29:45 PM","2","","","","","","","<div>
            <img class='stim' src=""pictures/sports/3.jpg""></div><div class=""button_prompt"">
                    <b>请用数字键1-3回答</b>
                    </div>","","","","","","","","","","","","","","","","","","",""
"538","null","sub_response","html-keyboard-response","148","256805","0.0-1.0-6.0-3.0-2.30","7:29:45 PM","2","","","","","","","<div style='text-align: center;'>
                            <span style=""color: green; font-size: 40px""><b>正确！+1 pts</b></span></div>
                            ","","learn","3","3","3","learn","1","1","[0, 1, 2]","30","3","setsize","8S3A","sports","1","1","2","1",""
"null","null","fixation","html-keyboard-response","149","257318","0.0-1.0-6.0-3.0-0.31","7:29:45 PM","2","","","","","","","fixation","","","","","","","","","","","","","","","","","","",""
"1281","3","pic_response","html-keyboard-response","150","258600","0.0-1.0-6.0-3.0-1.31","7:29:45 PM","2","","","","","","","<div>
            <img class='stim' src=""pictures/sports/7.jpg""></div><div class=""button_prompt"">
                    <b>请用数字键1-3回答</b>
                    </div>","","","","","","","","","","","","","","","","","","",""
"1281","null","sub_response","html-keyboard-response","151","259613","0.0-1.0-6.0-3.0-2.31","7:29:45 PM","2","","","","","","","<div style='text-align: center;'>
                            <span style=""color: green; font-size: 40px""><b>正确！+1 pts</b></span></div>
                            ","","learn","7","7","7","learn","2","2","[0, 1, 2]","31","3","setsize","8S3A","sports","1","2","3","1",""
"null","null","fixation","html-keyboard-response","152","260126","0.0-1.0-6.0-3.0-0.32","7:29:45 PM","2","","","","","","","fixation","","","","","","","","","","","","","","","","","","",""
"593","2","pic_response","html-keyboard-response","153","260719","0.0-1.0-6.0-3.0-1.32","7:29:45 PM","2","","","","","","","<div>
            <img class='stim' src=""pictures/sports/3.jpg""></div><div class=""button_prompt"">
                    <b>请用数字键1-3回答</b>
                    </div>","","","","","","","","","","","","","","","","","","",""
"593","null","sub_response","html-keyboard-response","154","261734","0.0-1.0-6.0-3.0-2.32","7:29:45 PM","2","","","","","","","<div style='text-align: center;'>
                            <span style=""color: green; font-size: 40px""><b>正确！+1 pts</b></span></div>
                            ","","learn","3","3","3","learn","1","1","[0, 1, 2]","32","4","setsize","8S3A","sports","1","3","2","1",""
"null","null","fixation","html-keyboard-response","155","262246","0.0-1.0-6.0-3.0-0.33","7:29:45 PM","2","","","","","","","fixation","","","","","","","","","","","","","","","","","","",""
"823","3","pic_response","html-keyboard-response","156","263069","0.0-1.0-6.0-3.0-1.33","7:29:45 PM","2","","","","","","","<div>
            <img class='stim' src=""pictures/sports/0.jpg""></div><div class=""button_prompt"">
                    <b>请用数字键1-3回答</b>
                    </div>","","","","","","","","","","","","","","","","","","",""
"823","null","sub_response","html-keyboard-response","157","264087","0.0-1.0-6.0-3.0-2.33","7:29:45 PM","2","","","","","","","<div style='text-align: center;'>
                            <span style=""color: red; font-size: 40px""><b>错误！+0 pts</b></span></div>
                            ","","learn","0","0","0","learn","0","0","[0, 1, 2]","33","4","setsize","8S3A","sports","1","0","3","0",""
"null","null","fixation","html-keyboard-response","158","264599","0.0-1.0-6.0-3.0-0.34","7:29:45 PM","2","","","","","","","fixation","","","","","","","","","","","","","","","","","","",""
"1674","1","pic_response","html-keyboard-response","159","266274","0.0-1.0-6.0-3.0-1.34","7:29:45 PM","2","","","","","","","<div>
            <img class='stim' src=""pictures/sports/1.jpg""></div><div class=""button_prompt"">
                    <b>请用数字键1-3回答</b>
                    </div>","","","","","","","","","","","","","","","","","","",""
"1674","null","sub_response","html-keyboard-response","160","267282","0.0-1.0-6.0-3.0-2.34","7:29:45 PM","2","","","","","","","<div style='text-align: center;'>
                            <span style=""color: green; font-size: 40px""><b>正确！+1 pts</b></span></div>
                            ","","learn","1","1","1","learn","0","0","[0, 1, 2]","34","4","setsize","8S3A","sports","1","1","1","1",""
"null","null","fixation","html-keyboard-response","161","267783","0.0-1.0-6.0-3.0-0.35","7:29:45 PM","2","","","","","","","fixation","","","","","","","","","","","","","","","","","","",""
"726","1","pic_response","html-keyboard-response","162","268510","0.0-1.0-6.0-3.0-1.35","7:29:45 PM","2","","","","","","","<div>
            <img class='stim' src=""pictures/sports/5.jpg""></div><div class=""button_prompt"">
                    <b>请用数字键1-3回答</b>
                    </div>","","","","","","","","","","","","","","","","","","",""
"726","null","sub_response","html-keyboard-response","163","269521","0.0-1.0-6.0-3.0-2.35","7:29:45 PM","2","","","","","","","<div style='text-align: center;'>
                            <span style=""color: red; font-size: 40px""><b>错误！+0 pts</b></span></div>
                            ","","learn","5","5","5","learn","1","1","[0, 1, 2]","35","4","setsize","8S3A","sports","1","0","1","0",""
"null","null","fixation","html-keyboard-response","164","270034","0.0-1.0-6.0-3.0-0.36","7:29:45 PM","2","","","","","","","fixation","","","","","","","","","","","","","","","","","","",""
"741","2","pic_response","html-keyboard-response","165","270776","0.0-1.0-6.0-3.0-1.36","7:29:45 PM","2","","","","","","","<div>
            <img class='stim' src=""pictures/sports/4.jpg""></div><div class=""button_prompt"">
                    <b>请用数字键1-3回答</b>
                    </div>","","","","","","","","","","","","","","","","","","",""
"741","null","sub_response","html-keyboard-response","166","271793","0.0-1.0-6.0-3.0-2.36","7:29:45 PM","2","","","","","","","<div style='text-align: center;'>
                            <span style=""color: green; font-size: 40px""><b>正确！+1 pts</b></span></div>
                            ","","learn","4","4","4","learn","1","1","[0, 1, 2]","36","4","setsize","8S3A","sports","1","1","2","1",""
"null","null","fixation","html-keyboard-response","167","272298","0.0-1.0-6.0-3.0-0.37","7:29:45 PM","2","","","","","","","fixation","","","","","","","","","","","","","","","","","","",""
"1024","3","pic_response","html-keyboard-response","168","273323","0.0-1.0-6.0-3.0-1.37","7:29:45 PM","2","","","","","","","<div>
            <img class='stim' src=""pictures/sports/7.jpg""></div><div class=""button_prompt"">
                    <b>请用数字键1-3回答</b>
                    </div>","","","","","","","","","","","","","","","","","","",""
"1024","null","sub_response","html-keyboard-response","169","274331","0.0-1.0-6.0-3.0-2.37","7:29:45 PM","2","","","","","","","<div style='text-align: center;'>
                            <span style=""color: green; font-size: 40px""><b>正确！+1 pts</b></span></div>
                            ","","learn","7","7","7","learn","2","2","[0, 1, 2]","37","4","setsize","8S3A","sports","1","2","3","1",""
"null","null","fixation","html-keyboard-response","170","274847","0.0-1.0-6.0-3.0-0.38","7:29:45 PM","2","","","","","","","fixation","","","","","","","","","","","","","","","","","","",""
"1507","1","pic_response","html-keyboard-response","171","276355","0.0-1.0-6.0-3.0-1.38","7:29:45 PM","2","","","","","","","<div>
            <img class='stim' src=""pictures/sports/2.jpg""></div><div class=""button_prompt"">
                    <b>请用数字键1-3回答</b>
                    </div>","","","","","","","","","","","","","","","","","","",""
"1507","null","sub_response","html-keyboard-response","172","277366","0.0-1.0-6.0-3.0-2.38","7:29:45 PM","2","","","","","","","<div style='text-align: center;'>
                            <span style=""color: green; font-size: 40px""><b>正确！+1 pts</b></span></div>
                            ","","learn","2","2","2","learn","0","0","[0, 1, 2]","38","4","setsize","8S3A","sports","1","3","1","1",""
"null","null","fixation","html-keyboard-response","173","277868","0.0-1.0-6.0-3.0-0.39","7:29:45 PM","2","","","","","","","fixation","","","","","","","","","","","","","","","","","","",""
"1183","3","pic_response","html-keyboard-response","174","279051","0.0-1.0-6.0-3.0-1.39","7:29:45 PM","2","","","","","","","<div>
            <img class='stim' src=""pictures/sports/6.jpg""></div><div class=""button_prompt"">
                    <b>请用数字键1-3回答</b>
                    </div>","","","","","","","","","","","","","","","","","","",""
"1183","null","sub_response","html-keyboard-response","175","280062","0.0-1.0-6.0-3.0-2.39","7:29:45 PM","2","","","","","","","<div style='text-align: center;'>
                            <span style=""color: green; font-size: 40px""><b>正确！+1 pts</b></span></div>
                            ","","learn","6","6","6","learn","2","2","[0, 1, 2]","39","4","setsize","8S3A","sports","1","4","3","1",""
"null","null","fixation","html-keyboard-response","176","280565","0.0-1.0-6.0-3.0-0.40","7:29:45 PM","2","","","","","","","fixation","","","","","","","","","","","","","","","","","","",""
"633","1","pic_response","html-keyboard-response","177","281199","0.0-1.0-6.0-3.0-1.40","7:29:45 PM","2","","","","","","","<div>
            <img class='stim' src=""pictures/sports/1.jpg""></div><div class=""button_prompt"">
                    <b>请用数字键1-3回答</b>
                    </div>","","","","","","","","","","","","","","","","","","",""
"633","null","sub_response","html-keyboard-response","178","282207","0.0-1.0-6.0-3.0-2.40","7:29:45 PM","2","","","","","","","<div style='text-align: center;'>
                            <span style=""color: green; font-size: 40px""><b>正确！+1 pts</b></span></div>
                            ","","learn","1","1","1","learn","0","0","[0, 1, 2]","40","5","setsize","8S3A","sports","1","5","1","1",""
"null","null","fixation","html-keyboard-response","179","282723","0.0-1.0-6.0-3.0-0.41","7:29:45 PM","2","","","","","","","fixation","","","","","","","","","","","","","","","","","","",""
"740","3","pic_response","html-keyboard-response","180","283463","0.0-1.0-6.0-3.0-1.41","7:29:45 PM","2","","","","","","","<div>
            <img class='stim' src=""pictures/sports/6.jpg""></div><div class=""button_prompt"">
                    <b>请用数字键1-3回答</b>
                    </div>","","","","","","","","","","","","","","","","","","",""
"740","null","sub_response","html-keyboard-response","181","284479","0.0-1.0-6.0-3.0-2.41","7:29:45 PM","2","","","","","","","<div style='text-align: center;'>
                            <span style=""color: green; font-size: 40px""><b>正确！+1 pts</b></span></div>
                            ","","learn","6","6","6","learn","2","2","[0, 1, 2]","41","5","setsize","8S3A","sports","1","6","3","1",""
"null","null","fixation","html-keyboard-response","182","284988","0.0-1.0-6.0-3.0-0.42","7:29:45 PM","2","","","","","","","fixation","","","","","","","","","","","","","","","","","","",""
"1853","2","pic_response","html-keyboard-response","183","286842","0.0-1.0-6.0-3.0-1.42","7:29:45 PM","2","","","","","","","<div>
            <img class='stim' src=""pictures/sports/0.jpg""></div><div class=""button_prompt"">
                    <b>请用数字键1-3回答</b>
                    </div>","","","","","","","","","","","","","","","","","","",""
"1853","null","sub_response","html-keyboard-response","184","287856","0.0-1.0-6.0-3.0-2.42","7:29:45 PM","2","","","","","","","<div style='text-align: center;'>
                            <span style=""color: red; font-size: 40px""><b>错误！+0 pts</b></span></div>
                            ","","learn","0","0","0","learn","0","0","[0, 1, 2]","42","5","setsize","8S3A","sports","1","0","2","0",""
"null","null","fixation","html-keyboard-response","185","288366","0.0-1.0-6.0-3.0-0.43","7:29:45 PM","2","","","","","","","fixation","","","","","","","","","","","","","","","","","","",""
"569","2","pic_response","html-keyboard-response","186","288935","0.0-1.0-6.0-3.0-1.43","7:29:45 PM","2","","","","","","","<div>
            <img class='stim' src=""pictures/sports/3.jpg""></div><div class=""button_prompt"">
                    <b>请用数字键1-3回答</b>
                    </div>","","","","","","","","","","","","","","","","","","",""
"569","null","sub_response","html-keyboard-response","187","289939","0.0-1.0-6.0-3.0-2.43","7:29:45 PM","2","","","","","","","<div style='text-align: center;'>
                            <span style=""color: green; font-size: 40px""><b>正确！+1 pts</b></span></div>
                            ","","learn","3","3","3","learn","1","1","[0, 1, 2]","43","5","setsize","8S3A","sports","1","1","2","1",""
"null","null","fixation","html-keyboard-response","188","290451","0.0-1.0-6.0-3.0-0.44","7:29:45 PM","2","","","","","","","fixation","","","","","","","","","","","","","","","","","","",""
"1089","1","pic_response","html-keyboard-response","189","291541","0.0-1.0-6.0-3.0-1.44","7:29:45 PM","2","","","","","","","<div>
            <img class='stim' src=""pictures/sports/2.jpg""></div><div class=""button_prompt"">
                    <b>请用数字键1-3回答</b>
                    </div>","","","","","","","","","","","","","","","","","","",""
"1089","null","sub_response","html-keyboard-response","190","292552","0.0-1.0-6.0-3.0-2.44","7:29:45 PM","2","","","","","","","<div style='text-align: center;'>
                            <span style=""color: green; font-size: 40px""><b>正确！+1 pts</b></span></div>
                            ","","learn","2","2","2","learn","0","0","[0, 1, 2]","44","5","setsize","8S3A","sports","1","2","1","1",""
"null","null","fixation","html-keyboard-response","191","293062","0.0-1.0-6.0-3.0-0.45","7:29:45 PM","2","","","","","","","fixation","","","","","","","","","","","","","","","","","","",""
"745","3","pic_response","html-keyboard-response","192","293808","0.0-1.0-6.0-3.0-1.45","7:29:45 PM","2","","","","","","","<div>
            <img class='stim' src=""pictures/sports/7.jpg""></div><div class=""button_prompt"">
                    <b>请用数字键1-3回答</b>
                    </div>","","","","","","","","","","","","","","","","","","",""
"745","null","sub_response","html-keyboard-response","193","294817","0.0-1.0-6.0-3.0-2.45","7:29:45 PM","2","","","","","","","<div style='text-align: center;'>
                            <span style=""color: green; font-size: 40px""><b>正确！+1 pts</b></span></div>
                            ","","learn","7","7","7","learn","2","2","[0, 1, 2]","45","5","setsize","8S3A","sports","1","3","3","1",""
"null","null","fixation","html-keyboard-response","194","295330","0.0-1.0-6.0-3.0-0.46","7:29:45 PM","2","","","","","","","fixation","","","","","","","","","","","","","","","","","","",""
"1397","2","pic_response","html-keyboard-response","195","296728","0.0-1.0-6.0-3.0-1.46","7:29:45 PM","2","","","","","","","<div>
            <img class='stim' src=""pictures/sports/5.jpg""></div><div class=""button_prompt"">
                    <b>请用数字键1-3回答</b>
                    </div>","","","","","","","","","","","","","","","","","","",""
"1397","null","sub_response","html-keyboard-response","196","297744","0.0-1.0-6.0-3.0-2.46","7:29:45 PM","2","","","","","","","<div style='text-align: center;'>
                            <span style=""color: green; font-size: 40px""><b>正确！+1 pts</b></span></div>
                            ","","learn","5","5","5","learn","1","1","[0, 1, 2]","46","5","setsize","8S3A","sports","1","4","2","1",""
"null","null","fixation","html-keyboard-response","197","298247","0.0-1.0-6.0-3.0-0.47","7:29:45 PM","2","","","","","","","fixation","","","","","","","","","","","","","","","","","","",""
"572","2","pic_response","html-keyboard-response","198","298820","0.0-1.0-6.0-3.0-1.47","7:29:45 PM","2","","","","","","","<div>
            <img class='stim' src=""pictures/sports/4.jpg""></div><div class=""button_prompt"">
                    <b>请用数字键1-3回答</b>
                    </div>","","","","","","","","","","","","","","","","","","",""
"572","null","sub_response","html-keyboard-response","199","299832","0.0-1.0-6.0-3.0-2.47","7:29:45 PM","2","","","","","","","<div style='text-align: center;'>
                            <span style=""color: green; font-size: 40px""><b>正确！+1 pts</b></span></div>
                            ","","learn","4","4","4","learn","1","1","[0, 1, 2]","47","5","setsize","8S3A","sports","1","5","2","1",""
"null","null","fixation","html-keyboard-response","200","300346","0.0-1.0-6.0-3.0-0.48","7:29:45 PM","2","","","","","","","fixation","","","","","","","","","","","","","","","","","","",""
"851","1","pic_response","html-keyboard-response","201","301198","0.0-1.0-6.0-3.0-1.48","7:29:45 PM","2","","","","","","","<div>
            <img class='stim' src=""pictures/sports/0.jpg""></div><div class=""button_prompt"">
                    <b>请用数字键1-3回答</b>
                    </div>","","","","","","","","","","","","","","","","","","",""
"851","null","sub_response","html-keyboard-response","202","302200","0.0-1.0-6.0-3.0-2.48","7:29:45 PM","2","","","","","","","<div style='text-align: center;'>
                            <span style=""color: green; font-size: 40px""><b>正确！+1 pts</b></span></div>
                            ","","learn","0","0","0","learn","0","0","[0, 1, 2]","48","6","setsize","8S3A","sports","1","6","1","1",""
"null","null","fixation","html-keyboard-response","203","302714","0.0-1.0-6.0-3.0-0.49","7:29:45 PM","2","","","","","","","fixation","","","","","","","","","","","","","","","","","","",""
"950","3","pic_response","html-keyboard-response","204","303664","0.0-1.0-6.0-3.0-1.49","7:29:45 PM","2","","","","","","","<div>
            <img class='stim' src=""pictures/sports/6.jpg""></div><div class=""button_prompt"">
                    <b>请用数字键1-3回答</b>
                    </div>","","","","","","","","","","","","","","","","","","",""
"950","null","sub_response","html-keyboard-response","205","304672","0.0-1.0-6.0-3.0-2.49","7:29:45 PM","2","","","","","","","<div style='text-align: center;'>
                            <span style=""color: green; font-size: 40px""><b>正确！+1 pts</b></span></div>
                            ","","learn","6","6","6","learn","2","2","[0, 1, 2]","49","6","setsize","8S3A","sports","1","7","3","1",""
"null","null","fixation","html-keyboard-response","206","305188","0.0-1.0-6.0-3.0-0.50","7:29:45 PM","2","","","","","","","fixation","","","","","","","","","","","","","","","","","","",""
"1053","2","pic_response","html-keyboard-response","207","306241","0.0-1.0-6.0-3.0-1.50","7:29:45 PM","2","","","","","","","<div>
            <img class='stim' src=""pictures/sports/4.jpg""></div><div class=""button_prompt"">
                    <b>请用数字键1-3回答</b>
                    </div>","","","","","","","","","","","","","","","","","","",""
"1053","null","sub_response","html-keyboard-response","208","307248","0.0-1.0-6.0-3.0-2.50","7:29:45 PM","2","","","","","","","<div style='text-align: center;'>
                            <span style=""color: green; font-size: 40px""><b>正确！+1 pts</b></span></div>
                            ","","learn","4","4","4","learn","1","1","[0, 1, 2]","50","6","setsize","8S3A","sports","1","8","2","1",""
"null","null","fixation","html-keyboard-response","209","307753","0.0-1.0-6.0-3.0-0.51","7:29:45 PM","2","","","","","","","fixation","","","","","","","","","","","","","","","","","","",""
"780","1","pic_response","html-keyboard-response","210","308534","0.0-1.0-6.0-3.0-1.51","7:29:45 PM","2","","","","","","","<div>
            <img class='stim' src=""pictures/sports/2.jpg""></div><div class=""button_prompt"">
                    <b>请用数字键1-3回答</b>
                    </div>","","","","","","","","","","","","","","","","","","",""
"780","null","sub_response","html-keyboard-response","211","309545","0.0-1.0-6.0-3.0-2.51","7:29:45 PM","2","","","","","","","<div style='text-align: center;'>
                            <span style=""color: green; font-size: 40px""><b>正确！+1 pts</b></span></div>
                            ","","learn","2","2","2","learn","0","0","[0, 1, 2]","51","6","setsize","8S3A","sports","1","9","1","1",""
"null","null","fixation","html-keyboard-response","212","310057","0.0-1.0-6.0-3.0-0.52","7:29:45 PM","2","","","","","","","fixation","","","","","","","","","","","","","","","","","","",""
"1253","1","pic_response","html-keyboard-response","213","311311","0.0-1.0-6.0-3.0-1.52","7:29:45 PM","2","","","","","","","<div>
            <img class='stim' src=""pictures/sports/1.jpg""></div><div class=""button_prompt"">
                    <b>请用数字键1-3回答</b>
                    </div>","","","","","","","","","","","","","","","","","","",""
"1253","null","sub_response","html-keyboard-response","214","312317","0.0-1.0-6.0-3.0-2.52","7:29:45 PM","2","","","","","","","<div style='text-align: center;'>
                            <span style=""color: green; font-size: 40px""><b>正确！+1 pts</b></span></div>
                            ","","learn","1","1","1","learn","0","0","[0, 1, 2]","52","6","setsize","8S3A","sports","1","10","1","1",""
"null","null","fixation","html-keyboard-response","215","312832","0.0-1.0-6.0-3.0-0.53","7:29:45 PM","2","","","","","","","fixation","","","","","","","","","","","","","","","","","","",""
"775","2","pic_response","html-keyboard-response","216","313607","0.0-1.0-6.0-3.0-1.53","7:29:45 PM","2","","","","","","","<div>
            <img class='stim' src=""pictures/sports/3.jpg""></div><div class=""button_prompt"">
                    <b>请用数字键1-3回答</b>
                    </div>","","","","","","","","","","","","","","","","","","",""
"775","null","sub_response","html-keyboard-response","217","314616","0.0-1.0-6.0-3.0-2.53","7:29:45 PM","2","","","","","","","<div style='text-align: center;'>
                            <span style=""color: green; font-size: 40px""><b>正确！+1 pts</b></span></div>
                            ","","learn","3","3","3","learn","1","1","[0, 1, 2]","53","6","setsize","8S3A","sports","1","11","2","1",""
"null","null","fixation","html-keyboard-response","218","315128","0.0-1.0-6.0-3.0-0.54","7:29:45 PM","2","","","","","","","fixation","","","","","","","","","","","","","","","","","","",""
"null","null","pic_response","html-keyboard-response","219","318134","0.0-1.0-6.0-3.0-1.54","7:29:45 PM","2","","","","","","","<div>
            <img class='stim' src=""pictures/sports/7.jpg""></div><div class=""button_prompt"">
                    <b>请用数字键1-3回答</b>
                    </div>","","","","","","","","","","","","","","","","","","",""
"null","null","sub_response","html-keyboard-response","220","319147","0.0-1.0-6.0-3.0-2.54","7:29:45 PM","2","","","","","","","<div style='text-align: center;'>
                            <span style=""color: red; font-size: 40px""><b>错误！+0 pts</b></span></div>
                            ","","learn","7","7","7","learn","2","2","[0, 1, 2]","54","6","setsize","8S3A","sports","1","0","0","0",""
"null","null","fixation","html-keyboard-response","221","319648","0.0-1.0-6.0-3.0-0.55","7:29:45 PM","2","","","","","","","fixation","","","","","","","","","","","","","","","","","","",""
"800","1","pic_response","html-keyboard-response","222","320449","0.0-1.0-6.0-3.0-1.55","7:29:45 PM","2","","","","","","","<div>
            <img class='stim' src=""pictures/sports/5.jpg""></div><div class=""button_prompt"">
                    <b>请用数字键1-3回答</b>
                    </div>","","","","","","","","","","","","","","","","","","",""
"800","null","sub_response","html-keyboard-response","223","321463","0.0-1.0-6.0-3.0-2.55","7:29:45 PM","2","","","","","","","<div style='text-align: center;'>
                            <span style=""color: red; font-size: 40px""><b>错误！+0 pts</b></span></div>
                            ","","learn","5","5","5","learn","1","1","[0, 1, 2]","55","6","setsize","8S3A","sports","1","0","1","0",""
"null","null","fixation","html-keyboard-response","224","321979","0.0-1.0-6.0-3.0-0.56","7:29:45 PM","2","","","","","","","fixation","","","","","","","","","","","","","","","","","","",""
"620","2","pic_response","html-keyboard-response","225","322600","0.0-1.0-6.0-3.0-1.56","7:29:45 PM","2","","","","","","","<div>
            <img class='stim' src=""pictures/sports/5.jpg""></div><div class=""button_prompt"">
                    <b>请用数字键1-3回答</b>
                    </div>","","","","","","","","","","","","","","","","","","",""
"620","null","sub_response","html-keyboard-response","226","323605","0.0-1.0-6.0-3.0-2.56","7:29:45 PM","2","","","","","","","<div style='text-align: center;'>
                            <span style=""color: green; font-size: 40px""><b>正确！+1 pts</b></span></div>
                            ","","learn","5","5","5","learn","1","1","[0, 1, 2]","56","7","setsize","8S3A","sports","1","1","2","1",""
"null","null","fixation","html-keyboard-response","227","324117","0.0-1.0-6.0-3.0-0.57","7:29:45 PM","2","","","","","","","fixation","","","","","","","","","","","","","","","","","","",""
"689","1","pic_response","html-keyboard-response","228","324807","0.0-1.0-6.0-3.0-1.57","7:29:45 PM","2","","","","","","","<div>
            <img class='stim' src=""pictures/sports/2.jpg""></div><div class=""button_prompt"">
                    <b>请用数字键1-3回答</b>
                    </div>","","","","","","","","","","","","","","","","","","",""
"689","null","sub_response","html-keyboard-response","229","325810","0.0-1.0-6.0-3.0-2.57","7:29:45 PM","2","","","","","","","<div style='text-align: center;'>
                            <span style=""color: green; font-size: 40px""><b>正确！+1 pts</b></span></div>
                            ","","learn","2","2","2","learn","0","0","[0, 1, 2]","57","7","setsize","8S3A","sports","1","2","1","1",""
"null","null","fixation","html-keyboard-response","230","326317","0.0-1.0-6.0-3.0-0.58","7:29:45 PM","2","","","","","","","fixation","","","","","","","","","","","","","","","","","","",""
"1924","1","pic_response","html-keyboard-response","231","328241","0.0-1.0-6.0-3.0-1.58","7:29:45 PM","2","","","","","","","<div>
            <img class='stim' src=""pictures/sports/1.jpg""></div><div class=""button_prompt"">
                    <b>请用数字键1-3回答</b>
                    </div>","","","","","","","","","","","","","","","","","","",""
"1924","null","sub_response","html-keyboard-response","232","329244","0.0-1.0-6.0-3.0-2.58","7:29:45 PM","2","","","","","","","<div style='text-align: center;'>
                            <span style=""color: green; font-size: 40px""><b>正确！+1 pts</b></span></div>
                            ","","learn","1","1","1","learn","0","0","[0, 1, 2]","58","7","setsize","8S3A","sports","1","3","1","1",""
"null","null","fixation","html-keyboard-response","233","329758","0.0-1.0-6.0-3.0-0.59","7:29:45 PM","2","","","","","","","fixation","","","","","","","","","","","","","","","","","","",""
"722","3","pic_response","html-keyboard-response","234","330481","0.0-1.0-6.0-3.0-1.59","7:29:45 PM","2","","","","","","","<div>
            <img class='stim' src=""pictures/sports/7.jpg""></div><div class=""button_prompt"">
                    <b>请用数字键1-3回答</b>
                    </div>","","","","","","","","","","","","","","","","","","",""
"722","null","sub_response","html-keyboard-response","235","331489","0.0-1.0-6.0-3.0-2.59","7:29:45 PM","2","","","","","","","<div style='text-align: center;'>
                            <span style=""color: green; font-size: 40px""><b>正确！+1 pts</b></span></div>
                            ","","learn","7","7","7","learn","2","2","[0, 1, 2]","59","7","setsize","8S3A","sports","1","4","3","1",""
"null","null","fixation","html-keyboard-response","236","331990","0.0-1.0-6.0-3.0-0.60","7:29:45 PM","2","","","","","","","fixation","","","","","","","","","","","","","","","","","","",""
"868","2","pic_response","html-keyboard-response","237","332859","0.0-1.0-6.0-3.0-1.60","7:29:45 PM","2","","","","","","","<div>
            <img class='stim' src=""pictures/sports/4.jpg""></div><div class=""button_prompt"">
                    <b>请用数字键1-3回答</b>
                    </div>","","","","","","","","","","","","","","","","","","",""
"868","null","sub_response","html-keyboard-response","238","333870","0.0-1.0-6.0-3.0-2.60","7:29:45 PM","2","","","","","","","<div style='text-align: center;'>
                            <span style=""color: green; font-size: 40px""><b>正确！+1 pts</b></span></div>
                            ","","learn","4","4","4","learn","1","1","[0, 1, 2]","60","7","setsize","8S3A","sports","1","5","2","1",""
"null","null","fixation","html-keyboard-response","239","334371","0.0-1.0-6.0-3.0-0.61","7:29:45 PM","2","","","","","","","fixation","","","","","","","","","","","","","","","","","","",""
"1952","1","pic_response","html-keyboard-response","240","336323","0.0-1.0-6.0-3.0-1.61","7:29:45 PM","2","","","","","","","<div>
            <img class='stim' src=""pictures/sports/0.jpg""></div><div class=""button_prompt"">
                    <b>请用数字键1-3回答</b>
                    </div>","","","","","","","","","","","","","","","","","","",""
"1952","null","sub_response","html-keyboard-response","241","337329","0.0-1.0-6.0-3.0-2.61","7:29:45 PM","2","","","","","","","<div style='text-align: center;'>
                            <span style=""color: green; font-size: 40px""><b>正确！+1 pts</b></span></div>
                            ","","learn","0","0","0","learn","0","0","[0, 1, 2]","61","7","setsize","8S3A","sports","1","6","1","1",""
"null","null","fixation","html-keyboard-response","242","337834","0.0-1.0-6.0-3.0-0.62","7:29:45 PM","2","","","","","","","fixation","","","","","","","","","","","","","","","","","","",""
"525","2","pic_response","html-keyboard-response","243","338360","0.0-1.0-6.0-3.0-1.62","7:29:45 PM","2","","","","","","","<div>
            <img class='stim' src=""pictures/sports/3.jpg""></div><div class=""button_prompt"">
                    <b>请用数字键1-3回答</b>
                    </div>","","","","","","","","","","","","","","","","","","",""
"525","null","sub_response","html-keyboard-response","244","339364","0.0-1.0-6.0-3.0-2.62","7:29:45 PM","2","","","","","","","<div style='text-align: center;'>
                            <span style=""color: green; font-size: 40px""><b>正确！+1 pts</b></span></div>
                            ","","learn","3","3","3","learn","1","1","[0, 1, 2]","62","7","setsize","8S3A","sports","1","7","2","1",""
"null","null","fixation","html-keyboard-response","245","339865","0.0-1.0-6.0-3.0-0.63","7:29:45 PM","2","","","","","","","fixation","","","","","","","","","","","","","","","","","","",""
"704","3","pic_response","html-keyboard-response","246","340570","0.0-1.0-6.0-3.0-1.63","7:29:45 PM","2","","","","","","","<div>
            <img class='stim' src=""pictures/sports/6.jpg""></div><div class=""button_prompt"">
                    <b>请用数字键1-3回答</b>
                    </div>","","","","","","","","","","","","","","","","","","",""
"704","null","sub_response","html-keyboard-response","247","341579","0.0-1.0-6.0-3.0-2.63","7:29:45 PM","2","","","","","","","<div style='text-align: center;'>
                            <span style=""color: green; font-size: 40px""><b>正确！+1 pts</b></span></div>
                            ","","learn","6","6","6","learn","2","2","[0, 1, 2]","63","7","setsize","8S3A","sports","1","8","3","1",""
"null","null","fixation","html-keyboard-response","248","342091","0.0-1.0-6.0-3.0-0.64","7:29:45 PM","2","","","","","","","fixation","","","","","","","","","","","","","","","","","","",""
"856","3","pic_response","html-keyboard-response","249","342948","0.0-1.0-6.0-3.0-1.64","7:29:45 PM","2","","","","","","","<div>
            <img class='stim' src=""pictures/sports/6.jpg""></div><div class=""button_prompt"">
                    <b>请用数字键1-3回答</b>
                    </div>","","","","","","","","","","","","","","","","","","",""
"856","null","sub_response","html-keyboard-response","250","343962","0.0-1.0-6.0-3.0-2.64","7:29:45 PM","2","","","","","","","<div style='text-align: center;'>
                            <span style=""color: green; font-size: 40px""><b>正确！+1 pts</b></span></div>
                            ","","learn","6","6","6","learn","2","2","[0, 1, 2]","64","8","setsize","8S3A","sports","1","9","3","1",""
"null","null","fixation","html-keyboard-response","251","344479","0.0-1.0-6.0-3.0-0.65","7:29:45 PM","2","","","","","","","fixation","","","","","","","","","","","","","","","","","","",""
"533","2","pic_response","html-keyboard-response","252","345012","0.0-1.0-6.0-3.0-1.65","7:29:45 PM","2","","","","","","","<div>
            <img class='stim' src=""pictures/sports/3.jpg""></div><div class=""button_prompt"">
                    <b>请用数字键1-3回答</b>
                    </div>","","","","","","","","","","","","","","","","","","",""
"533","null","sub_response","html-keyboard-response","253","346023","0.0-1.0-6.0-3.0-2.65","7:29:45 PM","2","","","","","","","<div style='text-align: center;'>
                            <span style=""color: green; font-size: 40px""><b>正确！+1 pts</b></span></div>
                            ","","learn","3","3","3","learn","1","1","[0, 1, 2]","65","8","setsize","8S3A","sports","1","10","2","1",""
"null","null","fixation","html-keyboard-response","254","346529","0.0-1.0-6.0-3.0-0.66","7:29:45 PM","2","","","","","","","fixation","","","","","","","","","","","","","","","","","","",""
"690","1","pic_response","html-keyboard-response","255","347220","0.0-1.0-6.0-3.0-1.66","7:29:45 PM","2","","","","","","","<div>
            <img class='stim' src=""pictures/sports/0.jpg""></div><div class=""button_prompt"">
                    <b>请用数字键1-3回答</b>
                    </div>","","","","","","","","","","","","","","","","","","",""
"690","null","sub_response","html-keyboard-response","256","348223","0.0-1.0-6.0-3.0-2.66","7:29:45 PM","2","","","","","","","<div style='text-align: center;'>
                            <span style=""color: green; font-size: 40px""><b>正确！+1 pts</b></span></div>
                            ","","learn","0","0","0","learn","0","0","[0, 1, 2]","66","8","setsize","8S3A","sports","1","11","1","1",""
"null","null","fixation","html-keyboard-response","257","348732","0.0-1.0-6.0-3.0-0.67","7:29:45 PM","2","","","","","","","fixation","","","","","","","","","","","","","","","","","","",""
"524","2","pic_response","html-keyboard-response","258","349256","0.0-1.0-6.0-3.0-1.67","7:29:45 PM","2","","","","","","","<div>
            <img class='stim' src=""pictures/sports/4.jpg""></div><div class=""button_prompt"">
                    <b>请用数字键1-3回答</b>
                    </div>","","","","","","","","","","","","","","","","","","",""
"524","null","sub_response","html-keyboard-response","259","350262","0.0-1.0-6.0-3.0-2.67","7:29:45 PM","2","","","","","","","<div style='text-align: center;'>
                            <span style=""color: green; font-size: 40px""><b>正确！+1 pts</b></span></div>
                            ","","learn","4","4","4","learn","1","1","[0, 1, 2]","67","8","setsize","8S3A","sports","1","12","2","1",""
"null","null","fixation","html-keyboard-response","260","350776","0.0-1.0-6.0-3.0-0.68","7:29:45 PM","2","","","","","","","fixation","","","","","","","","","","","","","","","","","","",""
"1061","3","pic_response","html-keyboard-response","261","351838","0.0-1.0-6.0-3.0-1.68","7:29:45 PM","2","","","","","","","<div>
            <img class='stim' src=""pictures/sports/7.jpg""></div><div class=""button_prompt"">
                    <b>请用数字键1-3回答</b>
                    </div>","","","","","","","","","","","","","","","","","","",""
"1061","null","sub_response","html-keyboard-response","262","352851","0.0-1.0-6.0-3.0-2.68","7:29:45 PM","2","","","","","","","<div style='text-align: center;'>
                            <span style=""color: green; font-size: 40px""><b>正确！+1 pts</b></span></div>
                            ","","learn","7","7","7","learn","2","2","[0, 1, 2]","68","8","setsize","8S3A","sports","1","13","3","1",""
"null","null","fixation","html-keyboard-response","263","353367","0.0-1.0-6.0-3.0-0.69","7:29:45 PM","2","","","","","","","fixation","","","","","","","","","","","","","","","","","","",""
"590","2","pic_response","html-keyboard-response","264","353958","0.0-1.0-6.0-3.0-1.69","7:29:45 PM","2","","","","","","","<div>
            <img class='stim' src=""pictures/sports/5.jpg""></div><div class=""button_prompt"">
                    <b>请用数字键1-3回答</b>
                    </div>","","","","","","","","","","","","","","","","","","",""
"590","null","sub_response","html-keyboard-response","265","354963","0.0-1.0-6.0-3.0-2.69","7:29:45 PM","2","","","","","","","<div style='text-align: center;'>
                            <span style=""color: green; font-size: 40px""><b>正确！+1 pts</b></span></div>
                            ","","learn","5","5","5","learn","1","1","[0, 1, 2]","69","8","setsize","8S3A","sports","1","14","2","1",""
"null","null","fixation","html-keyboard-response","266","355477","0.0-1.0-6.0-3.0-0.70","7:29:45 PM","2","","","","","","","fixation","","","","","","","","","","","","","","","","","","",""
"659","1","pic_response","html-keyboard-response","267","356137","0.0-1.0-6.0-3.0-1.70","7:29:45 PM","2","","","","","","","<div>
            <img class='stim' src=""pictures/sports/2.jpg""></div><div class=""button_prompt"">
                    <b>请用数字键1-3回答</b>
                    </div>","","","","","","","","","","","","","","","","","","",""
"659","null","sub_response","html-keyboard-response","268","357153","0.0-1.0-6.0-3.0-2.70","7:29:45 PM","2","","","","","","","<div style='text-align: center;'>
                            <span style=""color: green; font-size: 40px""><b>正确！+1 pts</b></span></div>
                            ","","learn","2","2","2","learn","0","0","[0, 1, 2]","70","8","setsize","8S3A","sports","1","15","1","1",""
"null","null","fixation","html-keyboard-response","269","357667","0.0-1.0-6.0-3.0-0.71","7:29:45 PM","2","","","","","","","fixation","","","","","","","","","","","","","","","","","","",""
"677","1","pic_response","html-keyboard-response","270","358345","0.0-1.0-6.0-3.0-1.71","7:29:45 PM","2","","","","","","","<div>
            <img class='stim' src=""pictures/sports/1.jpg""></div><div class=""button_prompt"">
                    <b>请用数字键1-3回答</b>
                    </div>","","","","","","","","","","","","","","","","","","",""
"677","null","sub_response","html-keyboard-response","271","359348","0.0-1.0-6.0-3.0-2.71","7:29:45 PM","2","","","","","","","<div style='text-align: center;'>
                            <span style=""color: green; font-size: 40px""><b>正确！+1 pts</b></span></div>
                            ","","learn","1","1","1","learn","0","0","[0, 1, 2]","71","8","setsize","8S3A","sports","1","16","1","1",""
"null","null","fixation","html-keyboard-response","272","359865","0.0-1.0-6.0-3.0-0.72","7:29:45 PM","2","","","","","","","fixation","","","","","","","","","","","","","","","","","","",""
"1002","1","pic_response","html-keyboard-response","273","360868","0.0-1.0-6.0-3.0-1.72","7:29:45 PM","2","","","","","","","<div>
            <img class='stim' src=""pictures/sports/0.jpg""></div><div class=""button_prompt"">
                    <b>请用数字键1-3回答</b>
                    </div>","","","","","","","","","","","","","","","","","","",""
"1002","null","sub_response","html-keyboard-response","274","361877","0.0-1.0-6.0-3.0-2.72","7:29:45 PM","2","","","","","","","<div style='text-align: center;'>
                            <span style=""color: green; font-size: 40px""><b>正确！+1 pts</b></span></div>
                            ","","learn","0","0","0","learn","0","0","[0, 1, 2]","72","9","setsize","8S3A","sports","1","17","1","1",""
"null","null","fixation","html-keyboard-response","275","362381","0.0-1.0-6.0-3.0-0.73","7:29:45 PM","2","","","","","","","fixation","","","","","","","","","","","","","","","","","","",""
"583","3","pic_response","html-keyboard-response","276","362965","0.0-1.0-6.0-3.0-1.73","7:29:45 PM","2","","","","","","","<div>
            <img class='stim' src=""pictures/sports/7.jpg""></div><div class=""button_prompt"">
                    <b>请用数字键1-3回答</b>
                    </div>","","","","","","","","","","","","","","","","","","",""
"583","null","sub_response","html-keyboard-response","277","363980","0.0-1.0-6.0-3.0-2.73","7:29:45 PM","2","","","","","","","<div style='text-align: center;'>
                            <span style=""color: green; font-size: 40px""><b>正确！+1 pts</b></span></div>
                            ","","learn","7","7","7","learn","2","2","[0, 1, 2]","73","9","setsize","8S3A","sports","1","18","3","1",""
"null","null","fixation","html-keyboard-response","278","364482","0.0-1.0-6.0-3.0-0.74","7:29:45 PM","2","","","","","","","fixation","","","","","","","","","","","","","","","","","","",""
"518","2","pic_response","html-keyboard-response","279","365001","0.0-1.0-6.0-3.0-1.74","7:29:45 PM","2","","","","","","","<div>
            <img class='stim' src=""pictures/sports/5.jpg""></div><div class=""button_prompt"">
                    <b>请用数字键1-3回答</b>
                    </div>","","","","","","","","","","","","","","","","","","",""
"518","null","sub_response","html-keyboard-response","280","366015","0.0-1.0-6.0-3.0-2.74","7:29:45 PM","2","","","","","","","<div style='text-align: center;'>
                            <span style=""color: green; font-size: 40px""><b>正确！+1 pts</b></span></div>
                            ","","learn","5","5","5","learn","1","1","[0, 1, 2]","74","9","setsize","8S3A","sports","1","19","2","1",""
"null","null","fixation","html-keyboard-response","281","366527","0.0-1.0-6.0-3.0-0.75","7:29:45 PM","2","","","","","","","fixation","","","","","","","","","","","","","","","","","","",""
"593","2","pic_response","html-keyboard-response","282","367121","0.0-1.0-6.0-3.0-1.75","7:29:45 PM","2","","","","","","","<div>
            <img class='stim' src=""pictures/sports/4.jpg""></div><div class=""button_prompt"">
                    <b>请用数字键1-3回答</b>
                    </div>","","","","","","","","","","","","","","","","","","",""
"593","null","sub_response","html-keyboard-response","283","368132","0.0-1.0-6.0-3.0-2.75","7:29:45 PM","2","","","","","","","<div style='text-align: center;'>
                            <span style=""color: green; font-size: 40px""><b>正确！+1 pts</b></span></div>
                            ","","learn","4","4","4","learn","1","1","[0, 1, 2]","75","9","setsize","8S3A","sports","1","20","2","1",""
"null","null","fixation","html-keyboard-response","284","368635","0.0-1.0-6.0-3.0-0.76","7:29:45 PM","2","","","","","","","fixation","","","","","","","","","","","","","","","","","","",""
"1065","1","pic_response","html-keyboard-response","285","369701","0.0-1.0-6.0-3.0-1.76","7:29:45 PM","2","","","","","","","<div>
            <img class='stim' src=""pictures/sports/1.jpg""></div><div class=""button_prompt"">
                    <b>请用数字键1-3回答</b>
                    </div>","","","","","","","","","","","","","","","","","","",""
"1065","null","sub_response","html-keyboard-response","286","370714","0.0-1.0-6.0-3.0-2.76","7:29:45 PM","2","","","","","","","<div style='text-align: center;'>
                            <span style=""color: green; font-size: 40px""><b>正确！+1 pts</b></span></div>
                            ","","learn","1","1","1","learn","0","0","[0, 1, 2]","76","9","setsize","8S3A","sports","1","21","1","1",""
"null","null","fixation","html-keyboard-response","287","371226","0.0-1.0-6.0-3.0-0.77","7:29:45 PM","2","","","","","","","fixation","","","","","","","","","","","","","","","","","","",""
"685","3","pic_response","html-keyboard-response","288","371911","0.0-1.0-6.0-3.0-1.77","7:29:45 PM","2","","","","","","","<div>
            <img class='stim' src=""pictures/sports/6.jpg""></div><div class=""button_prompt"">
                    <b>请用数字键1-3回答</b>
                    </div>","","","","","","","","","","","","","","","","","","",""
"685","null","sub_response","html-keyboard-response","289","372913","0.0-1.0-6.0-3.0-2.77","7:29:45 PM","2","","","","","","","<div style='text-align: center;'>
                            <span style=""color: green; font-size: 40px""><b>正确！+1 pts</b></span></div>
                            ","","learn","6","6","6","learn","2","2","[0, 1, 2]","77","9","setsize","8S3A","sports","1","22","3","1",""
"null","null","fixation","html-keyboard-response","290","373425","0.0-1.0-6.0-3.0-0.78","7:29:45 PM","2","","","","","","","fixation","","","","","","","","","","","","","","","","","","",""
"663","1","pic_response","html-keyboard-response","291","374088","0.0-1.0-6.0-3.0-1.78","7:29:45 PM","2","","","","","","","<div>
            <img class='stim' src=""pictures/sports/2.jpg""></div><div class=""button_prompt"">
                    <b>请用数字键1-3回答</b>
                    </div>","","","","","","","","","","","","","","","","","","",""
"663","null","sub_response","html-keyboard-response","292","375104","0.0-1.0-6.0-3.0-2.78","7:29:45 PM","2","","","","","","","<div style='text-align: center;'>
                            <span style=""color: green; font-size: 40px""><b>正确！+1 pts</b></span></div>
                            ","","learn","2","2","2","learn","0","0","[0, 1, 2]","78","9","setsize","8S3A","sports","1","23","1","1",""
"null","null","fixation","html-keyboard-response","293","375614","0.0-1.0-6.0-3.0-0.79","7:29:45 PM","2","","","","","","","fixation","","","","","","","","","","","","","","","","","","",""
"540","2","pic_response","html-keyboard-response","294","376155","0.0-1.0-6.0-3.0-1.79","7:29:45 PM","2","","","","","","","<div>
            <img class='stim' src=""pictures/sports/3.jpg""></div><div class=""button_prompt"">
                    <b>请用数字键1-3回答</b>
                    </div>","","","","","","","","","","","","","","","","","","",""
"540","null","sub_response","html-keyboard-response","295","377168","0.0-1.0-6.0-3.0-2.79","7:29:45 PM","2","","","","","","","<div style='text-align: center;'>
                            <span style=""color: green; font-size: 40px""><b>正确！+1 pts</b></span></div>
                            ","","learn","3","3","3","learn","1","1","[0, 1, 2]","79","9","setsize","8S3A","sports","1","24","2","1",""
"null","null","fixation","html-keyboard-response","296","377669","0.0-1.0-6.0-3.0-0.80","7:29:45 PM","2","","","","","","","fixation","","","","","","","","","","","","","","","","","","",""
"608","3","pic_response","html-keyboard-response","297","378278","0.0-1.0-6.0-3.0-1.80","7:29:45 PM","2","","","","","","","<div>
            <img class='stim' src=""pictures/sports/7.jpg""></div><div class=""button_prompt"">
                    <b>请用数字键1-3回答</b>
                    </div>","","","","","","","","","","","","","","","","","","",""
"608","null","sub_response","html-keyboard-response","298","379287","0.0-1.0-6.0-3.0-2.80","7:29:45 PM","2","","","","","","","<div style='text-align: center;'>
                            <span style=""color: green; font-size: 40px""><b>正确！+1 pts</b></span></div>
                            ","","learn","7","7","7","learn","2","2","[0, 1, 2]","80","10","setsize","8S3A","sports","1","25","3","1",""
"null","null","fixation","html-keyboard-response","299","379794","0.0-1.0-6.0-3.0-0.81","7:29:45 PM","2","","","","","","","fixation","","","","","","","","","","","","","","","","","","",""
"576","2","pic_response","html-keyboard-response","300","380371","0.0-1.0-6.0-3.0-1.81","7:29:45 PM","2","","","","","","","<div>
            <img class='stim' src=""pictures/sports/5.jpg""></div><div class=""button_prompt"">
                    <b>请用数字键1-3回答</b>
                    </div>","","","","","","","","","","","","","","","","","","",""
"576","null","sub_response","html-keyboard-response","301","381374","0.0-1.0-6.0-3.0-2.81","7:29:45 PM","2","","","","","","","<div style='text-align: center;'>
                            <span style=""color: green; font-size: 40px""><b>正确！+1 pts</b></span></div>
                            ","","learn","5","5","5","learn","1","1","[0, 1, 2]","81","10","setsize","8S3A","sports","1","26","2","1",""
"null","null","fixation","html-keyboard-response","302","381882","0.0-1.0-6.0-3.0-0.82","7:29:45 PM","2","","","","","","","fixation","","","","","","","","","","","","","","","","","","",""
"522","1","pic_response","html-keyboard-response","303","382405","0.0-1.0-6.0-3.0-1.82","7:29:45 PM","2","","","","","","","<div>
            <img class='stim' src=""pictures/sports/2.jpg""></div><div class=""button_prompt"">
                    <b>请用数字键1-3回答</b>
                    </div>","","","","","","","","","","","","","","","","","","",""
"522","null","sub_response","html-keyboard-response","304","383422","0.0-1.0-6.0-3.0-2.82","7:29:45 PM","2","","","","","","","<div style='text-align: center;'>
                            <span style=""color: green; font-size: 40px""><b>正确！+1 pts</b></span></div>
                            ","","learn","2","2","2","learn","0","0","[0, 1, 2]","82","10","setsize","8S3A","sports","1","27","1","1",""
"null","null","fixation","html-keyboard-response","305","383935","0.0-1.0-6.0-3.0-0.83","7:29:45 PM","2","","","","","","","fixation","","","","","","","","","","","","","","","","","","",""
"594","3","pic_response","html-keyboard-response","306","384530","0.0-1.0-6.0-3.0-1.83","7:29:45 PM","2","","","","","","","<div>
            <img class='stim' src=""pictures/sports/6.jpg""></div><div class=""button_prompt"">
                    <b>请用数字键1-3回答</b>
                    </div>","","","","","","","","","","","","","","","","","","",""
"594","null","sub_response","html-keyboard-response","307","385535","0.0-1.0-6.0-3.0-2.83","7:29:45 PM","2","","","","","","","<div style='text-align: center;'>
                            <span style=""color: green; font-size: 40px""><b>正确！+1 pts</b></span></div>
                            ","","learn","6","6","6","learn","2","2","[0, 1, 2]","83","10","setsize","8S3A","sports","1","28","3","1",""
"null","null","fixation","html-keyboard-response","308","386051","0.0-1.0-6.0-3.0-0.84","7:29:45 PM","2","","","","","","","fixation","","","","","","","","","","","","","","","","","","",""
"1140","1","pic_response","html-keyboard-response","309","387192","0.0-1.0-6.0-3.0-1.84","7:29:45 PM","2","","","","","","","<div>
            <img class='stim' src=""pictures/sports/1.jpg""></div><div class=""button_prompt"">
                    <b>请用数字键1-3回答</b>
                    </div>","","","","","","","","","","","","","","","","","","",""
"1140","null","sub_response","html-keyboard-response","310","388205","0.0-1.0-6.0-3.0-2.84","7:29:45 PM","2","","","","","","","<div style='text-align: center;'>
                            <span style=""color: green; font-size: 40px""><b>正确！+1 pts</b></span></div>
                            ","","learn","1","1","1","learn","0","0","[0, 1, 2]","84","10","setsize","8S3A","sports","1","29","1","1",""
"null","null","fixation","html-keyboard-response","311","388717","0.0-1.0-6.0-3.0-0.85","7:29:45 PM","2","","","","","","","fixation","","","","","","","","","","","","","","","","","","",""
"539","2","pic_response","html-keyboard-response","312","389257","0.0-1.0-6.0-3.0-1.85","7:29:45 PM","2","","","","","","","<div>
            <img class='stim' src=""pictures/sports/4.jpg""></div><div class=""button_prompt"">
                    <b>请用数字键1-3回答</b>
                    </div>","","","","","","","","","","","","","","","","","","",""
"539","null","sub_response","html-keyboard-response","313","390272","0.0-1.0-6.0-3.0-2.85","7:29:45 PM","2","","","","","","","<div style='text-align: center;'>
                            <span style=""color: green; font-size: 40px""><b>正确！+1 pts</b></span></div>
                            ","","learn","4","4","4","learn","1","1","[0, 1, 2]","85","10","setsize","8S3A","sports","1","30","2","1",""
"null","null","fixation","html-keyboard-response","314","390774","0.0-1.0-6.0-3.0-0.86","7:29:45 PM","2","","","","","","","fixation","","","","","","","","","","","","","","","","","","",""
"1347","1","pic_response","html-keyboard-response","315","392121","0.0-1.0-6.0-3.0-1.86","7:29:45 PM","2","","","","","","","<div>
            <img class='stim' src=""pictures/sports/0.jpg""></div><div class=""button_prompt"">
                    <b>请用数字键1-3回答</b>
                    </div>","","","","","","","","","","","","","","","","","","",""
"1347","null","sub_response","html-keyboard-response","316","393136","0.0-1.0-6.0-3.0-2.86","7:29:45 PM","2","","","","","","","<div style='text-align: center;'>
                            <span style=""color: green; font-size: 40px""><b>正确！+1 pts</b></span></div>
                            ","","learn","0","0","0","learn","0","0","[0, 1, 2]","86","10","setsize","8S3A","sports","1","31","1","1",""
"null","null","fixation","html-keyboard-response","317","393653","0.0-1.0-6.0-3.0-0.87","7:29:45 PM","2","","","","","","","fixation","","","","","","","","","","","","","","","","","","",""
"477","2","pic_response","html-keyboard-response","318","394130","0.0-1.0-6.0-3.0-1.87","7:29:45 PM","2","","","","","","","<div>
            <img class='stim' src=""pictures/sports/3.jpg""></div><div class=""button_prompt"">
                    <b>请用数字键1-3回答</b>
                    </div>","","","","","","","","","","","","","","","","","","",""
"477","null","sub_response","html-keyboard-response","319","395132","0.0-1.0-6.0-3.0-2.87","7:29:45 PM","2","","","","","","","<div style='text-align: center;'>
                            <span style=""color: green; font-size: 40px""><b>正确！+1 pts</b></span></div>
                            ","","learn","3","3","3","learn","1","1","[0, 1, 2]","87","10","setsize","8S3A","sports","1","32","2","1",""
"null","null","fixation","html-keyboard-response","320","395645","0.0-1.0-6.0-3.0-0.88","7:29:45 PM","2","","","","","","","fixation","","","","","","","","","","","","","","","","","","",""
