"rt","response","screen_id","trial_type","trial_index","time_elapsed","internal_node_id","start_time","n_Prac","success","timeout","failed_images","failed_audio","failed_video","view_history","stimulus","question_order","stage","s","word","word_id","phase","a_cor","a_real","a_ava","trial","tps","task_type","block_typ","pic_typ","block_id","cum_r","a","r","plugin_name"
"928007","{""sub_id"":""CN003"",""task_type"":""task1"",""name"":""HY"",""gender"":""F""}","basic_info","survey-html-form","0","928011","0.0-0.0","20:28:58","4","","","","","","","","","","","","","","","","","","","","","","","","","",""
"","","","preload","1","928031","0.0-1.0-0.0","20:28:58","4","true","false","[]","[]","[]","","","","","","","","","","","","","","","","","","","","",""
"","","","fullscreen","2","934821","0.0-1.0-1.0","20:28:58","4","true","","","","","","","","","","","","","","","","","","","","","","","","",""
"52074","","instruct","instructions","3","986896","0.0-1.0-2.0-0.0","20:28:58","4","","","","","","[{""page_index"":0,""viewing_time"":17679},{""page_index"":1,""viewing_time"":12341},{""page_index"":2,""viewing_time"":22054}]","","","","","","","","","","","","","","","","","","","",""
"27491","{""Q0"":"""",""task1"":""<span style='font-size: 24px'>学习图片和数字的对应关系</span>"",""task2"":""<span style='font-size: 24px'> 数字键1-3 </span>"",""task3"":""<span style='font-size: 24px'> 看到图片选出正确对应的数字 </span>""}","question","survey-multi-choice","4","1014388","0.0-1.0-2.0-1.0","20:28:58","4","","","","","","","","[0,1,2,3]","","","","","","","","","","","","","","","","","",""
"3090"," ","inst_q","html-keyboard-response","5","1017479","0.0-1.0-2.0-2.0","20:28:58","4","","","","","","","inst","","1","","","","","","","","","","","","","","","","",""
"35465","","instruct","instructions","6","1052945","0.0-1.0-2.1-0.1","20:28:58","4","","","","","","[{""page_index"":0,""viewing_time"":6287},{""page_index"":1,""viewing_time"":10867},{""page_index"":0,""viewing_time"":4478},{""page_index"":1,""viewing_time"":1176},{""page_index"":2,""viewing_time"":12658}]","","","","","","","","","","","","","","","","","","","",""
"60613","{""Q0"":"""",""task1"":""<span style='font-size: 24px'>选择正确按钮获得更多能量</span>"",""task2"":""<span style='font-size: 24px'> 图片下方标注为可用的数字键（数字键1-3或1-8） </span>"",""task3"":""<span style='font-size: 24px'> 看到图片选出正确对应的数字 </span>""}","question","survey-multi-choice","7","1113559","0.0-1.0-2.1-1.1","20:28:58","4","","","","","","","","[0,1,2,3]","","","","","","","","","","","","","","","","","",""
"1680"," ","inst_q","html-keyboard-response","8","1115240","0.0-1.0-2.1-2.1","20:28:58","4","","","","","","","inst","","1","","","","","","","","","","","","","","","","",""
"4285","","instruct","instructions","9","1119525","0.0-1.0-2.2-0.2","20:28:58","4","","","","","","[{""page_index"":0,""viewing_time"":2325},{""page_index"":1,""viewing_time"":1304},{""page_index"":2,""viewing_time"":656}]","","","","","","","","","","","","","","","","","","","",""
"8419","{""Q0"":"""",""task1"":""<span style='font-size: 24px'>选择正确按钮获得更多能量</span>"",""task2"":""<span style='font-size: 24px'> 数字键1-3 </span>"",""task3"":""<span style='font-size: 24px'> 看到图片选出正确对应的数字 </span>""}","question","survey-multi-choice","10","1127945","0.0-1.0-2.2-1.2","20:28:58","4","","","","","","","","[0,1,2,3]","","","","","","","","","","","","","","","","","",""
"1311"," ","inst_q","html-keyboard-response","11","1129257","0.0-1.0-2.2-2.2","20:28:58","4","","","","","","","inst","","1","","","","","","","","","","","","","","","","",""
"3118","","instruct","instructions","12","1132376","0.0-1.0-2.3-0.3","20:28:58","4","","","","","","[{""page_index"":0,""viewing_time"":981},{""page_index"":1,""viewing_time"":1008},{""page_index"":2,""viewing_time"":1129}]","","","","","","","","","","","","","","","","","","","",""
"5330","{""Q0"":"""",""task1"":""<span style='font-size: 24px'>学习图片和数字的对应关系</span>"",""task2"":""<span style='font-size: 24px'> 图片下方标注为可用的数字键（数字键1-3或1-8） </span>"",""task3"":""<span style='font-size: 24px'> 看到图片选出正确对应的数字 </span>""}","question","survey-multi-choice","13","1137707","0.0-1.0-2.3-1.3","20:28:58","4","","","","","","","","[0,1,2,3]","","","","","","","","","","","","","","","","","",""
"5979"," ","inst_q","html-keyboard-response","14","1143687","0.0-1.0-2.3-2.3","20:28:58","4","","","","","","","inst","","1","","","","","","","","","","","","","","","","",""
"","","","preload","15","1143691","0.0-1.0-3.0-0.0","20:28:58","4","true","false","[]","[]","[]","","","","","","","","","","","","","","","","","","","","",""
"11004"," ","","html-keyboard-response","16","1154696","0.0-1.0-3.0-1.0","20:28:58","4","","","","","","","<div style='font-size: 32px; text-align: center;'
                    <p>请学习图片和数字之间的对应关系</p>
                    <p>我们将<span style='color: blue'><b> 告诉 </b></span>您选择的对错。请根据反馈学习。</p>
                    <p>请按""空格""继续实验。</p></div>","","","","","","","","","","","","","","","","","","",""
"20974"," ","inst","html-keyboard-response","17","1175670","0.0-1.0-3.0-2.0","20:28:58","4","","","","","","","<img class='instruct_stim' src=""instruction/prac3.png""></div>","","","","","","","","","","","","","","","","","","",""
"null","null","fixation","html-keyboard-response","18","1176171","0.0-1.0-3.0-3.0-0.0","20:28:58","4","","","","","","","fixation","","","","","","","","","","","","","","","","","","",""
"null","null","pic_response","html-keyboard-response","19","1179173","0.0-1.0-3.0-3.0-1.0","20:28:58","4","","","","","","","<div>
            <img class='stim' src=""pictures/prac/0.jpg""></div><div class=""button_prompt"">
                    <b>请用数字键1-3回答</b>
                    </div>","","","","","","","","","","","","","","","","","","",""
"null","null","sub_response","html-keyboard-response","20","1180188","0.0-1.0-3.0-3.0-2.0","20:28:58","4","","","","","","","<div style='text-align: center;'>
                            <span style=""color: red; font-size: 40px""><b>错误！+0 pts</b></span></div>
                            ","","learn","0","0","0","learn","0","0","[0, 1, 2]","0","0","setsize","99","prac","0","0","0","0",""
"null","null","fixation","html-keyboard-response","21","1180696","0.0-1.0-3.0-3.0-0.1","20:28:58","4","","","","","","","fixation","","","","","","","","","","","","","","","","","","",""
"2023","1","pic_response","html-keyboard-response","22","1182719","0.0-1.0-3.0-3.0-1.1","20:28:58","4","","","","","","","<div>
            <img class='stim' src=""pictures/prac/2.jpg""></div><div class=""button_prompt"">
                    <b>请用数字键1-3回答</b>
                    </div>","","","","","","","","","","","","","","","","","","",""
"2023","null","sub_response","html-keyboard-response","23","1183727","0.0-1.0-3.0-3.0-2.1","20:28:58","4","","","","","","","<div style='text-align: center;'>
                            <span style=""color: red; font-size: 40px""><b>错误！+0 pts</b></span></div>
                            ","","learn","2","2","2","learn","2","2","[0, 1, 2]","1","0","setsize","99","prac","0","0","1","0",""
"null","null","fixation","html-keyboard-response","24","1184229","0.0-1.0-3.0-3.0-0.2","20:28:58","4","","","","","","","fixation","","","","","","","","","","","","","","","","","","",""
"894","1","pic_response","html-keyboard-response","25","1185123","0.0-1.0-3.0-3.0-1.2","20:28:58","4","","","","","","","<div>
            <img class='stim' src=""pictures/prac/1.jpg""></div><div class=""button_prompt"">
                    <b>请用数字键1-3回答</b>
                    </div>","","","","","","","","","","","","","","","","","","",""
"894","null","sub_response","html-keyboard-response","26","1186139","0.0-1.0-3.0-3.0-2.2","20:28:58","4","","","","","","","<div style='text-align: center;'>
                            <span style=""color: green; font-size: 40px""><b>正确！+1 pts</b></span></div>
                            ","","learn","1","1","1","learn","0","0","[0, 1, 2]","2","0","setsize","99","prac","0","1","1","1",""
"null","null","fixation","html-keyboard-response","27","1186652","0.0-1.0-3.0-3.0-0.3","20:28:58","4","","","","","","","fixation","","","","","","","","","","","","","","","","","","",""
"2341","2","pic_response","html-keyboard-response","28","1188994","0.0-1.0-3.0-3.0-1.3","20:28:58","4","","","","","","","<div>
            <img class='stim' src=""pictures/prac/0.jpg""></div><div class=""button_prompt"">
                    <b>请用数字键1-3回答</b>
                    </div>","","","","","","","","","","","","","","","","","","",""
"2341","null","sub_response","html-keyboard-response","29","1190010","0.0-1.0-3.0-3.0-2.3","20:28:58","4","","","","","","","<div style='text-align: center;'>
                            <span style=""color: red; font-size: 40px""><b>错误！+0 pts</b></span></div>
                            ","","learn","0","0","0","learn","0","0","[0, 1, 2]","3","1","setsize","99","prac","0","0","2","0",""
"null","null","fixation","html-keyboard-response","30","1190511","0.0-1.0-3.0-3.0-0.4","20:28:58","4","","","","","","","fixation","","","","","","","","","","","","","","","","","","",""
"1065","2","pic_response","html-keyboard-response","31","1191576","0.0-1.0-3.0-3.0-1.4","20:28:58","4","","","","","","","<div>
            <img class='stim' src=""pictures/prac/1.jpg""></div><div class=""button_prompt"">
                    <b>请用数字键1-3回答</b>
                    </div>","","","","","","","","","","","","","","","","","","",""
"1065","null","sub_response","html-keyboard-response","32","1192589","0.0-1.0-3.0-3.0-2.4","20:28:58","4","","","","","","","<div style='text-align: center;'>
                            <span style=""color: red; font-size: 40px""><b>错误！+0 pts</b></span></div>
                            ","","learn","1","1","1","learn","0","0","[0, 1, 2]","4","1","setsize","99","prac","0","0","2","0",""
"null","null","fixation","html-keyboard-response","33","1193103","0.0-1.0-3.0-3.0-0.5","20:28:58","4","","","","","","","fixation","","","","","","","","","","","","","","","","","","",""
"null","null","pic_response","html-keyboard-response","34","1196118","0.0-1.0-3.0-3.0-1.5","20:28:58","4","","","","","","","<div>
            <img class='stim' src=""pictures/prac/2.jpg""></div><div class=""button_prompt"">
                    <b>请用数字键1-3回答</b>
                    </div>","","","","","","","","","","","","","","","","","","",""
"null","null","sub_response","html-keyboard-response","35","1197129","0.0-1.0-3.0-3.0-2.5","20:28:58","4","","","","","","","<div style='text-align: center;'>
                            <span style=""color: red; font-size: 40px""><b>错误！+0 pts</b></span></div>
                            ","","learn","2","2","2","learn","2","2","[0, 1, 2]","5","1","setsize","99","prac","0","0","0","0",""
"","","","preload","36","1197131","0.0-1.0-3.1-0.1","20:28:58","4","true","false","[]","[]","[]","","","","","","","","","","","","","","","","","","","","",""
"3171"," ","","html-keyboard-response","37","1200302","0.0-1.0-3.1-1.1","20:28:58","4","","","","","","","<div style='font-size: 32px; text-align: center;'
                    <p>请学习图片和数字之间的对应关系</p>
                    <p>我们将<span style='color: blue'><b> 告诉 </b></span>您选择的对错。请根据反馈学习。</p>
                    <p>请按""空格""继续实验。</p></div>","","","","","","","","","","","","","","","","","","",""
"1280"," ","inst","html-keyboard-response","38","1201583","0.0-1.0-3.1-2.1","20:28:58","4","","","","","","","<img class='instruct_stim' src=""instruction/prac3.png""></div>","","","","","","","","","","","","","","","","","","",""
"null","null","fixation","html-keyboard-response","39","1202094","0.0-1.0-3.1-3.1-0.6","20:28:58","4","","","","","","","fixation","","","","","","","","","","","","","","","","","","",""
"1564","3","pic_response","html-keyboard-response","40","1203658","0.0-1.0-3.1-3.1-1.6","20:28:58","4","","","","","","","<div>
            <img class='stim' src=""pictures/prac/0.jpg""></div><div class=""button_prompt"">
                    <b>请用数字键1-3回答</b>
                    </div>","","","","","","","","","","","","","","","","","","",""
"1564","null","sub_response","html-keyboard-response","41","1204667","0.0-1.0-3.1-3.1-2.6","20:28:58","4","","","","","","","<div style='text-align: center;'>
                            <span style=""color: red; font-size: 40px""><b>错误！+0 pts</b></span></div>
                            ","","learn","0","0","0","learn","0","0","[0, 1, 2]","0","0","setsize","99","prac","0","0","3","0",""
"null","null","fixation","html-keyboard-response","42","1205174","0.0-1.0-3.1-3.1-0.7","20:28:58","4","","","","","","","fixation","","","","","","","","","","","","","","","","","","",""
"1607","2","pic_response","html-keyboard-response","43","1206782","0.0-1.0-3.1-3.1-1.7","20:28:58","4","","","","","","","<div>
            <img class='stim' src=""pictures/prac/2.jpg""></div><div class=""button_prompt"">
                    <b>请用数字键1-3回答</b>
                    </div>","","","","","","","","","","","","","","","","","","",""
"1607","null","sub_response","html-keyboard-response","44","1207792","0.0-1.0-3.1-3.1-2.7","20:28:58","4","","","","","","","<div style='text-align: center;'>
                            <span style=""color: red; font-size: 40px""><b>错误！+0 pts</b></span></div>
                            ","","learn","2","2","2","learn","2","2","[0, 1, 2]","1","0","setsize","99","prac","0","0","2","0",""
"null","null","fixation","html-keyboard-response","45","1208296","0.0-1.0-3.1-3.1-0.8","20:28:58","4","","","","","","","fixation","","","","","","","","","","","","","","","","","","",""
"635","1","pic_response","html-keyboard-response","46","1208931","0.0-1.0-3.1-3.1-1.8","20:28:58","4","","","","","","","<div>
            <img class='stim' src=""pictures/prac/1.jpg""></div><div class=""button_prompt"">
                    <b>请用数字键1-3回答</b>
                    </div>","","","","","","","","","","","","","","","","","","",""
"635","null","sub_response","html-keyboard-response","47","1209940","0.0-1.0-3.1-3.1-2.8","20:28:58","4","","","","","","","<div style='text-align: center;'>
                            <span style=""color: green; font-size: 40px""><b>正确！+1 pts</b></span></div>
                            ","","learn","1","1","1","learn","0","0","[0, 1, 2]","2","0","setsize","99","prac","0","1","1","1",""
"null","null","fixation","html-keyboard-response","48","1210452","0.0-1.0-3.1-3.1-0.9","20:28:58","4","","","","","","","fixation","","","","","","","","","","","","","","","","","","",""
"827","3","pic_response","html-keyboard-response","49","1211280","0.0-1.0-3.1-3.1-1.9","20:28:58","4","","","","","","","<div>
            <img class='stim' src=""pictures/prac/0.jpg""></div><div class=""button_prompt"">
                    <b>请用数字键1-3回答</b>
                    </div>","","","","","","","","","","","","","","","","","","",""
"827","null","sub_response","html-keyboard-response","50","1212292","0.0-1.0-3.1-3.1-2.9","20:28:58","4","","","","","","","<div style='text-align: center;'>
                            <span style=""color: red; font-size: 40px""><b>错误！+0 pts</b></span></div>
                            ","","learn","0","0","0","learn","0","0","[0, 1, 2]","3","1","setsize","99","prac","0","0","3","0",""
"null","null","fixation","html-keyboard-response","51","1212800","0.0-1.0-3.1-3.1-0.10","20:28:58","4","","","","","","","fixation","","","","","","","","","","","","","","","","","","",""
"1302","1","pic_response","html-keyboard-response","52","1214103","0.0-1.0-3.1-3.1-1.10","20:28:58","4","","","","","","","<div>
            <img class='stim' src=""pictures/prac/1.jpg""></div><div class=""button_prompt"">
                    <b>请用数字键1-3回答</b>
                    </div>","","","","","","","","","","","","","","","","","","",""
"1302","null","sub_response","html-keyboard-response","53","1215111","0.0-1.0-3.1-3.1-2.10","20:28:58","4","","","","","","","<div style='text-align: center;'>
                            <span style=""color: green; font-size: 40px""><b>正确！+1 pts</b></span></div>
                            ","","learn","1","1","1","learn","0","0","[0, 1, 2]","4","1","setsize","99","prac","0","1","1","1",""
"null","null","fixation","html-keyboard-response","54","1215621","0.0-1.0-3.1-3.1-0.11","20:28:58","4","","","","","","","fixation","","","","","","","","","","","","","","","","","","",""
"1036","2","pic_response","html-keyboard-response","55","1216658","0.0-1.0-3.1-3.1-1.11","20:28:58","4","","","","","","","<div>
            <img class='stim' src=""pictures/prac/2.jpg""></div><div class=""button_prompt"">
                    <b>请用数字键1-3回答</b>
                    </div>","","","","","","","","","","","","","","","","","","",""
"1036","null","sub_response","html-keyboard-response","56","1217664","0.0-1.0-3.1-3.1-2.11","20:28:58","4","","","","","","","<div style='text-align: center;'>
                            <span style=""color: red; font-size: 40px""><b>错误！+0 pts</b></span></div>
                            ","","learn","2","2","2","learn","2","2","[0, 1, 2]","5","1","setsize","99","prac","0","0","2","0",""
"","","","preload","57","1217666","0.0-1.0-3.2-0.2","20:28:58","4","true","false","[]","[]","[]","","","","","","","","","","","","","","","","","","","","",""
"1949"," ","","html-keyboard-response","58","1219615","0.0-1.0-3.2-1.2","20:28:58","4","","","","","","","<div style='font-size: 32px; text-align: center;'
                    <p>请学习图片和数字之间的对应关系</p>
                    <p>我们将<span style='color: blue'><b> 告诉 </b></span>您选择的对错。请根据反馈学习。</p>
                    <p>请按""空格""继续实验。</p></div>","","","","","","","","","","","","","","","","","","",""
"2903"," ","inst","html-keyboard-response","59","1222518","0.0-1.0-3.2-2.2","20:28:58","4","","","","","","","<img class='instruct_stim' src=""instruction/prac3.png""></div>","","","","","","","","","","","","","","","","","","",""
"null","null","fixation","html-keyboard-response","60","1223033","0.0-1.0-3.2-3.2-0.12","20:28:58","4","","","","","","","fixation","","","","","","","","","","","","","","","","","","",""
"837","1","pic_response","html-keyboard-response","61","1223870","0.0-1.0-3.2-3.2-1.12","20:28:58","4","","","","","","","<div>
            <img class='stim' src=""pictures/prac/0.jpg""></div><div class=""button_prompt"">
                    <b>请用数字键1-3回答</b>
                    </div>","","","","","","","","","","","","","","","","","","",""
"837","null","sub_response","html-keyboard-response","62","1224877","0.0-1.0-3.2-3.2-2.12","20:28:58","4","","","","","","","<div style='text-align: center;'>
                            <span style=""color: green; font-size: 40px""><b>正确！+1 pts</b></span></div>
                            ","","learn","0","0","0","learn","0","0","[0, 1, 2]","0","0","setsize","99","prac","0","1","1","1",""
"null","null","fixation","html-keyboard-response","63","1225390","0.0-1.0-3.2-3.2-0.13","20:28:58","4","","","","","","","fixation","","","","","","","","","","","","","","","","","","",""
"1532","1","pic_response","html-keyboard-response","64","1226922","0.0-1.0-3.2-3.2-1.13","20:28:58","4","","","","","","","<div>
            <img class='stim' src=""pictures/prac/2.jpg""></div><div class=""button_prompt"">
                    <b>请用数字键1-3回答</b>
                    </div>","","","","","","","","","","","","","","","","","","",""
"1532","null","sub_response","html-keyboard-response","65","1227930","0.0-1.0-3.2-3.2-2.13","20:28:58","4","","","","","","","<div style='text-align: center;'>
                            <span style=""color: red; font-size: 40px""><b>错误！+0 pts</b></span></div>
                            ","","learn","2","2","2","learn","2","2","[0, 1, 2]","1","0","setsize","99","prac","0","0","1","0",""
"null","null","fixation","html-keyboard-response","66","1228441","0.0-1.0-3.2-3.2-0.14","20:28:58","4","","","","","","","fixation","","","","","","","","","","","","","","","","","","",""
"1603","3","pic_response","html-keyboard-response","67","1230045","0.0-1.0-3.2-3.2-1.14","20:28:58","4","","","","","","","<div>
            <img class='stim' src=""pictures/prac/1.jpg""></div><div class=""button_prompt"">
                    <b>请用数字键1-3回答</b>
                    </div>","","","","","","","","","","","","","","","","","","",""
"1603","null","sub_response","html-keyboard-response","68","1231057","0.0-1.0-3.2-3.2-2.14","20:28:58","4","","","","","","","<div style='text-align: center;'>
                            <span style=""color: red; font-size: 40px""><b>错误！+0 pts</b></span></div>
                            ","","learn","1","1","1","learn","0","0","[0, 1, 2]","2","0","setsize","99","prac","0","0","3","0",""
"null","null","fixation","html-keyboard-response","69","1231569","0.0-1.0-3.2-3.2-0.15","20:28:58","4","","","","","","","fixation","","","","","","","","","","","","","","","","","","",""
"755","1","pic_response","html-keyboard-response","70","1232324","0.0-1.0-3.2-3.2-1.15","20:28:58","4","","","","","","","<div>
            <img class='stim' src=""pictures/prac/0.jpg""></div><div class=""button_prompt"">
                    <b>请用数字键1-3回答</b>
                    </div>","","","","","","","","","","","","","","","","","","",""
"755","null","sub_response","html-keyboard-response","71","1233331","0.0-1.0-3.2-3.2-2.15","20:28:58","4","","","","","","","<div style='text-align: center;'>
                            <span style=""color: green; font-size: 40px""><b>正确！+1 pts</b></span></div>
                            ","","learn","0","0","0","learn","0","0","[0, 1, 2]","3","1","setsize","99","prac","0","1","1","1",""
"null","null","fixation","html-keyboard-response","72","1233842","0.0-1.0-3.2-3.2-0.16","20:28:58","4","","","","","","","fixation","","","","","","","","","","","","","","","","","","",""
"432","1","pic_response","html-keyboard-response","73","1234275","0.0-1.0-3.2-3.2-1.16","20:28:58","4","","","","","","","<div>
            <img class='stim' src=""pictures/prac/1.jpg""></div><div class=""button_prompt"">
                    <b>请用数字键1-3回答</b>
                    </div>","","","","","","","","","","","","","","","","","","",""
"432","null","sub_response","html-keyboard-response","74","1235285","0.0-1.0-3.2-3.2-2.16","20:28:58","4","","","","","","","<div style='text-align: center;'>
                            <span style=""color: green; font-size: 40px""><b>正确！+1 pts</b></span></div>
                            ","","learn","1","1","1","learn","0","0","[0, 1, 2]","4","1","setsize","99","prac","0","2","1","1",""
"null","null","fixation","html-keyboard-response","75","1235799","0.0-1.0-3.2-3.2-0.17","20:28:58","4","","","","","","","fixation","","","","","","","","","","","","","","","","","","",""
"709","1","pic_response","html-keyboard-response","76","1236509","0.0-1.0-3.2-3.2-1.17","20:28:58","4","","","","","","","<div>
            <img class='stim' src=""pictures/prac/2.jpg""></div><div class=""button_prompt"">
                    <b>请用数字键1-3回答</b>
                    </div>","","","","","","","","","","","","","","","","","","",""
"709","null","sub_response","html-keyboard-response","77","1237518","0.0-1.0-3.2-3.2-2.17","20:28:58","4","","","","","","","<div style='text-align: center;'>
                            <span style=""color: red; font-size: 40px""><b>错误！+0 pts</b></span></div>
                            ","","learn","2","2","2","learn","2","2","[0, 1, 2]","5","1","setsize","99","prac","0","0","1","0",""
"","","","preload","78","1237519","0.0-1.0-3.3-0.3","20:28:58","4","true","false","[]","[]","[]","","","","","","","","","","","","","","","","","","","","",""
"2515"," ","","html-keyboard-response","79","1240035","0.0-1.0-3.3-1.3","20:28:58","4","","","","","","","<div style='font-size: 32px; text-align: center;'
                    <p>请学习图片和数字之间的对应关系</p>
                    <p>我们将<span style='color: blue'><b> 告诉 </b></span>您选择的对错。请根据反馈学习。</p>
                    <p>请按""空格""继续实验。</p></div>","","","","","","","","","","","","","","","","","","",""
"4978"," ","inst","html-keyboard-response","80","1245014","0.0-1.0-3.3-2.3","20:28:58","4","","","","","","","<img class='instruct_stim' src=""instruction/prac3.png""></div>","","","","","","","","","","","","","","","","","","",""
"null","null","fixation","html-keyboard-response","81","1245528","0.0-1.0-3.3-3.3-0.18","20:28:58","4","","","","","","","fixation","","","","","","","","","","","","","","","","","","",""
"717","1","pic_response","html-keyboard-response","82","1246246","0.0-1.0-3.3-3.3-1.18","20:28:58","4","","","","","","","<div>
            <img class='stim' src=""pictures/prac/0.jpg""></div><div class=""button_prompt"">
                    <b>请用数字键1-3回答</b>
                    </div>","","","","","","","","","","","","","","","","","","",""
"717","null","sub_response","html-keyboard-response","83","1247255","0.0-1.0-3.3-3.3-2.18","20:28:58","4","","","","","","","<div style='text-align: center;'>
                            <span style=""color: green; font-size: 40px""><b>正确！+1 pts</b></span></div>
                            ","","learn","0","0","0","learn","0","0","[0, 1, 2]","0","0","setsize","99","prac","0","1","1","1",""
"null","null","fixation","html-keyboard-response","84","1247770","0.0-1.0-3.3-3.3-0.19","20:28:58","4","","","","","","","fixation","","","","","","","","","","","","","","","","","","",""
"1278","2","pic_response","html-keyboard-response","85","1249048","0.0-1.0-3.3-3.3-1.19","20:28:58","4","","","","","","","<div>
            <img class='stim' src=""pictures/prac/2.jpg""></div><div class=""button_prompt"">
                    <b>请用数字键1-3回答</b>
                    </div>","","","","","","","","","","","","","","","","","","",""
"1278","null","sub_response","html-keyboard-response","86","1250065","0.0-1.0-3.3-3.3-2.19","20:28:58","4","","","","","","","<div style='text-align: center;'>
                            <span style=""color: red; font-size: 40px""><b>错误！+0 pts</b></span></div>
                            ","","learn","2","2","2","learn","2","2","[0, 1, 2]","1","0","setsize","99","prac","0","0","2","0",""
"null","null","fixation","html-keyboard-response","87","1250575","0.0-1.0-3.3-3.3-0.20","20:28:58","4","","","","","","","fixation","","","","","","","","","","","","","","","","","","",""
"462","1","pic_response","html-keyboard-response","88","1251038","0.0-1.0-3.3-3.3-1.20","20:28:58","4","","","","","","","<div>
            <img class='stim' src=""pictures/prac/1.jpg""></div><div class=""button_prompt"">
                    <b>请用数字键1-3回答</b>
                    </div>","","","","","","","","","","","","","","","","","","",""
"462","null","sub_response","html-keyboard-response","89","1252052","0.0-1.0-3.3-3.3-2.20","20:28:58","4","","","","","","","<div style='text-align: center;'>
                            <span style=""color: green; font-size: 40px""><b>正确！+1 pts</b></span></div>
                            ","","learn","1","1","1","learn","0","0","[0, 1, 2]","2","0","setsize","99","prac","0","1","1","1",""
"null","null","fixation","html-keyboard-response","90","1252563","0.0-1.0-3.3-3.3-0.21","20:28:58","4","","","","","","","fixation","","","","","","","","","","","","","","","","","","",""
"864","1","pic_response","html-keyboard-response","91","1253428","0.0-1.0-3.3-3.3-1.21","20:28:58","4","","","","","","","<div>
            <img class='stim' src=""pictures/prac/0.jpg""></div><div class=""button_prompt"">
                    <b>请用数字键1-3回答</b>
                    </div>","","","","","","","","","","","","","","","","","","",""
"864","null","sub_response","html-keyboard-response","92","1254441","0.0-1.0-3.3-3.3-2.21","20:28:58","4","","","","","","","<div style='text-align: center;'>
                            <span style=""color: green; font-size: 40px""><b>正确！+1 pts</b></span></div>
                            ","","learn","0","0","0","learn","0","0","[0, 1, 2]","3","1","setsize","99","prac","0","2","1","1",""
"null","null","fixation","html-keyboard-response","93","1254953","0.0-1.0-3.3-3.3-0.22","20:28:58","4","","","","","","","fixation","","","","","","","","","","","","","","","","","","",""
"714","1","pic_response","html-keyboard-response","94","1255668","0.0-1.0-3.3-3.3-1.22","20:28:58","4","","","","","","","<div>
            <img class='stim' src=""pictures/prac/1.jpg""></div><div class=""button_prompt"">
                    <b>请用数字键1-3回答</b>
                    </div>","","","","","","","","","","","","","","","","","","",""
"714","null","sub_response","html-keyboard-response","95","1256674","0.0-1.0-3.3-3.3-2.22","20:28:58","4","","","","","","","<div style='text-align: center;'>
                            <span style=""color: green; font-size: 40px""><b>正确！+1 pts</b></span></div>
                            ","","learn","1","1","1","learn","0","0","[0, 1, 2]","4","1","setsize","99","prac","0","3","1","1",""
"null","null","fixation","html-keyboard-response","96","1257189","0.0-1.0-3.3-3.3-0.23","20:28:58","4","","","","","","","fixation","","","","","","","","","","","","","","","","","","",""
"469","3","pic_response","html-keyboard-response","97","1257658","0.0-1.0-3.3-3.3-1.23","20:28:58","4","","","","","","","<div>
            <img class='stim' src=""pictures/prac/2.jpg""></div><div class=""button_prompt"">
                    <b>请用数字键1-3回答</b>
                    </div>","","","","","","","","","","","","","","","","","","",""
"469","null","sub_response","html-keyboard-response","98","1258665","0.0-1.0-3.3-3.3-2.23","20:28:58","4","","","","","","","<div style='text-align: center;'>
                            <span style=""color: green; font-size: 40px""><b>正确！+1 pts</b></span></div>
                            ","","learn","2","2","2","learn","2","2","[0, 1, 2]","5","1","setsize","99","prac","0","4","3","1",""
"2717"," ","","html-keyboard-response","99","1261383","0.0-1.0-4.0","20:28:58","4","","","","","","","<div style=""font-size: 25px""><p>距下一个实验开始还有</p><div style=""font-size: 50px; color: blue""><p><span id=""clock"">1:00</span></div></p><p>按""空格""跳过休息</p></div>","","","","","","","","","","","","","","","","","","",""
"1789"," ","","html-keyboard-response","100","1263173","0.0-1.0-5.0","20:28:58","4","","","","","","","<div style='font-size: 32px; text-align: center;'
                    <p>请按""空格""继续正式实验。</p></div>","","","","","","","","","","","","","","","","","","",""
"","","","preload","101","1263186","0.0-1.0-6.0-0.0","20:28:58","4","true","false","[]","[]","[]","","","","","","","","","","","","","","","","","","","","",""
"5334"," ","","html-keyboard-response","102","1268520","0.0-1.0-6.0-1.0","20:28:58","4","","","","","","","<div style='font-size: 32px; text-align: center;'
                    <p>请学习图片和数字之间的对应关系</p>
                    <p>我们将<span style='color: blue'><b> 告诉 </b></span>您选择的对错。请根据反馈学习。</p>
                    <p>请按""空格""继续实验。</p></div>","","","","","","","","","","","","","","","","","","",""
"8618"," ","inst","html-keyboard-response","103","1277139","0.0-1.0-6.0-2.0","20:28:58","4","","","","","","","<img class='instruct_stim' src=""instruction/furniture8.png""></div>","","","","","","","","","","","","","","","","","","",""
"null","null","fixation","html-keyboard-response","104","1277652","0.0-1.0-6.0-3.0-0.0","20:28:58","4","","","","","","","fixation","","","","","","","","","","","","","","","","","","",""
"null","null","pic_response","html-keyboard-response","105","1280668","0.0-1.0-6.0-3.0-1.0","20:28:58","4","","","","","","","<div>
            <img class='stim' src=""pictures/furniture/1.jpg""></div><div class=""button_prompt"">
                    <b>请用数字键1-3回答</b>
                    </div>","","","","","","","","","","","","","","","","","","",""
"null","null","sub_response","html-keyboard-response","106","1281680","0.0-1.0-6.0-3.0-2.0","20:28:58","4","","","","","","","<div style='text-align: center;'>
                            <span style=""color: red; font-size: 40px""><b>错误！+0 pts</b></span></div>
                            ","","learn","1","1","1","learn","0","0","[0, 1, 2]","0","0","setsize","8S3A","furniture","1","0","0","0",""
"null","null","fixation","html-keyboard-response","107","1282184","0.0-1.0-6.0-3.0-0.1","20:28:58","4","","","","","","","fixation","","","","","","","","","","","","","","","","","","",""
"886","1","pic_response","html-keyboard-response","108","1283070","0.0-1.0-6.0-3.0-1.1","20:28:58","4","","","","","","","<div>
            <img class='stim' src=""pictures/furniture/3.jpg""></div><div class=""button_prompt"">
                    <b>请用数字键1-3回答</b>
                    </div>","","","","","","","","","","","","","","","","","","",""
"886","null","sub_response","html-keyboard-response","109","1284080","0.0-1.0-6.0-3.0-2.1","20:28:58","4","","","","","","","<div style='text-align: center;'>
                            <span style=""color: red; font-size: 40px""><b>错误！+0 pts</b></span></div>
                            ","","learn","3","3","3","learn","1","1","[0, 1, 2]","1","0","setsize","8S3A","furniture","1","0","1","0",""
"null","null","fixation","html-keyboard-response","110","1284587","0.0-1.0-6.0-3.0-0.2","20:28:58","4","","","","","","","fixation","","","","","","","","","","","","","","","","","","",""
"581","1","pic_response","html-keyboard-response","111","1285169","0.0-1.0-6.0-3.0-1.2","20:28:58","4","","","","","","","<div>
            <img class='stim' src=""pictures/furniture/7.jpg""></div><div class=""button_prompt"">
                    <b>请用数字键1-3回答</b>
                    </div>","","","","","","","","","","","","","","","","","","",""
"581","null","sub_response","html-keyboard-response","112","1286177","0.0-1.0-6.0-3.0-2.2","20:28:58","4","","","","","","","<div style='text-align: center;'>
                            <span style=""color: red; font-size: 40px""><b>错误！+0 pts</b></span></div>
                            ","","learn","7","7","7","learn","2","2","[0, 1, 2]","2","0","setsize","8S3A","furniture","1","0","1","0",""
"null","null","fixation","html-keyboard-response","113","1286692","0.0-1.0-6.0-3.0-0.3","20:28:58","4","","","","","","","fixation","","","","","","","","","","","","","","","","","","",""
"697","2","pic_response","html-keyboard-response","114","1287390","0.0-1.0-6.0-3.0-1.3","20:28:58","4","","","","","","","<div>
            <img class='stim' src=""pictures/furniture/6.jpg""></div><div class=""button_prompt"">
                    <b>请用数字键1-3回答</b>
                    </div>","","","","","","","","","","","","","","","","","","",""
"697","null","sub_response","html-keyboard-response","115","1288402","0.0-1.0-6.0-3.0-2.3","20:28:58","4","","","","","","","<div style='text-align: center;'>
                            <span style=""color: red; font-size: 40px""><b>错误！+0 pts</b></span></div>
                            ","","learn","6","6","6","learn","2","2","[0, 1, 2]","3","0","setsize","8S3A","furniture","1","0","2","0",""
"null","null","fixation","html-keyboard-response","116","1288904","0.0-1.0-6.0-3.0-0.4","20:28:58","4","","","","","","","fixation","","","","","","","","","","","","","","","","","","",""
"445","1","pic_response","html-keyboard-response","117","1289349","0.0-1.0-6.0-3.0-1.4","20:28:58","4","","","","","","","<div>
            <img class='stim' src=""pictures/furniture/2.jpg""></div><div class=""button_prompt"">
                    <b>请用数字键1-3回答</b>
                    </div>","","","","","","","","","","","","","","","","","","",""
"445","null","sub_response","html-keyboard-response","118","1290359","0.0-1.0-6.0-3.0-2.4","20:28:58","4","","","","","","","<div style='text-align: center;'>
                            <span style=""color: green; font-size: 40px""><b>正确！+1 pts</b></span></div>
                            ","","learn","2","2","2","learn","0","0","[0, 1, 2]","4","0","setsize","8S3A","furniture","1","1","1","1",""
"null","null","fixation","html-keyboard-response","119","1290872","0.0-1.0-6.0-3.0-0.5","20:28:58","4","","","","","","","fixation","","","","","","","","","","","","","","","","","","",""
"821","1","pic_response","html-keyboard-response","120","1291694","0.0-1.0-6.0-3.0-1.5","20:28:58","4","","","","","","","<div>
            <img class='stim' src=""pictures/furniture/5.jpg""></div><div class=""button_prompt"">
                    <b>请用数字键1-3回答</b>
                    </div>","","","","","","","","","","","","","","","","","","",""
"821","null","sub_response","html-keyboard-response","121","1292707","0.0-1.0-6.0-3.0-2.5","20:28:58","4","","","","","","","<div style='text-align: center;'>
                            <span style=""color: red; font-size: 40px""><b>错误！+0 pts</b></span></div>
                            ","","learn","5","5","5","learn","1","1","[0, 1, 2]","5","0","setsize","8S3A","furniture","1","0","1","0",""
"null","null","fixation","html-keyboard-response","122","1293221","0.0-1.0-6.0-3.0-0.6","20:28:58","4","","","","","","","fixation","","","","","","","","","","","","","","","","","","",""
"692","1","pic_response","html-keyboard-response","123","1293913","0.0-1.0-6.0-3.0-1.6","20:28:58","4","","","","","","","<div>
            <img class='stim' src=""pictures/furniture/4.jpg""></div><div class=""button_prompt"">
                    <b>请用数字键1-3回答</b>
                    </div>","","","","","","","","","","","","","","","","","","",""
"692","null","sub_response","html-keyboard-response","124","1294916","0.0-1.0-6.0-3.0-2.6","20:28:58","4","","","","","","","<div style='text-align: center;'>
                            <span style=""color: red; font-size: 40px""><b>错误！+0 pts</b></span></div>
                            ","","learn","4","4","4","learn","1","1","[0, 1, 2]","6","0","setsize","8S3A","furniture","1","0","1","0",""
"null","null","fixation","html-keyboard-response","125","1295432","0.0-1.0-6.0-3.0-0.7","20:28:58","4","","","","","","","fixation","","","","","","","","","","","","","","","","","","",""
"929","1","pic_response","html-keyboard-response","126","1296362","0.0-1.0-6.0-3.0-1.7","20:28:58","4","","","","","","","<div>
            <img class='stim' src=""pictures/furniture/0.jpg""></div><div class=""button_prompt"">
                    <b>请用数字键1-3回答</b>
                    </div>","","","","","","","","","","","","","","","","","","",""
"929","null","sub_response","html-keyboard-response","127","1297375","0.0-1.0-6.0-3.0-2.7","20:28:58","4","","","","","","","<div style='text-align: center;'>
                            <span style=""color: green; font-size: 40px""><b>正确！+1 pts</b></span></div>
                            ","","learn","0","0","0","learn","0","0","[0, 1, 2]","7","0","setsize","8S3A","furniture","1","1","1","1",""
"null","null","fixation","html-keyboard-response","128","1297886","0.0-1.0-6.0-3.0-0.8","20:28:58","4","","","","","","","fixation","","","","","","","","","","","","","","","","","","",""
"948","1","pic_response","html-keyboard-response","129","1298835","0.0-1.0-6.0-3.0-1.8","20:28:58","4","","","","","","","<div>
            <img class='stim' src=""pictures/furniture/3.jpg""></div><div class=""button_prompt"">
                    <b>请用数字键1-3回答</b>
                    </div>","","","","","","","","","","","","","","","","","","",""
"948","null","sub_response","html-keyboard-response","130","1299839","0.0-1.0-6.0-3.0-2.8","20:28:58","4","","","","","","","<div style='text-align: center;'>
                            <span style=""color: red; font-size: 40px""><b>错误！+0 pts</b></span></div>
                            ","","learn","3","3","3","learn","1","1","[0, 1, 2]","8","1","setsize","8S3A","furniture","1","0","1","0",""
"null","null","fixation","html-keyboard-response","131","1300340","0.0-1.0-6.0-3.0-0.9","20:28:58","4","","","","","","","fixation","","","","","","","","","","","","","","","","","","",""
"863","2","pic_response","html-keyboard-response","132","1301204","0.0-1.0-6.0-3.0-1.9","20:28:58","4","","","","","","","<div>
            <img class='stim' src=""pictures/furniture/1.jpg""></div><div class=""button_prompt"">
                    <b>请用数字键1-3回答</b>
                    </div>","","","","","","","","","","","","","","","","","","",""
"863","null","sub_response","html-keyboard-response","133","1302218","0.0-1.0-6.0-3.0-2.9","20:28:58","4","","","","","","","<div style='text-align: center;'>
                            <span style=""color: red; font-size: 40px""><b>错误！+0 pts</b></span></div>
                            ","","learn","1","1","1","learn","0","0","[0, 1, 2]","9","1","setsize","8S3A","furniture","1","0","2","0",""
"null","null","fixation","html-keyboard-response","134","1302730","0.0-1.0-6.0-3.0-0.10","20:28:58","4","","","","","","","fixation","","","","","","","","","","","","","","","","","","",""
"977","1","pic_response","html-keyboard-response","135","1303707","0.0-1.0-6.0-3.0-1.10","20:28:58","4","","","","","","","<div>
            <img class='stim' src=""pictures/furniture/2.jpg""></div><div class=""button_prompt"">
                    <b>请用数字键1-3回答</b>
                    </div>","","","","","","","","","","","","","","","","","","",""
"977","null","sub_response","html-keyboard-response","136","1304718","0.0-1.0-6.0-3.0-2.10","20:28:58","4","","","","","","","<div style='text-align: center;'>
                            <span style=""color: green; font-size: 40px""><b>正确！+1 pts</b></span></div>
                            ","","learn","2","2","2","learn","0","0","[0, 1, 2]","10","1","setsize","8S3A","furniture","1","1","1","1",""
"null","null","fixation","html-keyboard-response","137","1305231","0.0-1.0-6.0-3.0-0.11","20:28:58","4","","","","","","","fixation","","","","","","","","","","","","","","","","","","",""
"895","3","pic_response","html-keyboard-response","138","1306127","0.0-1.0-6.0-3.0-1.11","20:28:58","4","","","","","","","<div>
            <img class='stim' src=""pictures/furniture/4.jpg""></div><div class=""button_prompt"">
                    <b>请用数字键1-3回答</b>
                    </div>","","","","","","","","","","","","","","","","","","",""
"895","null","sub_response","html-keyboard-response","139","1307140","0.0-1.0-6.0-3.0-2.11","20:28:58","4","","","","","","","<div style='text-align: center;'>
                            <span style=""color: red; font-size: 40px""><b>错误！+0 pts</b></span></div>
                            ","","learn","4","4","4","learn","1","1","[0, 1, 2]","11","1","setsize","8S3A","furniture","1","0","3","0",""
"null","null","fixation","html-keyboard-response","140","1307653","0.0-1.0-6.0-3.0-0.12","20:28:58","4","","","","","","","fixation","","","","","","","","","","","","","","","","","","",""
"697","1","pic_response","html-keyboard-response","141","1308351","0.0-1.0-6.0-3.0-1.12","20:28:58","4","","","","","","","<div>
            <img class='stim' src=""pictures/furniture/7.jpg""></div><div class=""button_prompt"">
                    <b>请用数字键1-3回答</b>
                    </div>","","","","","","","","","","","","","","","","","","",""
"697","null","sub_response","html-keyboard-response","142","1309363","0.0-1.0-6.0-3.0-2.12","20:28:58","4","","","","","","","<div style='text-align: center;'>
                            <span style=""color: red; font-size: 40px""><b>错误！+0 pts</b></span></div>
                            ","","learn","7","7","7","learn","2","2","[0, 1, 2]","12","1","setsize","8S3A","furniture","1","0","1","0",""
"null","null","fixation","html-keyboard-response","143","1309875","0.0-1.0-6.0-3.0-0.13","20:28:58","4","","","","","","","fixation","","","","","","","","","","","","","","","","","","",""
"536","1","pic_response","html-keyboard-response","144","1310411","0.0-1.0-6.0-3.0-1.13","20:28:58","4","","","","","","","<div>
            <img class='stim' src=""pictures/furniture/0.jpg""></div><div class=""button_prompt"">
                    <b>请用数字键1-3回答</b>
                    </div>","","","","","","","","","","","","","","","","","","",""
"536","null","sub_response","html-keyboard-response","145","1311419","0.0-1.0-6.0-3.0-2.13","20:28:58","4","","","","","","","<div style='text-align: center;'>
                            <span style=""color: green; font-size: 40px""><b>正确！+1 pts</b></span></div>
                            ","","learn","0","0","0","learn","0","0","[0, 1, 2]","13","1","setsize","8S3A","furniture","1","1","1","1",""
"null","null","fixation","html-keyboard-response","146","1311920","0.0-1.0-6.0-3.0-0.14","20:28:58","4","","","","","","","fixation","","","","","","","","","","","","","","","","","","",""
"664","2","pic_response","html-keyboard-response","147","1312585","0.0-1.0-6.0-3.0-1.14","20:28:58","4","","","","","","","<div>
            <img class='stim' src=""pictures/furniture/6.jpg""></div><div class=""button_prompt"">
                    <b>请用数字键1-3回答</b>
                    </div>","","","","","","","","","","","","","","","","","","",""
"664","null","sub_response","html-keyboard-response","148","1313596","0.0-1.0-6.0-3.0-2.14","20:28:58","4","","","","","","","<div style='text-align: center;'>
                            <span style=""color: red; font-size: 40px""><b>错误！+0 pts</b></span></div>
                            ","","learn","6","6","6","learn","2","2","[0, 1, 2]","14","1","setsize","8S3A","furniture","1","0","2","0",""
"null","null","fixation","html-keyboard-response","149","1314111","0.0-1.0-6.0-3.0-0.15","20:28:58","4","","","","","","","fixation","","","","","","","","","","","","","","","","","","",""
"1367","1","pic_response","html-keyboard-response","150","1315479","0.0-1.0-6.0-3.0-1.15","20:28:58","4","","","","","","","<div>
            <img class='stim' src=""pictures/furniture/5.jpg""></div><div class=""button_prompt"">
                    <b>请用数字键1-3回答</b>
                    </div>","","","","","","","","","","","","","","","","","","",""
"1367","null","sub_response","html-keyboard-response","151","1316487","0.0-1.0-6.0-3.0-2.15","20:28:58","4","","","","","","","<div style='text-align: center;'>
                            <span style=""color: red; font-size: 40px""><b>错误！+0 pts</b></span></div>
                            ","","learn","5","5","5","learn","1","1","[0, 1, 2]","15","1","setsize","8S3A","furniture","1","0","1","0",""
"null","null","fixation","html-keyboard-response","152","1316997","0.0-1.0-6.0-3.0-0.16","20:28:58","4","","","","","","","fixation","","","","","","","","","","","","","","","","","","",""
"1448","3","pic_response","html-keyboard-response","153","1318446","0.0-1.0-6.0-3.0-1.16","20:28:58","4","","","","","","","<div>
            <img class='stim' src=""pictures/furniture/4.jpg""></div><div class=""button_prompt"">
                    <b>请用数字键1-3回答</b>
                    </div>","","","","","","","","","","","","","","","","","","",""
"1448","null","sub_response","html-keyboard-response","154","1319449","0.0-1.0-6.0-3.0-2.16","20:28:58","4","","","","","","","<div style='text-align: center;'>
                            <span style=""color: red; font-size: 40px""><b>错误！+0 pts</b></span></div>
                            ","","learn","4","4","4","learn","1","1","[0, 1, 2]","16","2","setsize","8S3A","furniture","1","0","3","0",""
"null","null","fixation","html-keyboard-response","155","1319965","0.0-1.0-6.0-3.0-0.17","20:28:58","4","","","","","","","fixation","","","","","","","","","","","","","","","","","","",""
"1701","3","pic_response","html-keyboard-response","156","1321667","0.0-1.0-6.0-3.0-1.17","20:28:58","4","","","","","","","<div>
            <img class='stim' src=""pictures/furniture/1.jpg""></div><div class=""button_prompt"">
                    <b>请用数字键1-3回答</b>
                    </div>","","","","","","","","","","","","","","","","","","",""
"1701","null","sub_response","html-keyboard-response","157","1322673","0.0-1.0-6.0-3.0-2.17","20:28:58","4","","","","","","","<div style='text-align: center;'>
                            <span style=""color: red; font-size: 40px""><b>错误！+0 pts</b></span></div>
                            ","","learn","1","1","1","learn","0","0","[0, 1, 2]","17","2","setsize","8S3A","furniture","1","0","3","0",""
"null","null","fixation","html-keyboard-response","158","1323188","0.0-1.0-6.0-3.0-0.18","20:28:58","4","","","","","","","fixation","","","","","","","","","","","","","","","","","","",""
"793","1","pic_response","html-keyboard-response","159","1323981","0.0-1.0-6.0-3.0-1.18","20:28:58","4","","","","","","","<div>
            <img class='stim' src=""pictures/furniture/2.jpg""></div><div class=""button_prompt"">
                    <b>请用数字键1-3回答</b>
                    </div>","","","","","","","","","","","","","","","","","","",""
"793","null","sub_response","html-keyboard-response","160","1324991","0.0-1.0-6.0-3.0-2.18","20:28:58","4","","","","","","","<div style='text-align: center;'>
                            <span style=""color: green; font-size: 40px""><b>正确！+1 pts</b></span></div>
                            ","","learn","2","2","2","learn","0","0","[0, 1, 2]","18","2","setsize","8S3A","furniture","1","1","1","1",""
"null","null","fixation","html-keyboard-response","161","1325493","0.0-1.0-6.0-3.0-0.19","20:28:58","4","","","","","","","fixation","","","","","","","","","","","","","","","","","","",""
"663","1","pic_response","html-keyboard-response","162","1326156","0.0-1.0-6.0-3.0-1.19","20:28:58","4","","","","","","","<div>
            <img class='stim' src=""pictures/furniture/0.jpg""></div><div class=""button_prompt"">
                    <b>请用数字键1-3回答</b>
                    </div>","","","","","","","","","","","","","","","","","","",""
"663","null","sub_response","html-keyboard-response","163","1327166","0.0-1.0-6.0-3.0-2.19","20:28:58","4","","","","","","","<div style='text-align: center;'>
                            <span style=""color: green; font-size: 40px""><b>正确！+1 pts</b></span></div>
                            ","","learn","0","0","0","learn","0","0","[0, 1, 2]","19","2","setsize","8S3A","furniture","1","2","1","1",""
"null","null","fixation","html-keyboard-response","164","1327674","0.0-1.0-6.0-3.0-0.20","20:28:58","4","","","","","","","fixation","","","","","","","","","","","","","","","","","","",""
"885","1","pic_response","html-keyboard-response","165","1328560","0.0-1.0-6.0-3.0-1.20","20:28:58","4","","","","","","","<div>
            <img class='stim' src=""pictures/furniture/5.jpg""></div><div class=""button_prompt"">
                    <b>请用数字键1-3回答</b>
                    </div>","","","","","","","","","","","","","","","","","","",""
"885","null","sub_response","html-keyboard-response","166","1329571","0.0-1.0-6.0-3.0-2.20","20:28:58","4","","","","","","","<div style='text-align: center;'>
                            <span style=""color: red; font-size: 40px""><b>错误！+0 pts</b></span></div>
                            ","","learn","5","5","5","learn","1","1","[0, 1, 2]","20","2","setsize","8S3A","furniture","1","0","1","0",""
"null","null","fixation","html-keyboard-response","167","1330075","0.0-1.0-6.0-3.0-0.21","20:28:58","4","","","","","","","fixation","","","","","","","","","","","","","","","","","","",""
"979","1","pic_response","html-keyboard-response","168","1331054","0.0-1.0-6.0-3.0-1.21","20:28:58","4","","","","","","","<div>
            <img class='stim' src=""pictures/furniture/6.jpg""></div><div class=""button_prompt"">
                    <b>请用数字键1-3回答</b>
                    </div>","","","","","","","","","","","","","","","","","","",""
"979","null","sub_response","html-keyboard-response","169","1332061","0.0-1.0-6.0-3.0-2.21","20:28:58","4","","","","","","","<div style='text-align: center;'>
                            <span style=""color: red; font-size: 40px""><b>错误！+0 pts</b></span></div>
                            ","","learn","6","6","6","learn","2","2","[0, 1, 2]","21","2","setsize","8S3A","furniture","1","0","1","0",""
"null","null","fixation","html-keyboard-response","170","1332577","0.0-1.0-6.0-3.0-0.22","20:28:58","4","","","","","","","fixation","","","","","","","","","","","","","","","","","","",""
"650","1","pic_response","html-keyboard-response","171","1333229","0.0-1.0-6.0-3.0-1.22","20:28:58","4","","","","","","","<div>
            <img class='stim' src=""pictures/furniture/7.jpg""></div><div class=""button_prompt"">
                    <b>请用数字键1-3回答</b>
                    </div>","","","","","","","","","","","","","","","","","","",""
"650","null","sub_response","html-keyboard-response","172","1334244","0.0-1.0-6.0-3.0-2.22","20:28:58","4","","","","","","","<div style='text-align: center;'>
                            <span style=""color: red; font-size: 40px""><b>错误！+0 pts</b></span></div>
                            ","","learn","7","7","7","learn","2","2","[0, 1, 2]","22","2","setsize","8S3A","furniture","1","0","1","0",""
"null","null","fixation","html-keyboard-response","173","1334757","0.0-1.0-6.0-3.0-0.23","20:28:58","4","","","","","","","fixation","","","","","","","","","","","","","","","","","","",""
"595","1","pic_response","html-keyboard-response","174","1335353","0.0-1.0-6.0-3.0-1.23","20:28:58","4","","","","","","","<div>
            <img class='stim' src=""pictures/furniture/3.jpg""></div><div class=""button_prompt"">
                    <b>请用数字键1-3回答</b>
                    </div>","","","","","","","","","","","","","","","","","","",""
"595","null","sub_response","html-keyboard-response","175","1336361","0.0-1.0-6.0-3.0-2.23","20:28:58","4","","","","","","","<div style='text-align: center;'>
                            <span style=""color: red; font-size: 40px""><b>错误！+0 pts</b></span></div>
                            ","","learn","3","3","3","learn","1","1","[0, 1, 2]","23","2","setsize","8S3A","furniture","1","0","1","0",""
"null","null","fixation","html-keyboard-response","176","1336876","0.0-1.0-6.0-3.0-0.24","20:28:58","4","","","","","","","fixation","","","","","","","","","","","","","","","","","","",""
"816","2","pic_response","html-keyboard-response","177","1337692","0.0-1.0-6.0-3.0-1.24","20:28:58","4","","","","","","","<div>
            <img class='stim' src=""pictures/furniture/3.jpg""></div><div class=""button_prompt"">
                    <b>请用数字键1-3回答</b>
                    </div>","","","","","","","","","","","","","","","","","","",""
"816","null","sub_response","html-keyboard-response","178","1338702","0.0-1.0-6.0-3.0-2.24","20:28:58","4","","","","","","","<div style='text-align: center;'>
                            <span style=""color: green; font-size: 40px""><b>正确！+1 pts</b></span></div>
                            ","","learn","3","3","3","learn","1","1","[0, 1, 2]","24","3","setsize","8S3A","furniture","1","1","2","1",""
"null","null","fixation","html-keyboard-response","179","1339219","0.0-1.0-6.0-3.0-0.25","20:28:58","4","","","","","","","fixation","","","","","","","","","","","","","","","","","","",""
"611","1","pic_response","html-keyboard-response","180","1339831","0.0-1.0-6.0-3.0-1.25","20:28:58","4","","","","","","","<div>
            <img class='stim' src=""pictures/furniture/0.jpg""></div><div class=""button_prompt"">
                    <b>请用数字键1-3回答</b>
                    </div>","","","","","","","","","","","","","","","","","","",""
"611","null","sub_response","html-keyboard-response","181","1340837","0.0-1.0-6.0-3.0-2.25","20:28:58","4","","","","","","","<div style='text-align: center;'>
                            <span style=""color: green; font-size: 40px""><b>正确！+1 pts</b></span></div>
                            ","","learn","0","0","0","learn","0","0","[0, 1, 2]","25","3","setsize","8S3A","furniture","1","2","1","1",""
"null","null","fixation","html-keyboard-response","182","1341353","0.0-1.0-6.0-3.0-0.26","20:28:58","4","","","","","","","fixation","","","","","","","","","","","","","","","","","","",""
"1072","3","pic_response","html-keyboard-response","183","1342426","0.0-1.0-6.0-3.0-1.26","20:28:58","4","","","","","","","<div>
            <img class='stim' src=""pictures/furniture/1.jpg""></div><div class=""button_prompt"">
                    <b>请用数字键1-3回答</b>
                    </div>","","","","","","","","","","","","","","","","","","",""
"1072","null","sub_response","html-keyboard-response","184","1343434","0.0-1.0-6.0-3.0-2.26","20:28:58","4","","","","","","","<div style='text-align: center;'>
                            <span style=""color: red; font-size: 40px""><b>错误！+0 pts</b></span></div>
                            ","","learn","1","1","1","learn","0","0","[0, 1, 2]","26","3","setsize","8S3A","furniture","1","0","3","0",""
"null","null","fixation","html-keyboard-response","185","1343940","0.0-1.0-6.0-3.0-0.27","20:28:58","4","","","","","","","fixation","","","","","","","","","","","","","","","","","","",""
"1147","3","pic_response","html-keyboard-response","186","1345088","0.0-1.0-6.0-3.0-1.27","20:28:58","4","","","","","","","<div>
            <img class='stim' src=""pictures/furniture/7.jpg""></div><div class=""button_prompt"">
                    <b>请用数字键1-3回答</b>
                    </div>","","","","","","","","","","","","","","","","","","",""
"1147","null","sub_response","html-keyboard-response","187","1346100","0.0-1.0-6.0-3.0-2.27","20:28:58","4","","","","","","","<div style='text-align: center;'>
                            <span style=""color: green; font-size: 40px""><b>正确！+1 pts</b></span></div>
                            ","","learn","7","7","7","learn","2","2","[0, 1, 2]","27","3","setsize","8S3A","furniture","1","1","3","1",""
"null","null","fixation","html-keyboard-response","188","1346610","0.0-1.0-6.0-3.0-0.28","20:28:58","4","","","","","","","fixation","","","","","","","","","","","","","","","","","","",""
"691","1","pic_response","html-keyboard-response","189","1347302","0.0-1.0-6.0-3.0-1.28","20:28:58","4","","","","","","","<div>
            <img class='stim' src=""pictures/furniture/2.jpg""></div><div class=""button_prompt"">
                    <b>请用数字键1-3回答</b>
                    </div>","","","","","","","","","","","","","","","","","","",""
"691","null","sub_response","html-keyboard-response","190","1348317","0.0-1.0-6.0-3.0-2.28","20:28:58","4","","","","","","","<div style='text-align: center;'>
                            <span style=""color: green; font-size: 40px""><b>正确！+1 pts</b></span></div>
                            ","","learn","2","2","2","learn","0","0","[0, 1, 2]","28","3","setsize","8S3A","furniture","1","2","1","1",""
"null","null","fixation","html-keyboard-response","191","1348832","0.0-1.0-6.0-3.0-0.29","20:28:58","4","","","","","","","fixation","","","","","","","","","","","","","","","","","","",""
"849","3","pic_response","html-keyboard-response","192","1349682","0.0-1.0-6.0-3.0-1.29","20:28:58","4","","","","","","","<div>
            <img class='stim' src=""pictures/furniture/5.jpg""></div><div class=""button_prompt"">
                    <b>请用数字键1-3回答</b>
                    </div>","","","","","","","","","","","","","","","","","","",""
"849","null","sub_response","html-keyboard-response","193","1350692","0.0-1.0-6.0-3.0-2.29","20:28:58","4","","","","","","","<div style='text-align: center;'>
                            <span style=""color: red; font-size: 40px""><b>错误！+0 pts</b></span></div>
                            ","","learn","5","5","5","learn","1","1","[0, 1, 2]","29","3","setsize","8S3A","furniture","1","0","3","0",""
"null","null","fixation","html-keyboard-response","194","1351209","0.0-1.0-6.0-3.0-0.30","20:28:58","4","","","","","","","fixation","","","","","","","","","","","","","","","","","","",""
"885","3","pic_response","html-keyboard-response","195","1352095","0.0-1.0-6.0-3.0-1.30","20:28:58","4","","","","","","","<div>
            <img class='stim' src=""pictures/furniture/6.jpg""></div><div class=""button_prompt"">
                    <b>请用数字键1-3回答</b>
                    </div>","","","","","","","","","","","","","","","","","","",""
"885","null","sub_response","html-keyboard-response","196","1353102","0.0-1.0-6.0-3.0-2.30","20:28:58","4","","","","","","","<div style='text-align: center;'>
                            <span style=""color: green; font-size: 40px""><b>正确！+1 pts</b></span></div>
                            ","","learn","6","6","6","learn","2","2","[0, 1, 2]","30","3","setsize","8S3A","furniture","1","1","3","1",""
"null","null","fixation","html-keyboard-response","197","1353613","0.0-1.0-6.0-3.0-0.31","20:28:58","4","","","","","","","fixation","","","","","","","","","","","","","","","","","","",""
"911","3","pic_response","html-keyboard-response","198","1354524","0.0-1.0-6.0-3.0-1.31","20:28:58","4","","","","","","","<div>
            <img class='stim' src=""pictures/furniture/4.jpg""></div><div class=""button_prompt"">
                    <b>请用数字键1-3回答</b>
                    </div>","","","","","","","","","","","","","","","","","","",""
"911","null","sub_response","html-keyboard-response","199","1355539","0.0-1.0-6.0-3.0-2.31","20:28:58","4","","","","","","","<div style='text-align: center;'>
                            <span style=""color: red; font-size: 40px""><b>错误！+0 pts</b></span></div>
                            ","","learn","4","4","4","learn","1","1","[0, 1, 2]","31","3","setsize","8S3A","furniture","1","0","3","0",""
"null","null","fixation","html-keyboard-response","200","1356052","0.0-1.0-6.0-3.0-0.32","20:28:58","4","","","","","","","fixation","","","","","","","","","","","","","","","","","","",""
"705","1","pic_response","html-keyboard-response","201","1356758","0.0-1.0-6.0-3.0-1.32","20:28:58","4","","","","","","","<div>
            <img class='stim' src=""pictures/furniture/0.jpg""></div><div class=""button_prompt"">
                    <b>请用数字键1-3回答</b>
                    </div>","","","","","","","","","","","","","","","","","","",""
"705","null","sub_response","html-keyboard-response","202","1357767","0.0-1.0-6.0-3.0-2.32","20:28:58","4","","","","","","","<div style='text-align: center;'>
                            <span style=""color: green; font-size: 40px""><b>正确！+1 pts</b></span></div>
                            ","","learn","0","0","0","learn","0","0","[0, 1, 2]","32","4","setsize","8S3A","furniture","1","1","1","1",""
"null","null","fixation","html-keyboard-response","203","1358280","0.0-1.0-6.0-3.0-0.33","20:28:58","4","","","","","","","fixation","","","","","","","","","","","","","","","","","","",""
"1027","3","pic_response","html-keyboard-response","204","1359309","0.0-1.0-6.0-3.0-1.33","20:28:58","4","","","","","","","<div>
            <img class='stim' src=""pictures/furniture/4.jpg""></div><div class=""button_prompt"">
                    <b>请用数字键1-3回答</b>
                    </div>","","","","","","","","","","","","","","","","","","",""
"1027","null","sub_response","html-keyboard-response","205","1360321","0.0-1.0-6.0-3.0-2.33","20:28:58","4","","","","","","","<div style='text-align: center;'>
                            <span style=""color: red; font-size: 40px""><b>错误！+0 pts</b></span></div>
                            ","","learn","4","4","4","learn","1","1","[0, 1, 2]","33","4","setsize","8S3A","furniture","1","0","3","0",""
"null","null","fixation","html-keyboard-response","206","1360831","0.0-1.0-6.0-3.0-0.34","20:28:58","4","","","","","","","fixation","","","","","","","","","","","","","","","","","","",""
"1013","2","pic_response","html-keyboard-response","207","1361845","0.0-1.0-6.0-3.0-1.34","20:28:58","4","","","","","","","<div>
            <img class='stim' src=""pictures/furniture/6.jpg""></div><div class=""button_prompt"">
                    <b>请用数字键1-3回答</b>
                    </div>","","","","","","","","","","","","","","","","","","",""
"1013","null","sub_response","html-keyboard-response","208","1362858","0.0-1.0-6.0-3.0-2.34","20:28:58","4","","","","","","","<div style='text-align: center;'>
                            <span style=""color: red; font-size: 40px""><b>错误！+0 pts</b></span></div>
                            ","","learn","6","6","6","learn","2","2","[0, 1, 2]","34","4","setsize","8S3A","furniture","1","0","2","0",""
"null","null","fixation","html-keyboard-response","209","1363369","0.0-1.0-6.0-3.0-0.35","20:28:58","4","","","","","","","fixation","","","","","","","","","","","","","","","","","","",""
"890","1","pic_response","html-keyboard-response","210","1364260","0.0-1.0-6.0-3.0-1.35","20:28:58","4","","","","","","","<div>
            <img class='stim' src=""pictures/furniture/7.jpg""></div><div class=""button_prompt"">
                    <b>请用数字键1-3回答</b>
                    </div>","","","","","","","","","","","","","","","","","","",""
"890","null","sub_response","html-keyboard-response","211","1365273","0.0-1.0-6.0-3.0-2.35","20:28:58","4","","","","","","","<div style='text-align: center;'>
                            <span style=""color: red; font-size: 40px""><b>错误！+0 pts</b></span></div>
                            ","","learn","7","7","7","learn","2","2","[0, 1, 2]","35","4","setsize","8S3A","furniture","1","0","1","0",""
"null","null","fixation","html-keyboard-response","212","1365789","0.0-1.0-6.0-3.0-0.36","20:28:58","4","","","","","","","fixation","","","","","","","","","","","","","","","","","","",""
"699","1","pic_response","html-keyboard-response","213","1366488","0.0-1.0-6.0-3.0-1.36","20:28:58","4","","","","","","","<div>
            <img class='stim' src=""pictures/furniture/2.jpg""></div><div class=""button_prompt"">
                    <b>请用数字键1-3回答</b>
                    </div>","","","","","","","","","","","","","","","","","","",""
"699","null","sub_response","html-keyboard-response","214","1367495","0.0-1.0-6.0-3.0-2.36","20:28:58","4","","","","","","","<div style='text-align: center;'>
                            <span style=""color: green; font-size: 40px""><b>正确！+1 pts</b></span></div>
                            ","","learn","2","2","2","learn","0","0","[0, 1, 2]","36","4","setsize","8S3A","furniture","1","1","1","1",""
"null","null","fixation","html-keyboard-response","215","1368008","0.0-1.0-6.0-3.0-0.37","20:28:58","4","","","","","","","fixation","","","","","","","","","","","","","","","","","","",""
"879","3","pic_response","html-keyboard-response","216","1368888","0.0-1.0-6.0-3.0-1.37","20:28:58","4","","","","","","","<div>
            <img class='stim' src=""pictures/furniture/3.jpg""></div><div class=""button_prompt"">
                    <b>请用数字键1-3回答</b>
                    </div>","","","","","","","","","","","","","","","","","","",""
"879","null","sub_response","html-keyboard-response","217","1369898","0.0-1.0-6.0-3.0-2.37","20:28:58","4","","","","","","","<div style='text-align: center;'>
                            <span style=""color: red; font-size: 40px""><b>错误！+0 pts</b></span></div>
                            ","","learn","3","3","3","learn","1","1","[0, 1, 2]","37","4","setsize","8S3A","furniture","1","0","3","0",""
"null","null","fixation","html-keyboard-response","218","1370406","0.0-1.0-6.0-3.0-0.38","20:28:58","4","","","","","","","fixation","","","","","","","","","","","","","","","","","","",""
"780","3","pic_response","html-keyboard-response","219","1371187","0.0-1.0-6.0-3.0-1.38","20:28:58","4","","","","","","","<div>
            <img class='stim' src=""pictures/furniture/5.jpg""></div><div class=""button_prompt"">
                    <b>请用数字键1-3回答</b>
                    </div>","","","","","","","","","","","","","","","","","","",""
"780","null","sub_response","html-keyboard-response","220","1372201","0.0-1.0-6.0-3.0-2.38","20:28:58","4","","","","","","","<div style='text-align: center;'>
                            <span style=""color: red; font-size: 40px""><b>错误！+0 pts</b></span></div>
                            ","","learn","5","5","5","learn","1","1","[0, 1, 2]","38","4","setsize","8S3A","furniture","1","0","3","0",""
"null","null","fixation","html-keyboard-response","221","1372703","0.0-1.0-6.0-3.0-0.39","20:28:58","4","","","","","","","fixation","","","","","","","","","","","","","","","","","","",""
"1187","3","pic_response","html-keyboard-response","222","1373890","0.0-1.0-6.0-3.0-1.39","20:28:58","4","","","","","","","<div>
            <img class='stim' src=""pictures/furniture/1.jpg""></div><div class=""button_prompt"">
                    <b>请用数字键1-3回答</b>
                    </div>","","","","","","","","","","","","","","","","","","",""
"1187","null","sub_response","html-keyboard-response","223","1374903","0.0-1.0-6.0-3.0-2.39","20:28:58","4","","","","","","","<div style='text-align: center;'>
                            <span style=""color: red; font-size: 40px""><b>错误！+0 pts</b></span></div>
                            ","","learn","1","1","1","learn","0","0","[0, 1, 2]","39","4","setsize","8S3A","furniture","1","0","3","0",""
"null","null","fixation","html-keyboard-response","224","1375419","0.0-1.0-6.0-3.0-0.40","20:28:58","4","","","","","","","fixation","","","","","","","","","","","","","","","","","","",""
"886","3","pic_response","html-keyboard-response","225","1376305","0.0-1.0-6.0-3.0-1.40","20:28:58","4","","","","","","","<div>
            <img class='stim' src=""pictures/furniture/7.jpg""></div><div class=""button_prompt"">
                    <b>请用数字键1-3回答</b>
                    </div>","","","","","","","","","","","","","","","","","","",""
"886","null","sub_response","html-keyboard-response","226","1377314","0.0-1.0-6.0-3.0-2.40","20:28:58","4","","","","","","","<div style='text-align: center;'>
                            <span style=""color: green; font-size: 40px""><b>正确！+1 pts</b></span></div>
                            ","","learn","7","7","7","learn","2","2","[0, 1, 2]","40","5","setsize","8S3A","furniture","1","1","3","1",""
"null","null","fixation","html-keyboard-response","227","1377830","0.0-1.0-6.0-3.0-0.41","20:28:58","4","","","","","","","fixation","","","","","","","","","","","","","","","","","","",""
"783","1","pic_response","html-keyboard-response","228","1378613","0.0-1.0-6.0-3.0-1.41","20:28:58","4","","","","","","","<div>
            <img class='stim' src=""pictures/furniture/0.jpg""></div><div class=""button_prompt"">
                    <b>请用数字键1-3回答</b>
                    </div>","","","","","","","","","","","","","","","","","","",""
"783","null","sub_response","html-keyboard-response","229","1379619","0.0-1.0-6.0-3.0-2.41","20:28:58","4","","","","","","","<div style='text-align: center;'>
                            <span style=""color: green; font-size: 40px""><b>正确！+1 pts</b></span></div>
                            ","","learn","0","0","0","learn","0","0","[0, 1, 2]","41","5","setsize","8S3A","furniture","1","2","1","1",""
"null","null","fixation","html-keyboard-response","230","1380130","0.0-1.0-6.0-3.0-0.42","20:28:58","4","","","","","","","fixation","","","","","","","","","","","","","","","","","","",""
"562","1","pic_response","html-keyboard-response","231","1380693","0.0-1.0-6.0-3.0-1.42","20:28:58","4","","","","","","","<div>
            <img class='stim' src=""pictures/furniture/2.jpg""></div><div class=""button_prompt"">
                    <b>请用数字键1-3回答</b>
                    </div>","","","","","","","","","","","","","","","","","","",""
"562","null","sub_response","html-keyboard-response","232","1381706","0.0-1.0-6.0-3.0-2.42","20:28:58","4","","","","","","","<div style='text-align: center;'>
                            <span style=""color: green; font-size: 40px""><b>正确！+1 pts</b></span></div>
                            ","","learn","2","2","2","learn","0","0","[0, 1, 2]","42","5","setsize","8S3A","furniture","1","3","1","1",""
"null","null","fixation","html-keyboard-response","233","1382220","0.0-1.0-6.0-3.0-0.43","20:28:58","4","","","","","","","fixation","","","","","","","","","","","","","","","","","","",""
"971","2","pic_response","html-keyboard-response","234","1383192","0.0-1.0-6.0-3.0-1.43","20:28:58","4","","","","","","","<div>
            <img class='stim' src=""pictures/furniture/6.jpg""></div><div class=""button_prompt"">
                    <b>请用数字键1-3回答</b>
                    </div>","","","","","","","","","","","","","","","","","","",""
"971","null","sub_response","html-keyboard-response","235","1384207","0.0-1.0-6.0-3.0-2.43","20:28:58","4","","","","","","","<div style='text-align: center;'>
                            <span style=""color: red; font-size: 40px""><b>错误！+0 pts</b></span></div>
                            ","","learn","6","6","6","learn","2","2","[0, 1, 2]","43","5","setsize","8S3A","furniture","1","0","2","0",""
"null","null","fixation","html-keyboard-response","236","1384718","0.0-1.0-6.0-3.0-0.44","20:28:58","4","","","","","","","fixation","","","","","","","","","","","","","","","","","","",""
"937","1","pic_response","html-keyboard-response","237","1385655","0.0-1.0-6.0-3.0-1.44","20:28:58","4","","","","","","","<div>
            <img class='stim' src=""pictures/furniture/3.jpg""></div><div class=""button_prompt"">
                    <b>请用数字键1-3回答</b>
                    </div>","","","","","","","","","","","","","","","","","","",""
"937","null","sub_response","html-keyboard-response","238","1386665","0.0-1.0-6.0-3.0-2.44","20:28:58","4","","","","","","","<div style='text-align: center;'>
                            <span style=""color: red; font-size: 40px""><b>错误！+0 pts</b></span></div>
                            ","","learn","3","3","3","learn","1","1","[0, 1, 2]","44","5","setsize","8S3A","furniture","1","0","1","0",""
"null","null","fixation","html-keyboard-response","239","1387180","0.0-1.0-6.0-3.0-0.45","20:28:58","4","","","","","","","fixation","","","","","","","","","","","","","","","","","","",""
"1297","2","pic_response","html-keyboard-response","240","1388478","0.0-1.0-6.0-3.0-1.45","20:28:58","4","","","","","","","<div>
            <img class='stim' src=""pictures/furniture/4.jpg""></div><div class=""button_prompt"">
                    <b>请用数字键1-3回答</b>
                    </div>","","","","","","","","","","","","","","","","","","",""
"1297","null","sub_response","html-keyboard-response","241","1389482","0.0-1.0-6.0-3.0-2.45","20:28:58","4","","","","","","","<div style='text-align: center;'>
                            <span style=""color: green; font-size: 40px""><b>正确！+1 pts</b></span></div>
                            ","","learn","4","4","4","learn","1","1","[0, 1, 2]","45","5","setsize","8S3A","furniture","1","1","2","1",""
"null","null","fixation","html-keyboard-response","242","1389998","0.0-1.0-6.0-3.0-0.46","20:28:58","4","","","","","","","fixation","","","","","","","","","","","","","","","","","","",""
"818","2","pic_response","html-keyboard-response","243","1390817","0.0-1.0-6.0-3.0-1.46","20:28:58","4","","","","","","","<div>
            <img class='stim' src=""pictures/furniture/5.jpg""></div><div class=""button_prompt"">
                    <b>请用数字键1-3回答</b>
                    </div>","","","","","","","","","","","","","","","","","","",""
"818","null","sub_response","html-keyboard-response","244","1391824","0.0-1.0-6.0-3.0-2.46","20:28:58","4","","","","","","","<div style='text-align: center;'>
                            <span style=""color: green; font-size: 40px""><b>正确！+1 pts</b></span></div>
                            ","","learn","5","5","5","learn","1","1","[0, 1, 2]","46","5","setsize","8S3A","furniture","1","2","2","1",""
"null","null","fixation","html-keyboard-response","245","1392335","0.0-1.0-6.0-3.0-0.47","20:28:58","4","","","","","","","fixation","","","","","","","","","","","","","","","","","","",""
"856","1","pic_response","html-keyboard-response","246","1393192","0.0-1.0-6.0-3.0-1.47","20:28:58","4","","","","","","","<div>
            <img class='stim' src=""pictures/furniture/1.jpg""></div><div class=""button_prompt"">
                    <b>请用数字键1-3回答</b>
                    </div>","","","","","","","","","","","","","","","","","","",""
"856","null","sub_response","html-keyboard-response","247","1394207","0.0-1.0-6.0-3.0-2.47","20:28:58","4","","","","","","","<div style='text-align: center;'>
                            <span style=""color: green; font-size: 40px""><b>正确！+1 pts</b></span></div>
                            ","","learn","1","1","1","learn","0","0","[0, 1, 2]","47","5","setsize","8S3A","furniture","1","3","1","1",""
"null","null","fixation","html-keyboard-response","248","1394723","0.0-1.0-6.0-3.0-0.48","20:28:58","4","","","","","","","fixation","","","","","","","","","","","","","","","","","","",""
"1540","1","pic_response","html-keyboard-response","249","1396264","0.0-1.0-6.0-3.0-1.48","20:28:58","4","","","","","","","<div>
            <img class='stim' src=""pictures/furniture/7.jpg""></div><div class=""button_prompt"">
                    <b>请用数字键1-3回答</b>
                    </div>","","","","","","","","","","","","","","","","","","",""
"1540","null","sub_response","html-keyboard-response","250","1397271","0.0-1.0-6.0-3.0-2.48","20:28:58","4","","","","","","","<div style='text-align: center;'>
                            <span style=""color: red; font-size: 40px""><b>错误！+0 pts</b></span></div>
                            ","","learn","7","7","7","learn","2","2","[0, 1, 2]","48","6","setsize","8S3A","furniture","1","0","1","0",""
"null","null","fixation","html-keyboard-response","251","1397784","0.0-1.0-6.0-3.0-0.49","20:28:58","4","","","","","","","fixation","","","","","","","","","","","","","","","","","","",""
"942","3","pic_response","html-keyboard-response","252","1398727","0.0-1.0-6.0-3.0-1.49","20:28:58","4","","","","","","","<div>
            <img class='stim' src=""pictures/furniture/3.jpg""></div><div class=""button_prompt"">
                    <b>请用数字键1-3回答</b>
                    </div>","","","","","","","","","","","","","","","","","","",""
"942","null","sub_response","html-keyboard-response","253","1399738","0.0-1.0-6.0-3.0-2.49","20:28:58","4","","","","","","","<div style='text-align: center;'>
                            <span style=""color: red; font-size: 40px""><b>错误！+0 pts</b></span></div>
                            ","","learn","3","3","3","learn","1","1","[0, 1, 2]","49","6","setsize","8S3A","furniture","1","0","3","0",""
"null","null","fixation","html-keyboard-response","254","1400252","0.0-1.0-6.0-3.0-0.50","20:28:58","4","","","","","","","fixation","","","","","","","","","","","","","","","","","","",""
"430","1","pic_response","html-keyboard-response","255","1400682","0.0-1.0-6.0-3.0-1.50","20:28:58","4","","","","","","","<div>
            <img class='stim' src=""pictures/furniture/0.jpg""></div><div class=""button_prompt"">
                    <b>请用数字键1-3回答</b>
                    </div>","","","","","","","","","","","","","","","","","","",""
"430","null","sub_response","html-keyboard-response","256","1401691","0.0-1.0-6.0-3.0-2.50","20:28:58","4","","","","","","","<div style='text-align: center;'>
                            <span style=""color: green; font-size: 40px""><b>正确！+1 pts</b></span></div>
                            ","","learn","0","0","0","learn","0","0","[0, 1, 2]","50","6","setsize","8S3A","furniture","1","1","1","1",""
"null","null","fixation","html-keyboard-response","257","1402208","0.0-1.0-6.0-3.0-0.51","20:28:58","4","","","","","","","fixation","","","","","","","","","","","","","","","","","","",""
"294","1","pic_response","html-keyboard-response","258","1402502","0.0-1.0-6.0-3.0-1.51","20:28:58","4","","","","","","","<div>
            <img class='stim' src=""pictures/furniture/5.jpg""></div><div class=""button_prompt"">
                    <b>请用数字键1-3回答</b>
                    </div>","","","","","","","","","","","","","","","","","","",""
"294","null","sub_response","html-keyboard-response","259","1403510","0.0-1.0-6.0-3.0-2.51","20:28:58","4","","","","","","","<div style='text-align: center;'>
                            <span style=""color: red; font-size: 40px""><b>错误！+0 pts</b></span></div>
                            ","","learn","5","5","5","learn","1","1","[0, 1, 2]","51","6","setsize","8S3A","furniture","1","0","1","0",""
"null","null","fixation","html-keyboard-response","260","1404022","0.0-1.0-6.0-3.0-0.52","20:28:58","4","","","","","","","fixation","","","","","","","","","","","","","","","","","","",""
"774","3","pic_response","html-keyboard-response","261","1404797","0.0-1.0-6.0-3.0-1.52","20:28:58","4","","","","","","","<div>
            <img class='stim' src=""pictures/furniture/4.jpg""></div><div class=""button_prompt"">
                    <b>请用数字键1-3回答</b>
                    </div>","","","","","","","","","","","","","","","","","","",""
"774","null","sub_response","html-keyboard-response","262","1405809","0.0-1.0-6.0-3.0-2.52","20:28:58","4","","","","","","","<div style='text-align: center;'>
                            <span style=""color: red; font-size: 40px""><b>错误！+0 pts</b></span></div>
                            ","","learn","4","4","4","learn","1","1","[0, 1, 2]","52","6","setsize","8S3A","furniture","1","0","3","0",""
"null","null","fixation","html-keyboard-response","263","1406319","0.0-1.0-6.0-3.0-0.53","20:28:58","4","","","","","","","fixation","","","","","","","","","","","","","","","","","","",""
"377","2","pic_response","html-keyboard-response","264","1406697","0.0-1.0-6.0-3.0-1.53","20:28:58","4","","","","","","","<div>
            <img class='stim' src=""pictures/furniture/6.jpg""></div><div class=""button_prompt"">
                    <b>请用数字键1-3回答</b>
                    </div>","","","","","","","","","","","","","","","","","","",""
"377","null","sub_response","html-keyboard-response","265","1407704","0.0-1.0-6.0-3.0-2.53","20:28:58","4","","","","","","","<div style='text-align: center;'>
                            <span style=""color: red; font-size: 40px""><b>错误！+0 pts</b></span></div>
                            ","","learn","6","6","6","learn","2","2","[0, 1, 2]","53","6","setsize","8S3A","furniture","1","0","2","0",""
"null","null","fixation","html-keyboard-response","266","1408206","0.0-1.0-6.0-3.0-0.54","20:28:58","4","","","","","","","fixation","","","","","","","","","","","","","","","","","","",""
"914","1","pic_response","html-keyboard-response","267","1409121","0.0-1.0-6.0-3.0-1.54","20:28:58","4","","","","","","","<div>
            <img class='stim' src=""pictures/furniture/2.jpg""></div><div class=""button_prompt"">
                    <b>请用数字键1-3回答</b>
                    </div>","","","","","","","","","","","","","","","","","","",""
"914","null","sub_response","html-keyboard-response","268","1410130","0.0-1.0-6.0-3.0-2.54","20:28:58","4","","","","","","","<div style='text-align: center;'>
                            <span style=""color: green; font-size: 40px""><b>正确！+1 pts</b></span></div>
                            ","","learn","2","2","2","learn","0","0","[0, 1, 2]","54","6","setsize","8S3A","furniture","1","1","1","1",""
"null","null","fixation","html-keyboard-response","269","1410641","0.0-1.0-6.0-3.0-0.55","20:28:58","4","","","","","","","fixation","","","","","","","","","","","","","","","","","","",""
"1072","2","pic_response","html-keyboard-response","270","1411714","0.0-1.0-6.0-3.0-1.55","20:28:58","4","","","","","","","<div>
            <img class='stim' src=""pictures/furniture/1.jpg""></div><div class=""button_prompt"">
                    <b>请用数字键1-3回答</b>
                    </div>","","","","","","","","","","","","","","","","","","",""
"1072","null","sub_response","html-keyboard-response","271","1412727","0.0-1.0-6.0-3.0-2.55","20:28:58","4","","","","","","","<div style='text-align: center;'>
                            <span style=""color: red; font-size: 40px""><b>错误！+0 pts</b></span></div>
                            ","","learn","1","1","1","learn","0","0","[0, 1, 2]","55","6","setsize","8S3A","furniture","1","0","2","0",""
"null","null","fixation","html-keyboard-response","272","1413240","0.0-1.0-6.0-3.0-0.56","20:28:58","4","","","","","","","fixation","","","","","","","","","","","","","","","","","","",""
"1155","2","pic_response","html-keyboard-response","273","1414397","0.0-1.0-6.0-3.0-1.56","20:28:58","4","","","","","","","<div>
            <img class='stim' src=""pictures/furniture/3.jpg""></div><div class=""button_prompt"">
                    <b>请用数字键1-3回答</b>
                    </div>","","","","","","","","","","","","","","","","","","",""
"1155","null","sub_response","html-keyboard-response","274","1415403","0.0-1.0-6.0-3.0-2.56","20:28:58","4","","","","","","","<div style='text-align: center;'>
                            <span style=""color: green; font-size: 40px""><b>正确！+1 pts</b></span></div>
                            ","","learn","3","3","3","learn","1","1","[0, 1, 2]","56","7","setsize","8S3A","furniture","1","1","2","1",""
"null","null","fixation","html-keyboard-response","275","1415917","0.0-1.0-6.0-3.0-0.57","20:28:58","4","","","","","","","fixation","","","","","","","","","","","","","","","","","","",""
"624","1","pic_response","html-keyboard-response","276","1416542","0.0-1.0-6.0-3.0-1.57","20:28:58","4","","","","","","","<div>
            <img class='stim' src=""pictures/furniture/1.jpg""></div><div class=""button_prompt"">
                    <b>请用数字键1-3回答</b>
                    </div>","","","","","","","","","","","","","","","","","","",""
"624","null","sub_response","html-keyboard-response","277","1417549","0.0-1.0-6.0-3.0-2.57","20:28:58","4","","","","","","","<div style='text-align: center;'>
                            <span style=""color: green; font-size: 40px""><b>正确！+1 pts</b></span></div>
                            ","","learn","1","1","1","learn","0","0","[0, 1, 2]","57","7","setsize","8S3A","furniture","1","2","1","1",""
"null","null","fixation","html-keyboard-response","278","1418063","0.0-1.0-6.0-3.0-0.58","20:28:58","4","","","","","","","fixation","","","","","","","","","","","","","","","","","","",""
"594","1","pic_response","html-keyboard-response","279","1418658","0.0-1.0-6.0-3.0-1.58","20:28:58","4","","","","","","","<div>
            <img class='stim' src=""pictures/furniture/6.jpg""></div><div class=""button_prompt"">
                    <b>请用数字键1-3回答</b>
                    </div>","","","","","","","","","","","","","","","","","","",""
"594","null","sub_response","html-keyboard-response","280","1419672","0.0-1.0-6.0-3.0-2.58","20:28:58","4","","","","","","","<div style='text-align: center;'>
                            <span style=""color: red; font-size: 40px""><b>错误！+0 pts</b></span></div>
                            ","","learn","6","6","6","learn","2","2","[0, 1, 2]","58","7","setsize","8S3A","furniture","1","0","1","0",""
"null","null","fixation","html-keyboard-response","281","1420184","0.0-1.0-6.0-3.0-0.59","20:28:58","4","","","","","","","fixation","","","","","","","","","","","","","","","","","","",""
"511","1","pic_response","html-keyboard-response","282","1420696","0.0-1.0-6.0-3.0-1.59","20:28:58","4","","","","","","","<div>
            <img class='stim' src=""pictures/furniture/2.jpg""></div><div class=""button_prompt"">
                    <b>请用数字键1-3回答</b>
                    </div>","","","","","","","","","","","","","","","","","","",""
"511","null","sub_response","html-keyboard-response","283","1421702","0.0-1.0-6.0-3.0-2.59","20:28:58","4","","","","","","","<div style='text-align: center;'>
                            <span style=""color: green; font-size: 40px""><b>正确！+1 pts</b></span></div>
                            ","","learn","2","2","2","learn","0","0","[0, 1, 2]","59","7","setsize","8S3A","furniture","1","1","1","1",""
"null","null","fixation","html-keyboard-response","284","1422218","0.0-1.0-6.0-3.0-0.60","20:28:58","4","","","","","","","fixation","","","","","","","","","","","","","","","","","","",""
"517","1","pic_response","html-keyboard-response","285","1422737","0.0-1.0-6.0-3.0-1.60","20:28:58","4","","","","","","","<div>
            <img class='stim' src=""pictures/furniture/7.jpg""></div><div class=""button_prompt"">
                    <b>请用数字键1-3回答</b>
                    </div>","","","","","","","","","","","","","","","","","","",""
"517","null","sub_response","html-keyboard-response","286","1423749","0.0-1.0-6.0-3.0-2.60","20:28:58","4","","","","","","","<div style='text-align: center;'>
                            <span style=""color: red; font-size: 40px""><b>错误！+0 pts</b></span></div>
                            ","","learn","7","7","7","learn","2","2","[0, 1, 2]","60","7","setsize","8S3A","furniture","1","0","1","0",""
"null","null","fixation","html-keyboard-response","287","1424262","0.0-1.0-6.0-3.0-0.61","20:28:58","4","","","","","","","fixation","","","","","","","","","","","","","","","","","","",""
"633","1","pic_response","html-keyboard-response","288","1424895","0.0-1.0-6.0-3.0-1.61","20:28:58","4","","","","","","","<div>
            <img class='stim' src=""pictures/furniture/0.jpg""></div><div class=""button_prompt"">
                    <b>请用数字键1-3回答</b>
                    </div>","","","","","","","","","","","","","","","","","","",""
"633","null","sub_response","html-keyboard-response","289","1425899","0.0-1.0-6.0-3.0-2.61","20:28:58","4","","","","","","","<div style='text-align: center;'>
                            <span style=""color: green; font-size: 40px""><b>正确！+1 pts</b></span></div>
                            ","","learn","0","0","0","learn","0","0","[0, 1, 2]","61","7","setsize","8S3A","furniture","1","1","1","1",""
"null","null","fixation","html-keyboard-response","290","1426411","0.0-1.0-6.0-3.0-0.62","20:28:58","4","","","","","","","fixation","","","","","","","","","","","","","","","","","","",""
"1093","2","pic_response","html-keyboard-response","291","1427505","0.0-1.0-6.0-3.0-1.62","20:28:58","4","","","","","","","<div>
            <img class='stim' src=""pictures/furniture/5.jpg""></div><div class=""button_prompt"">
                    <b>请用数字键1-3回答</b>
                    </div>","","","","","","","","","","","","","","","","","","",""
"1093","null","sub_response","html-keyboard-response","292","1428513","0.0-1.0-6.0-3.0-2.62","20:28:58","4","","","","","","","<div style='text-align: center;'>
                            <span style=""color: green; font-size: 40px""><b>正确！+1 pts</b></span></div>
                            ","","learn","5","5","5","learn","1","1","[0, 1, 2]","62","7","setsize","8S3A","furniture","1","2","2","1",""
"null","null","fixation","html-keyboard-response","293","1429030","0.0-1.0-6.0-3.0-0.63","20:28:58","4","","","","","","","fixation","","","","","","","","","","","","","","","","","","",""
"784","3","pic_response","html-keyboard-response","294","1429814","0.0-1.0-6.0-3.0-1.63","20:28:58","4","","","","","","","<div>
            <img class='stim' src=""pictures/furniture/4.jpg""></div><div class=""button_prompt"">
                    <b>请用数字键1-3回答</b>
                    </div>","","","","","","","","","","","","","","","","","","",""
"784","null","sub_response","html-keyboard-response","295","1430826","0.0-1.0-6.0-3.0-2.63","20:28:58","4","","","","","","","<div style='text-align: center;'>
                            <span style=""color: red; font-size: 40px""><b>错误！+0 pts</b></span></div>
                            ","","learn","4","4","4","learn","1","1","[0, 1, 2]","63","7","setsize","8S3A","furniture","1","0","3","0",""
"null","null","fixation","html-keyboard-response","296","1431342","0.0-1.0-6.0-3.0-0.64","20:28:58","4","","","","","","","fixation","","","","","","","","","","","","","","","","","","",""
"899","1","pic_response","html-keyboard-response","297","1432242","0.0-1.0-6.0-3.0-1.64","20:28:58","4","","","","","","","<div>
            <img class='stim' src=""pictures/furniture/1.jpg""></div><div class=""button_prompt"">
                    <b>请用数字键1-3回答</b>
                    </div>","","","","","","","","","","","","","","","","","","",""
"899","null","sub_response","html-keyboard-response","298","1433255","0.0-1.0-6.0-3.0-2.64","20:28:58","4","","","","","","","<div style='text-align: center;'>
                            <span style=""color: green; font-size: 40px""><b>正确！+1 pts</b></span></div>
                            ","","learn","1","1","1","learn","0","0","[0, 1, 2]","64","8","setsize","8S3A","furniture","1","1","1","1",""
"null","null","fixation","html-keyboard-response","299","1433759","0.0-1.0-6.0-3.0-0.65","20:28:58","4","","","","","","","fixation","","","","","","","","","","","","","","","","","","",""
"1046","3","pic_response","html-keyboard-response","300","1434805","0.0-1.0-6.0-3.0-1.65","20:28:58","4","","","","","","","<div>
            <img class='stim' src=""pictures/furniture/3.jpg""></div><div class=""button_prompt"">
                    <b>请用数字键1-3回答</b>
                    </div>","","","","","","","","","","","","","","","","","","",""
"1046","null","sub_response","html-keyboard-response","301","1435816","0.0-1.0-6.0-3.0-2.65","20:28:58","4","","","","","","","<div style='text-align: center;'>
                            <span style=""color: red; font-size: 40px""><b>错误！+0 pts</b></span></div>
                            ","","learn","3","3","3","learn","1","1","[0, 1, 2]","65","8","setsize","8S3A","furniture","1","0","3","0",""
"null","null","fixation","html-keyboard-response","302","1436329","0.0-1.0-6.0-3.0-0.66","20:28:58","4","","","","","","","fixation","","","","","","","","","","","","","","","","","","",""
"1149","1","pic_response","html-keyboard-response","303","1437479","0.0-1.0-6.0-3.0-1.66","20:28:58","4","","","","","","","<div>
            <img class='stim' src=""pictures/furniture/6.jpg""></div><div class=""button_prompt"">
                    <b>请用数字键1-3回答</b>
                    </div>","","","","","","","","","","","","","","","","","","",""
"1149","null","sub_response","html-keyboard-response","304","1438490","0.0-1.0-6.0-3.0-2.66","20:28:58","4","","","","","","","<div style='text-align: center;'>
                            <span style=""color: red; font-size: 40px""><b>错误！+0 pts</b></span></div>
                            ","","learn","6","6","6","learn","2","2","[0, 1, 2]","66","8","setsize","8S3A","furniture","1","0","1","0",""
"null","null","fixation","html-keyboard-response","305","1439001","0.0-1.0-6.0-3.0-0.67","20:28:58","4","","","","","","","fixation","","","","","","","","","","","","","","","","","","",""
"557","1","pic_response","html-keyboard-response","306","1439559","0.0-1.0-6.0-3.0-1.67","20:28:58","4","","","","","","","<div>
            <img class='stim' src=""pictures/furniture/2.jpg""></div><div class=""button_prompt"">
                    <b>请用数字键1-3回答</b>
                    </div>","","","","","","","","","","","","","","","","","","",""
"557","null","sub_response","html-keyboard-response","307","1440571","0.0-1.0-6.0-3.0-2.67","20:28:58","4","","","","","","","<div style='text-align: center;'>
                            <span style=""color: green; font-size: 40px""><b>正确！+1 pts</b></span></div>
                            ","","learn","2","2","2","learn","0","0","[0, 1, 2]","67","8","setsize","8S3A","furniture","1","1","1","1",""
"null","null","fixation","html-keyboard-response","308","1441086","0.0-1.0-6.0-3.0-0.68","20:28:58","4","","","","","","","fixation","","","","","","","","","","","","","","","","","","",""
"876","2","pic_response","html-keyboard-response","309","1441962","0.0-1.0-6.0-3.0-1.68","20:28:58","4","","","","","","","<div>
            <img class='stim' src=""pictures/furniture/7.jpg""></div><div class=""button_prompt"">
                    <b>请用数字键1-3回答</b>
                    </div>","","","","","","","","","","","","","","","","","","",""
"876","null","sub_response","html-keyboard-response","310","1442968","0.0-1.0-6.0-3.0-2.68","20:28:58","4","","","","","","","<div style='text-align: center;'>
                            <span style=""color: red; font-size: 40px""><b>错误！+0 pts</b></span></div>
                            ","","learn","7","7","7","learn","2","2","[0, 1, 2]","68","8","setsize","8S3A","furniture","1","0","2","0",""
"null","null","fixation","html-keyboard-response","311","1443485","0.0-1.0-6.0-3.0-0.69","20:28:58","4","","","","","","","fixation","","","","","","","","","","","","","","","","","","",""
"865","2","pic_response","html-keyboard-response","312","1444351","0.0-1.0-6.0-3.0-1.69","20:28:58","4","","","","","","","<div>
            <img class='stim' src=""pictures/furniture/4.jpg""></div><div class=""button_prompt"">
                    <b>请用数字键1-3回答</b>
                    </div>","","","","","","","","","","","","","","","","","","",""
"865","null","sub_response","html-keyboard-response","313","1445360","0.0-1.0-6.0-3.0-2.69","20:28:58","4","","","","","","","<div style='text-align: center;'>
                            <span style=""color: green; font-size: 40px""><b>正确！+1 pts</b></span></div>
                            ","","learn","4","4","4","learn","1","1","[0, 1, 2]","69","8","setsize","8S3A","furniture","1","1","2","1",""
"null","null","fixation","html-keyboard-response","314","1445876","0.0-1.0-6.0-3.0-0.70","20:28:58","4","","","","","","","fixation","","","","","","","","","","","","","","","","","","",""
"719","3","pic_response","html-keyboard-response","315","1446596","0.0-1.0-6.0-3.0-1.70","20:28:58","4","","","","","","","<div>
            <img class='stim' src=""pictures/furniture/5.jpg""></div><div class=""button_prompt"">
                    <b>请用数字键1-3回答</b>
                    </div>","","","","","","","","","","","","","","","","","","",""
"719","null","sub_response","html-keyboard-response","316","1447604","0.0-1.0-6.0-3.0-2.70","20:28:58","4","","","","","","","<div style='text-align: center;'>
                            <span style=""color: red; font-size: 40px""><b>错误！+0 pts</b></span></div>
                            ","","learn","5","5","5","learn","1","1","[0, 1, 2]","70","8","setsize","8S3A","furniture","1","0","3","0",""
"null","null","fixation","html-keyboard-response","317","1448119","0.0-1.0-6.0-3.0-0.71","20:28:58","4","","","","","","","fixation","","","","","","","","","","","","","","","","","","",""
"511","1","pic_response","html-keyboard-response","318","1448630","0.0-1.0-6.0-3.0-1.71","20:28:58","4","","","","","","","<div>
            <img class='stim' src=""pictures/furniture/0.jpg""></div><div class=""button_prompt"">
                    <b>请用数字键1-3回答</b>
                    </div>","","","","","","","","","","","","","","","","","","",""
"511","null","sub_response","html-keyboard-response","319","1449642","0.0-1.0-6.0-3.0-2.71","20:28:58","4","","","","","","","<div style='text-align: center;'>
                            <span style=""color: green; font-size: 40px""><b>正确！+1 pts</b></span></div>
                            ","","learn","0","0","0","learn","0","0","[0, 1, 2]","71","8","setsize","8S3A","furniture","1","1","1","1",""
"null","null","fixation","html-keyboard-response","320","1450157","0.0-1.0-6.0-3.0-0.72","20:28:58","4","","","","","","","fixation","","","","","","","","","","","","","","","","","","",""
"718","1","pic_response","html-keyboard-response","321","1450875","0.0-1.0-6.0-3.0-1.72","20:28:58","4","","","","","","","<div>
            <img class='stim' src=""pictures/furniture/1.jpg""></div><div class=""button_prompt"">
                    <b>请用数字键1-3回答</b>
                    </div>","","","","","","","","","","","","","","","","","","",""
"718","null","sub_response","html-keyboard-response","322","1451888","0.0-1.0-6.0-3.0-2.72","20:28:58","4","","","","","","","<div style='text-align: center;'>
