"rt","response","stage","start_time","s","word","word_id","phase","a_cor","a_real","a_ava","trial","tps","task_type","block_typ","pic_typ","block_id","cum_r","a","r","n_Prac"
"1280","null","learn","18:04:19","1","1","1","learn","0","0","[0, 1, 2]","0","0","setsize","99","prac","0","1","0","1","1"
"1009","null","learn","18:04:19","0","0","0","learn","0","0","[0, 1, 2]","1","0","setsize","99","prac","0","2","0","1","1"
"478","null","learn","18:04:19","2","2","2","learn","2","2","[0, 1, 2]","2","0","setsize","99","prac","0","3","2","1","1"
"1334","null","learn","18:04:19","0","0","0","learn","0","0","[0, 1, 2]","3","1","setsize","99","prac","0","4","0","1","1"
"1521","null","learn","18:04:19","1","1","1","learn","0","0","[0, 1, 2]","4","1","setsize","99","prac","0","5","0","1","1"
"1416","null","learn","18:04:19","2","2","2","learn","2","2","[0, 1, 2]","5","1","setsize","99","prac","0","6","2","1","1"
"1459","null","learn","18:04:19","7","7","7","learn","2","2","[0, 1, 2]","0","0","setsize","10S3A","sports","1","0","0","0","1"
"2425","null","learn","18:04:19","6","6","6","learn","2","2","[0, 1, 2]","1","0","setsize","10S3A","sports","1","0","1","0","1"
"264","null","learn","18:04:19","3","3","3","learn","1","1","[0, 1, 2]","2","0","setsize","10S3A","sports","1","0","2","0","1"
"1659","null","learn","18:04:19","2","2","2","learn","0","0","[0, 1, 2]","3","0","setsize","10S3A","sports","1","0","2","0","1"
"162","null","learn","18:04:19","1","1","1","learn","0","0","[0, 1, 2]","4","0","setsize","10S3A","sports","1","0","1","0","1"
"288","null","learn","18:04:19","0","0","0","learn","0","0","[0, 1, 2]","5","0","setsize","10S3A","sports","1","1","0","1","1"
"2039","null","learn","18:04:19","8","8","8","learn","2","2","[0, 1, 2]","6","0","setsize","10S3A","sports","1","0","0","0","1"
"548","null","learn","18:04:19","5","5","5","learn","1","1","[0, 1, 2]","7","0","setsize","10S3A","sports","1","1","1","1","1"
"1036","null","learn","18:04:19","9","9","9","learn","2","2","[0, 1, 2]","8","0","setsize","10S3A","sports","1","2","2","1","1"
"1090","null","learn","18:04:19","4","4","4","learn","1","1","[0, 1, 2]","9","0","setsize","10S3A","sports","1","3","1","1","1"
"438","null","learn","18:04:19","7","7","7","learn","2","2","[0, 1, 2]","10","1","setsize","10S3A","sports","1","0","1","0","1"
"204","null","learn","18:04:19","4","4","4","learn","1","1","[0, 1, 2]","11","1","setsize","10S3A","sports","1","0","2","0","1"
"237","null","learn","18:04:19","5","5","5","learn","1","1","[0, 1, 2]","12","1","setsize","10S3A","sports","1","0","0","0","1"
"728","null","learn","18:04:19","1","1","1","learn","0","0","[0, 1, 2]","13","1","setsize","10S3A","sports","1","0","1","0","1"
"164","null","learn","18:04:19","3","3","3","learn","1","1","[0, 1, 2]","14","1","setsize","10S3A","sports","1","0","0","0","1"
"267","null","learn","18:04:19","6","6","6","learn","2","2","[0, 1, 2]","15","1","setsize","10S3A","sports","1","1","2","1","1"
"1519","null","learn","18:04:19","2","2","2","learn","0","0","[0, 1, 2]","16","1","setsize","10S3A","sports","1","2","0","1","1"
"1037","null","learn","18:04:19","9","9","9","learn","2","2","[0, 1, 2]","17","1","setsize","10S3A","sports","1","0","1","0","1"
"1455","null","learn","18:04:19","8","8","8","learn","2","2","[0, 1, 2]","18","1","setsize","10S3A","sports","1","0","1","0","1"
"264","null","learn","18:04:19","0","0","0","learn","0","0","[0, 1, 2]","19","1","setsize","10S3A","sports","1","0","2","0","1"
"990","null","learn","18:04:19","8","8","8","learn","2","2","[0, 1, 2]","20","2","setsize","10S3A","sports","1","0","1","0","1"
"752","null","learn","18:04:19","9","9","9","learn","2","2","[0, 1, 2]","21","2","setsize","10S3A","sports","1","1","2","1","1"
"1027","null","learn","18:04:19","1","1","1","learn","0","0","[0, 1, 2]","22","2","setsize","10S3A","sports","1","2","0","1","1"
"986","null","learn","18:04:19","6","6","6","learn","2","2","[0, 1, 2]","23","2","setsize","10S3A","sports","1","0","1","0","1"
"830","null","learn","18:04:19","7","7","7","learn","2","2","[0, 1, 2]","24","2","setsize","10S3A","sports","1","0","0","0","1"
"1054","null","learn","18:04:19","3","3","3","learn","1","1","[0, 1, 2]","25","2","setsize","10S3A","sports","1","0","2","0","1"
"1199","null","learn","18:04:19","5","5","5","learn","1","1","[0, 1, 2]","26","2","setsize","10S3A","sports","1","0","0","0","1"
"667","null","learn","18:04:19","0","0","0","learn","0","0","[0, 1, 2]","27","2","setsize","10S3A","sports","1","1","0","1","1"
"648","null","learn","18:04:19","2","2","2","learn","0","0","[0, 1, 2]","28","2","setsize","10S3A","sports","1","2","0","1","1"
"673","null","learn","18:04:19","4","4","4","learn","1","1","[0, 1, 2]","29","2","setsize","10S3A","sports","1","3","1","1","1"
"429","null","learn","18:04:19","4","4","4","learn","1","1","[0, 1, 2]","30","3","setsize","10S3A","sports","1","4","1","1","1"
"586","null","learn","18:04:19","3","3","3","learn","1","1","[0, 1, 2]","31","3","setsize","10S3A","sports","1","0","2","0","1"
"816","null","learn","18:04:19","6","6","6","learn","2","2","[0, 1, 2]","32","3","setsize","10S3A","sports","1","1","2","1","1"
"847","null","learn","18:04:19","7","7","7","learn","2","2","[0, 1, 2]","33","3","setsize","10S3A","sports","1","0","1","0","1"
"1538","null","learn","18:04:19","1","1","1","learn","0","0","[0, 1, 2]","34","3","setsize","10S3A","sports","1","1","0","1","1"
"583","null","learn","18:04:19","0","0","0","learn","0","0","[0, 1, 2]","35","3","setsize","10S3A","sports","1","2","0","1","1"
"859","null","learn","18:04:19","5","5","5","learn","1","1","[0, 1, 2]","36","3","setsize","10S3A","sports","1","3","1","1","1"
"719","null","learn","18:04:19","8","8","8","learn","2","2","[0, 1, 2]","37","3","setsize","10S3A","sports","1","0","1","0","1"
"677","null","learn","18:04:19","2","2","2","learn","0","0","[0, 1, 2]","38","3","setsize","10S3A","sports","1","1","0","1","1"
"1236","null","learn","18:04:19","9","9","9","learn","2","2","[0, 1, 2]","39","3","setsize","10S3A","sports","1","0","0","0","1"
"719","null","learn","18:04:19","4","4","4","learn","1","1","[0, 1, 2]","40","4","setsize","10S3A","sports","1","1","1","1","1"
"715","null","learn","18:04:19","1","1","1","learn","0","0","[0, 1, 2]","41","4","setsize","10S3A","sports","1","2","0","1","1"
"577","null","learn","18:04:19","7","7","7","learn","2","2","[0, 1, 2]","42","4","setsize","10S3A","sports","1","0","1","0","1"
"271","null","learn","18:04:19","9","9","9","learn","2","2","[0, 1, 2]","43","4","setsize","10S3A","sports","1","0","0","0","1"
"691","null","learn","18:04:19","2","2","2","learn","0","0","[0, 1, 2]","44","4","setsize","10S3A","sports","1","1","0","1","1"
"222","null","learn","18:04:19","6","6","6","learn","2","2","[0, 1, 2]","45","4","setsize","10S3A","sports","1","0","1","0","1"
"989","null","learn","18:04:19","3","3","3","learn","1","1","[0, 1, 2]","46","4","setsize","10S3A","sports","1","1","1","1","1"
"762","null","learn","18:04:19","5","5","5","learn","1","1","[0, 1, 2]","47","4","setsize","10S3A","sports","1","0","0","0","1"
"563","null","learn","18:04:19","0","0","0","learn","0","0","[0, 1, 2]","48","4","setsize","10S3A","sports","1","1","0","1","1"
"1006","null","learn","18:04:19","8","8","8","learn","2","2","[0, 1, 2]","49","4","setsize","10S3A","sports","1","0","1","0","1"
"1163","null","learn","18:04:19","6","6","6","learn","2","2","[0, 1, 2]","50","5","setsize","10S3A","sports","1","0","0","0","1"
"685","null","learn","18:04:19","4","4","4","learn","1","1","[0, 1, 2]","51","5","setsize","10S3A","sports","1","1","1","1","1"
"1734","null","learn","18:04:19","3","3","3","learn","1","1","[0, 1, 2]","52","5","setsize","10S3A","sports","1","0","2","0","1"
"663","null","learn","18:04:19","1","1","1","learn","0","0","[0, 1, 2]","53","5","setsize","10S3A","sports","1","1","0","1","1"
"1215","null","learn","18:04:19","7","7","7","learn","2","2","[0, 1, 2]","54","5","setsize","10S3A","sports","1","2","2","1","1"
"589","null","learn","18:04:19","0","0","0","learn","0","0","[0, 1, 2]","55","5","setsize","10S3A","sports","1","3","0","1","1"
"915","null","learn","18:04:19","8","8","8","learn","2","2","[0, 1, 2]","56","5","setsize","10S3A","sports","1","4","2","1","1"
"611","null","learn","18:04:19","2","2","2","learn","0","0","[0, 1, 2]","57","5","setsize","10S3A","sports","1","5","0","1","1"
"770","null","learn","18:04:19","5","5","5","learn","1","1","[0, 1, 2]","58","5","setsize","10S3A","sports","1","6","1","1","1"
"506","null","learn","18:04:19","9","9","9","learn","2","2","[0, 1, 2]","59","5","setsize","10S3A","sports","1","0","1","0","1"
"648","null","learn","18:04:19","9","9","9","learn","2","2","[0, 1, 2]","60","6","setsize","10S3A","sports","1","0","0","0","1"
"576","null","learn","18:04:19","1","1","1","learn","0","0","[0, 1, 2]","61","6","setsize","10S3A","sports","1","1","0","1","1"
"840","null","learn","18:04:19","7","7","7","learn","2","2","[0, 1, 2]","62","6","setsize","10S3A","sports","1","0","0","0","1"
"1967","null","learn","18:04:19","3","3","3","learn","1","1","[0, 1, 2]","63","6","setsize","10S3A","sports","1","1","1","1","1"
"570","null","learn","18:04:19","5","5","5","learn","1","1","[0, 1, 2]","64","6","setsize","10S3A","sports","1","2","1","1","1"
"606","null","learn","18:04:19","4","4","4","learn","1","1","[0, 1, 2]","65","6","setsize","10S3A","sports","1","3","1","1","1"
"516","null","learn","18:04:19","2","2","2","learn","0","0","[0, 1, 2]","66","6","setsize","10S3A","sports","1","4","0","1","1"
"1044","null","learn","18:04:19","6","6","6","learn","2","2","[0, 1, 2]","67","6","setsize","10S3A","sports","1","5","2","1","1"
"733","null","learn","18:04:19","8","8","8","learn","2","2","[0, 1, 2]","68","6","setsize","10S3A","sports","1","0","1","0","1"
"511","null","learn","18:04:19","0","0","0","learn","0","0","[0, 1, 2]","69","6","setsize","10S3A","sports","1","1","0","1","1"
"543","null","learn","18:04:19","2","2","2","learn","0","0","[0, 1, 2]","70","7","setsize","10S3A","sports","1","2","0","1","1"
"617","null","learn","18:04:19","5","5","5","learn","1","1","[0, 1, 2]","71","7","setsize","10S3A","sports","1","3","1","1","1"
"543","null","learn","18:04:19","1","1","1","learn","0","0","[0, 1, 2]","72","7","setsize","10S3A","sports","1","4","0","1","1"
"626","null","learn","18:04:19","7","7","7","learn","2","2","[0, 1, 2]","73","7","setsize","10S3A","sports","1","0","1","0","1"
"605","null","learn","18:04:19","9","9","9","learn","2","2","[0, 1, 2]","74","7","setsize","10S3A","sports","1","0","0","0","1"
"832","null","learn","18:04:19","6","6","6","learn","2","2","[0, 1, 2]","75","7","setsize","10S3A","sports","1","0","1","0","1"
"613","null","learn","18:04:19","0","0","0","learn","0","0","[0, 1, 2]","76","7","setsize","10S3A","sports","1","1","0","1","1"
"815","null","learn","18:04:19","4","4","4","learn","1","1","[0, 1, 2]","77","7","setsize","10S3A","sports","1","2","1","1","1"
"1023","null","learn","18:04:19","8","8","8","learn","2","2","[0, 1, 2]","78","7","setsize","10S3A","sports","1","3","2","1","1"
"666","null","learn","18:04:19","3","3","3","learn","1","1","[0, 1, 2]","79","7","setsize","10S3A","sports","1","0","2","0","1"
"563","null","learn","18:04:19","2","2","2","learn","0","0","[0, 1, 2]","80","8","setsize","10S3A","sports","1","1","0","1","1"
"721","null","learn","18:04:19","9","9","9","learn","2","2","[0, 1, 2]","81","8","setsize","10S3A","sports","1","0","1","0","1"
"489","null","learn","18:04:19","0","0","0","learn","0","0","[0, 1, 2]","82","8","setsize","10S3A","sports","1","1","0","1","1"
"541","null","learn","18:04:19","5","5","5","learn","1","1","[0, 1, 2]","83","8","setsize","10S3A","sports","1","2","1","1","1"
"523","null","learn","18:04:19","1","1","1","learn","0","0","[0, 1, 2]","84","8","setsize","10S3A","sports","1","3","0","1","1"
"950","null","learn","18:04:19","6","6","6","learn","2","2","[0, 1, 2]","85","8","setsize","10S3A","sports","1","4","2","1","1"
"1337","null","learn","18:04:19","7","7","7","learn","2","2","[0, 1, 2]","86","8","setsize","10S3A","sports","1","0","1","0","1"
"659","null","learn","18:04:19","3","3","3","learn","1","1","[0, 1, 2]","87","8","setsize","10S3A","sports","1","1","1","1","1"
"613","null","learn","18:04:19","4","4","4","learn","1","1","[0, 1, 2]","88","8","setsize","10S3A","sports","1","2","1","1","1"
"743","null","learn","18:04:19","8","8","8","learn","2","2","[0, 1, 2]","89","8","setsize","10S3A","sports","1","3","2","1","1"
"766","null","learn","18:04:19","9","9","9","learn","2","2","[0, 1, 2]","90","9","setsize","10S3A","sports","1","0","1","0","1"
"265","null","learn","18:04:19","1","1","1","learn","0","0","[0, 1, 2]","91","9","setsize","10S3A","sports","1","0","2","0","1"
"615","null","learn","18:04:19","8","8","8","learn","2","2","[0, 1, 2]","92","9","setsize","10S3A","sports","1","1","2","1","1"
"762","null","learn","18:04:19","2","2","2","learn","0","0","[0, 1, 2]","93","9","setsize","10S3A","sports","1","2","0","1","1"
"487","null","learn","18:04:19","4","4","4","learn","1","1","[0, 1, 2]","94","9","setsize","10S3A","sports","1","3","1","1","1"
"535","null","learn","18:04:19","3","3","3","learn","1","1","[0, 1, 2]","95","9","setsize","10S3A","sports","1","4","1","1","1"
"711","null","learn","18:04:19","7","7","7","learn","2","2","[0, 1, 2]","96","9","setsize","10S3A","sports","1","5","2","1","1"
"524","null","learn","18:04:19","5","5","5","learn","1","1","[0, 1, 2]","97","9","setsize","10S3A","sports","1","6","1","1","1"
"523","null","learn","18:04:19","6","6","6","learn","2","2","[0, 1, 2]","98","9","setsize","10S3A","sports","1","7","2","1","1"
"693","null","learn","18:04:19","0","0","0","learn","0","0","[0, 1, 2]","99","9","setsize","10S3A","sports","1","8","0","1","1"
"723","null","learn","18:04:19","7","7","7","learn","2","2","[0, 1, 2]","100","10","setsize","10S3A","sports","1","9","2","1","1"
"507","null","learn","18:04:19","3","3","3","learn","1","1","[0, 1, 2]","101","10","setsize","10S3A","sports","1","10","1","1","1"
"524","null","learn","18:04:19","2","2","2","learn","0","0","[0, 1, 2]","102","10","setsize","10S3A","sports","1","11","0","1","1"
"1283","null","learn","18:04:19","9","9","9","learn","2","2","[0, 1, 2]","103","10","setsize","10S3A","sports","1","0","1","0","1"
"588","null","learn","18:04:19","4","4","4","learn","1","1","[0, 1, 2]","104","10","setsize","10S3A","sports","1","1","1","1","1"
"556","null","learn","18:04:19","6","6","6","learn","2","2","[0, 1, 2]","105","10","setsize","10S3A","sports","1","2","2","1","1"
"591","null","learn","18:04:19","8","8","8","learn","2","2","[0, 1, 2]","106","10","setsize","10S3A","sports","1","3","2","1","1"
"683","null","learn","18:04:19","1","1","1","learn","0","0","[0, 1, 2]","107","10","setsize","10S3A","sports","1","4","0","1","1"
"558","null","learn","18:04:19","0","0","0","learn","0","0","[0, 1, 2]","108","10","setsize","10S3A","sports","1","5","0","1","1"
"2101","null","learn","18:04:19","5","5","5","learn","1","1","[0, 1, 2]","109","10","setsize","10S3A","sports","1","0","2","0","1"
"456","null","learn","18:04:19","6","6","6","learn","2","2","[0, 1, 2]","110","11","setsize","10S3A","sports","1","1","2","1","1"
"566","null","learn","18:04:19","5","5","5","learn","1","1","[0, 1, 2]","111","11","setsize","10S3A","sports","1","2","1","1","1"
"518","null","learn","18:04:19","4","4","4","learn","1","1","[0, 1, 2]","112","11","setsize","10S3A","sports","1","3","1","1","1"
"522","null","learn","18:04:19","2","2","2","learn","0","0","[0, 1, 2]","113","11","setsize","10S3A","sports","1","4","0","1","1"
"682","null","learn","18:04:19","8","8","8","learn","2","2","[0, 1, 2]","114","11","setsize","10S3A","sports","1","5","2","1","1"
"494","null","learn","18:04:19","3","3","3","learn","1","1","[0, 1, 2]","115","11","setsize","10S3A","sports","1","6","1","1","1"
"554","null","learn","18:04:19","0","0","0","learn","0","0","[0, 1, 2]","116","11","setsize","10S3A","sports","1","7","0","1","1"
"956","null","learn","18:04:19","9","9","9","learn","2","2","[0, 1, 2]","117","11","setsize","10S3A","sports","1","8","2","1","1"
"568","null","learn","18:04:19","1","1","1","learn","0","0","[0, 1, 2]","118","11","setsize","10S3A","sports","1","9","0","1","1"
"800","null","learn","18:04:19","7","7","7","learn","2","2","[0, 1, 2]","119","11","setsize","10S3A","sports","1","10","2","1","1"
"593","null","learn","18:04:19","9","9","9","learn","2","2","[0, 1, 2]","120","12","setsize","10S3A","sports","1","11","2","1","1"
"738","null","learn","18:04:19","5","5","5","learn","1","1","[0, 1, 2]","121","12","setsize","10S3A","sports","1","12","1","1","1"
"688","null","learn","18:04:19","4","4","4","learn","1","1","[0, 1, 2]","122","12","setsize","10S3A","sports","1","13","1","1","1"
"500","null","learn","18:04:19","3","3","3","learn","1","1","[0, 1, 2]","123","12","setsize","10S3A","sports","1","14","1","1","1"
"1165","null","learn","18:04:19","7","7","7","learn","2","2","[0, 1, 2]","124","12","setsize","10S3A","sports","1","15","2","1","1"
"546","null","learn","18:04:19","2","2","2","learn","0","0","[0, 1, 2]","125","12","setsize","10S3A","sports","1","16","0","1","1"
"550","null","learn","18:04:19","0","0","0","learn","0","0","[0, 1, 2]","126","12","setsize","10S3A","sports","1","17","0","1","1"
"570","null","learn","18:04:19","6","6","6","learn","2","2","[0, 1, 2]","127","12","setsize","10S3A","sports","1","18","2","1","1"
"481","null","learn","18:04:19","1","1","1","learn","0","0","[0, 1, 2]","128","12","setsize","10S3A","sports","1","19","0","1","1"
"535","null","learn","18:04:19","8","8","8","learn","2","2","[0, 1, 2]","129","12","setsize","10S3A","sports","1","20","2","1","1"
"520","null","learn","18:04:19","6","6","6","learn","2","2","[0, 1, 2]","130","13","setsize","10S3A","sports","1","21","2","1","1"
"586","null","learn","18:04:19","1","1","1","learn","0","0","[0, 1, 2]","131","13","setsize","10S3A","sports","1","22","0","1","1"
"642","null","learn","18:04:19","7","7","7","learn","2","2","[0, 1, 2]","132","13","setsize","10S3A","sports","1","23","2","1","1"
"579","null","learn","18:04:19","8","8","8","learn","2","2","[0, 1, 2]","133","13","setsize","10S3A","sports","1","24","2","1","1"
"714","null","learn","18:04:19","3","3","3","learn","1","1","[0, 1, 2]","134","13","setsize","10S3A","sports","1","25","1","1","1"
"689","null","learn","18:04:19","4","4","4","learn","1","1","[0, 1, 2]","135","13","setsize","10S3A","sports","1","26","1","1","1"
"543","null","learn","18:04:19","2","2","2","learn","0","0","[0, 1, 2]","136","13","setsize","10S3A","sports","1","27","0","1","1"
"521","null","learn","18:04:19","0","0","0","learn","0","0","[0, 1, 2]","137","13","setsize","10S3A","sports","1","28","0","1","1"
"503","null","learn","18:04:19","5","5","5","learn","1","1","[0, 1, 2]","138","13","setsize","10S3A","sports","1","29","1","1","1"
"493","null","learn","18:04:19","9","9","9","learn","2","2","[0, 1, 2]","139","13","setsize","10S3A","sports","1","0","1","0","1"
"817","null","learn","18:04:19","7","7","7","learn","2","2","[0, 1, 2]","140","14","setsize","10S3A","sports","1","1","2","1","1"
"483","null","learn","18:04:19","1","1","1","learn","0","0","[0, 1, 2]","141","14","setsize","10S3A","sports","1","2","0","1","1"
"942","null","learn","18:04:19","9","9","9","learn","2","2","[0, 1, 2]","142","14","setsize","10S3A","sports","1","3","2","1","1"
"550","null","learn","18:04:19","8","8","8","learn","2","2","[0, 1, 2]","143","14","setsize","10S3A","sports","1","4","2","1","1"
"726","null","learn","18:04:19","5","5","5","learn","1","1","[0, 1, 2]","144","14","setsize","10S3A","sports","1","5","1","1","1"
"515","null","learn","18:04:19","0","0","0","learn","0","0","[0, 1, 2]","145","14","setsize","10S3A","sports","1","6","0","1","1"
"536","null","learn","18:04:19","2","2","2","learn","0","0","[0, 1, 2]","146","14","setsize","10S3A","sports","1","7","0","1","1"
"488","null","learn","18:04:19","3","3","3","learn","1","1","[0, 1, 2]","147","14","setsize","10S3A","sports","1","8","1","1","1"
"494","null","learn","18:04:19","4","4","4","learn","1","1","[0, 1, 2]","148","14","setsize","10S3A","sports","1","9","1","1","1"
"602","null","learn","18:04:19","6","6","6","learn","2","2","[0, 1, 2]","149","14","setsize","10S3A","sports","1","10","2","1","1"
"580","null","learn","18:04:19","5","5","5","learn","1","1","[0, 1, 2]","150","15","setsize","10S3A","sports","1","11","1","1","1"
"1253","null","learn","18:04:19","1","1","1","learn","0","0","[0, 1, 2]","0","0","setsize","3S3A","animals","2","0","1","0","1"
"969","null","learn","18:04:19","0","0","0","learn","0","0","[0, 1, 2]","1","0","setsize","3S3A","animals","2","1","0","1","1"
"1852","null","learn","18:04:19","2","2","2","learn","2","2","[0, 1, 2]","2","0","setsize","3S3A","animals","2","2","2","1","1"
"748","null","learn","18:04:19","0","0","0","learn","0","0","[0, 1, 2]","3","1","setsize","3S3A","animals","2","3","0","1","1"
"796","null","learn","18:04:19","1","1","1","learn","0","0","[0, 1, 2]","4","1","setsize","3S3A","animals","2","0","1","0","1"
"796","null","learn","18:04:19","2","2","2","learn","2","2","[0, 1, 2]","5","1","setsize","3S3A","animals","2","1","2","1","1"
"562","null","learn","18:04:19","1","1","1","learn","0","0","[0, 1, 2]","6","2","setsize","3S3A","animals","2","2","0","1","1"
"468","null","learn","18:04:19","0","0","0","learn","0","0","[0, 1, 2]","7","2","setsize","3S3A","animals","2","3","0","1","1"
"345","null","learn","18:04:19","2","2","2","learn","2","2","[0, 1, 2]","8","2","setsize","3S3A","animals","2","4","2","1","1"
"424","null","learn","18:04:19","0","0","0","learn","0","0","[0, 1, 2]","9","3","setsize","3S3A","animals","2","5","0","1","1"
"522","null","learn","18:04:19","2","2","2","learn","2","2","[0, 1, 2]","10","3","setsize","3S3A","animals","2","6","2","1","1"
"463","null","learn","18:04:19","1","1","1","learn","0","0","[0, 1, 2]","11","3","setsize","3S3A","animals","2","7","0","1","1"
"208","null","learn","18:04:19","0","0","0","learn","0","0","[0, 1, 2]","12","4","setsize","3S3A","animals","2","8","0","1","1"
"515","null","learn","18:04:19","1","1","1","learn","0","0","[0, 1, 2]","13","4","setsize","3S3A","animals","2","9","0","1","1"
"525","null","learn","18:04:19","2","2","2","learn","2","2","[0, 1, 2]","14","4","setsize","3S3A","animals","2","10","2","1","1"
"413","null","learn","18:04:19","1","1","1","learn","0","0","[0, 1, 2]","15","5","setsize","3S3A","animals","2","11","0","1","1"
"596","null","learn","18:04:19","0","0","0","learn","0","0","[0, 1, 2]","16","5","setsize","3S3A","animals","2","12","0","1","1"
"389","null","learn","18:04:19","2","2","2","learn","2","2","[0, 1, 2]","17","5","setsize","3S3A","animals","2","13","2","1","1"
"602","null","learn","18:04:19","2","2","2","learn","2","2","[0, 1, 2]","18","6","setsize","3S3A","animals","2","14","2","1","1"
"432","null","learn","18:04:19","1","1","1","learn","0","0","[0, 1, 2]","19","6","setsize","3S3A","animals","2","15","0","1","1"
"419","null","learn","18:04:19","0","0","0","learn","0","0","[0, 1, 2]","20","6","setsize","3S3A","animals","2","16","0","1","1"
"496","null","learn","18:04:19","0","0","0","learn","0","0","[0, 1, 2]","21","7","setsize","3S3A","animals","2","17","0","1","1"
"324","null","learn","18:04:19","2","2","2","learn","2","2","[0, 1, 2]","22","7","setsize","3S3A","animals","2","18","2","1","1"
"457","null","learn","18:04:19","1","1","1","learn","0","0","[0, 1, 2]","23","7","setsize","3S3A","animals","2","19","0","1","1"
"383","null","learn","18:04:19","0","0","0","learn","0","0","[0, 1, 2]","24","8","setsize","3S3A","animals","2","0","2","0","1"
"561","null","learn","18:04:19","1","1","1","learn","0","0","[0, 1, 2]","25","8","setsize","3S3A","animals","2","1","0","1","1"
"375","null","learn","18:04:19","2","2","2","learn","2","2","[0, 1, 2]","26","8","setsize","3S3A","animals","2","2","2","1","1"
"417","null","learn","18:04:19","1","1","1","learn","0","0","[0, 1, 2]","27","9","setsize","3S3A","animals","2","3","0","1","1"
"430","null","learn","18:04:19","0","0","0","learn","0","0","[0, 1, 2]","28","9","setsize","3S3A","animals","2","4","0","1","1"
"484","null","learn","18:04:19","2","2","2","learn","2","2","[0, 1, 2]","29","9","setsize","3S3A","animals","2","5","2","1","1"
"503","null","learn","18:04:19","0","0","0","learn","0","0","[0, 1, 2]","30","10","setsize","3S3A","animals","2","6","0","1","1"
"531","null","learn","18:04:19","1","1","1","learn","0","0","[0, 1, 2]","31","10","setsize","3S3A","animals","2","7","0","1","1"
"635","null","learn","18:04:19","2","2","2","learn","2","2","[0, 1, 2]","32","10","setsize","3S3A","animals","2","8","2","1","1"
"484","null","learn","18:04:19","1","1","1","learn","0","0","[0, 1, 2]","33","11","setsize","3S3A","animals","2","9","0","1","1"
"485","null","learn","18:04:19","2","2","2","learn","2","2","[0, 1, 2]","34","11","setsize","3S3A","animals","2","10","2","1","1"
"476","null","learn","18:04:19","0","0","0","learn","0","0","[0, 1, 2]","35","11","setsize","3S3A","animals","2","11","0","1","1"
"301","null","learn","18:04:19","1","1","1","learn","0","0","[0, 1, 2]","36","12","setsize","3S3A","animals","2","12","0","1","1"
"519","null","learn","18:04:19","2","2","2","learn","2","2","[0, 1, 2]","37","12","setsize","3S3A","animals","2","13","2","1","1"
"445","null","learn","18:04:19","0","0","0","learn","0","0","[0, 1, 2]","38","12","setsize","3S3A","animals","2","14","0","1","1"
"598","null","learn","18:04:19","2","2","2","learn","2","2","[0, 1, 2]","39","13","setsize","3S3A","animals","2","15","2","1","1"
"455","null","learn","18:04:19","0","0","0","learn","0","0","[0, 1, 2]","40","13","setsize","3S3A","animals","2","16","0","1","1"
"330","null","learn","18:04:19","1","1","1","learn","0","0","[0, 1, 2]","41","13","setsize","3S3A","animals","2","17","0","1","1"
"413","null","learn","18:04:19","0","0","0","learn","0","0","[0, 1, 2]","42","14","setsize","3S3A","animals","2","18","0","1","1"
"976","null","learn","18:04:19","2","2","2","learn","2","2","[0, 1, 2]","43","14","setsize","3S3A","animals","2","19","2","1","1"
"null","null","learn","18:04:19","1","1","1","learn","0","0","[0, 1, 2]","44","14","setsize","3S3A","animals","2","0","999","0","1"
"null","null","learn","18:04:19","1","1","1","learn","0","0","[0, 1, 2]","45","15","setsize","3S3A","animals","2","0","999","0","1"
"467","null","learn","18:04:19","0","0","0","learn","0","0","[0, 1, 2]","46","15","setsize","3S3A","animals","2","0","2","0","1"
"375","null","learn","18:04:19","2","2","2","learn","2","2","[0, 1, 2]","47","15","setsize","3S3A","animals","2","0","0","0","1"
"1434","null","learn","18:04:19","1","1","1","learn","0","0","[0, 1, 2]","48","16","setsize","3S3A","animals","2","1","0","1","1"
"1337","null","learn","18:04:19","0","0","0","learn","0","0","[0, 1, 2]","49","16","setsize","3S3A","animals","2","2","0","1","1"
"369","null","learn","18:04:19","2","2","2","learn","2","2","[0, 1, 2]","50","16","setsize","3S3A","animals","2","3","2","1","1"
"384","null","learn","18:04:19","2","2","2","learn","2","2","[0, 1, 2]","51","17","setsize","3S3A","animals","2","4","2","1","1"
"1229","null","learn","18:04:19","0","0","0","learn","0","0","[0, 1, 2]","52","17","setsize","3S3A","animals","2","5","0","1","1"
"596","null","learn","18:04:19","1","1","1","learn","0","0","[0, 1, 2]","53","17","setsize","3S3A","animals","2","6","0","1","1"
"1283","null","learn","18:04:19","2","2","2","learn","2","2","[0, 1, 2]","54","18","setsize","3S3A","animals","2","7","2","1","1"
"1036","null","learn","18:04:19","0","0","0","learn","0","0","[0, 1, 2]","55","18","setsize","3S3A","animals","2","8","0","1","1"
"439","null","learn","18:04:19","1","1","1","learn","0","0","[0, 1, 2]","56","18","setsize","3S3A","animals","2","9","0","1","1"
"1105","null","learn","18:04:19","1","1","1","learn","6","6","[0, 1, 2, 3, 4, 5, 6, 7, 8, 9]","0","0","setsize","3S10A","furniture","3","0","0","0","1"
"645","null","learn","18:04:19","2","2","2","learn","9","9","[0, 1, 2, 3, 4, 5, 6, 7, 8, 9]","1","0","setsize","3S10A","furniture","3","0","2","0","1"
"2007","null","learn","18:04:19","0","0","0","learn","2","2","[0, 1, 2, 3, 4, 5, 6, 7, 8, 9]","2","0","setsize","3S10A","furniture","3","0","3","0","1"
"538","null","learn","18:04:19","0","0","0","learn","2","2","[0, 1, 2, 3, 4, 5, 6, 7, 8, 9]","3","1","setsize","3S10A","furniture","3","0","5","0","1"
"810","null","learn","18:04:19","1","1","1","learn","6","6","[0, 1, 2, 3, 4, 5, 6, 7, 8, 9]","4","1","setsize","3S10A","furniture","3","0","8","0","1"
"674","null","learn","18:04:19","2","2","2","learn","9","9","[0, 1, 2, 3, 4, 5, 6, 7, 8, 9]","5","1","setsize","3S10A","furniture","3","0","4","0","1"
"264","null","learn","18:04:19","0","0","0","learn","2","2","[0, 1, 2, 3, 4, 5, 6, 7, 8, 9]","6","2","setsize","3S10A","furniture","3","0","5","0","1"
"173","null","learn","18:04:19","1","1","1","learn","6","6","[0, 1, 2, 3, 4, 5, 6, 7, 8, 9]","7","2","setsize","3S10A","furniture","3","0","2","0","1"
"672","null","learn","18:04:19","2","2","2","learn","9","9","[0, 1, 2, 3, 4, 5, 6, 7, 8, 9]","8","2","setsize","3S10A","furniture","3","1","9","1","1"
"587","null","learn","18:04:19","1","1","1","learn","6","6","[0, 1, 2, 3, 4, 5, 6, 7, 8, 9]","9","3","setsize","3S10A","furniture","3","0","8","0","1"
"197","null","learn","18:04:19","2","2","2","learn","9","9","[0, 1, 2, 3, 4, 5, 6, 7, 8, 9]","10","3","setsize","3S10A","furniture","3","0","7","0","1"
"370","null","learn","18:04:19","0","0","0","learn","2","2","[0, 1, 2, 3, 4, 5, 6, 7, 8, 9]","11","3","setsize","3S10A","furniture","3","0","6","0","1"
"223","null","learn","18:04:19","0","0","0","learn","2","2","[0, 1, 2, 3, 4, 5, 6, 7, 8, 9]","12","4","setsize","3S10A","furniture","3","0","5","0","1"
"36","null","learn","18:04:19","1","1","1","learn","6","6","[0, 1, 2, 3, 4, 5, 6, 7, 8, 9]","13","4","setsize","3S10A","furniture","3","0","4","0","1"
"85","null","learn","18:04:19","2","2","2","learn","9","9","[0, 1, 2, 3, 4, 5, 6, 7, 8, 9]","14","4","setsize","3S10A","furniture","3","0","3","0","1"
"585","null","learn","18:04:19","1","1","1","learn","6","6","[0, 1, 2, 3, 4, 5, 6, 7, 8, 9]","15","5","setsize","3S10A","furniture","3","0","0","0","1"
"1015","null","learn","18:04:19","2","2","2","learn","9","9","[0, 1, 2, 3, 4, 5, 6, 7, 8, 9]","16","5","setsize","3S10A","furniture","3","1","9","1","1"
"372","null","learn","18:04:19","0","0","0","learn","2","2","[0, 1, 2, 3, 4, 5, 6, 7, 8, 9]","17","5","setsize","3S10A","furniture","3","2","2","1","1"
"577","null","learn","18:04:19","1","1","1","learn","6","6","[0, 1, 2, 3, 4, 5, 6, 7, 8, 9]","18","6","setsize","3S10A","furniture","3","0","1","0","1"
"1056","null","learn","18:04:19","2","2","2","learn","9","9","[0, 1, 2, 3, 4, 5, 6, 7, 8, 9]","19","6","setsize","3S10A","furniture","3","1","9","1","1"
"251","null","learn","18:04:19","0","0","0","learn","2","2","[0, 1, 2, 3, 4, 5, 6, 7, 8, 9]","20","6","setsize","3S10A","furniture","3","0","5","0","1"
"336","null","learn","18:04:19","1","1","1","learn","6","6","[0, 1, 2, 3, 4, 5, 6, 7, 8, 9]","21","7","setsize","3S10A","furniture","3","0","7","0","1"
"851","null","learn","18:04:19","2","2","2","learn","9","9","[0, 1, 2, 3, 4, 5, 6, 7, 8, 9]","22","7","setsize","3S10A","furniture","3","1","9","1","1"
"681","null","learn","18:04:19","0","0","0","learn","2","2","[0, 1, 2, 3, 4, 5, 6, 7, 8, 9]","23","7","setsize","3S10A","furniture","3","0","8","0","1"
"465","null","learn","18:04:19","0","0","0","learn","2","2","[0, 1, 2, 3, 4, 5, 6, 7, 8, 9]","24","8","setsize","3S10A","furniture","3","1","2","1","1"
"400","null","learn","18:04:19","1","1","1","learn","6","6","[0, 1, 2, 3, 4, 5, 6, 7, 8, 9]","25","8","setsize","3S10A","furniture","3","0","0","0","1"
"1563","null","learn","18:04:19","2","2","2","learn","9","9","[0, 1, 2, 3, 4, 5, 6, 7, 8, 9]","26","8","setsize","3S10A","furniture","3","1","9","1","1"
"956","null","learn","18:04:19","2","2","2","learn","9","9","[0, 1, 2, 3, 4, 5, 6, 7, 8, 9]","27","9","setsize","3S10A","furniture","3","2","9","1","1"
"422","null","learn","18:04:19","1","1","1","learn","6","6","[0, 1, 2, 3, 4, 5, 6, 7, 8, 9]","28","9","setsize","3S10A","furniture","3","3","6","1","1"
"738","null","learn","18:04:19","0","0","0","learn","2","2","[0, 1, 2, 3, 4, 5, 6, 7, 8, 9]","29","9","setsize","3S10A","furniture","3","4","2","1","1"
"547","null","learn","18:04:19","0","0","0","learn","2","2","[0, 1, 2, 3, 4, 5, 6, 7, 8, 9]","30","10","setsize","3S10A","furniture","3","5","2","1","1"
"354","null","learn","18:04:19","1","1","1","learn","6","6","[0, 1, 2, 3, 4, 5, 6, 7, 8, 9]","31","10","setsize","3S10A","furniture","3","6","6","1","1"
"431","null","learn","18:04:19","2","2","2","learn","9","9","[0, 1, 2, 3, 4, 5, 6, 7, 8, 9]","32","10","setsize","3S10A","furniture","3","7","9","1","1"
"668","null","learn","18:04:19","0","0","0","learn","2","2","[0, 1, 2, 3, 4, 5, 6, 7, 8, 9]","33","11","setsize","3S10A","furniture","3","8","2","1","1"
"528","null","learn","18:04:19","2","2","2","learn","9","9","[0, 1, 2, 3, 4, 5, 6, 7, 8, 9]","34","11","setsize","3S10A","furniture","3","9","9","1","1"
"375","null","learn","18:04:19","1","1","1","learn","6","6","[0, 1, 2, 3, 4, 5, 6, 7, 8, 9]","35","11","setsize","3S10A","furniture","3","10","6","1","1"
"1486","null","learn","18:04:19","0","0","0","learn","2","2","[0, 1, 2, 3, 4, 5, 6, 7, 8, 9]","36","12","setsize","3S10A","furniture","3","11","2","1","1"
"567","null","learn","18:04:19","2","2","2","learn","9","9","[0, 1, 2, 3, 4, 5, 6, 7, 8, 9]","37","12","setsize","3S10A","furniture","3","12","9","1","1"
"918","null","learn","18:04:19","1","1","1","learn","6","6","[0, 1, 2, 3, 4, 5, 6, 7, 8, 9]","38","12","setsize","3S10A","furniture","3","13","6","1","1"
"596","null","learn","18:04:19","2","2","2","learn","9","9","[0, 1, 2, 3, 4, 5, 6, 7, 8, 9]","39","13","setsize","3S10A","furniture","3","14","9","1","1"
"784","null","learn","18:04:19","1","1","1","learn","6","6","[0, 1, 2, 3, 4, 5, 6, 7, 8, 9]","40","13","setsize","3S10A","furniture","3","0","2","0","1"
"793","null","learn","18:04:19","0","0","0","learn","2","2","[0, 1, 2, 3, 4, 5, 6, 7, 8, 9]","41","13","setsize","3S10A","furniture","3","1","2","1","1"
"527","null","learn","18:04:19","2","2","2","learn","9","9","[0, 1, 2, 3, 4, 5, 6, 7, 8, 9]","42","14","setsize","3S10A","furniture","3","2","9","1","1"
"1189","null","learn","18:04:19","1","1","1","learn","6","6","[0, 1, 2, 3, 4, 5, 6, 7, 8, 9]","43","14","setsize","3S10A","furniture","3","3","6","1","1"
"1173","null","learn","18:04:19","0","0","0","learn","2","2","[0, 1, 2, 3, 4, 5, 6, 7, 8, 9]","44","14","setsize","3S10A","furniture","3","0","6","0","1"
"532","null","learn","18:04:19","2","2","2","learn","9","9","[0, 1, 2, 3, 4, 5, 6, 7, 8, 9]","45","15","setsize","3S10A","furniture","3","1","9","1","1"
"892","null","learn","18:04:19","1","1","1","learn","6","6","[0, 1, 2, 3, 4, 5, 6, 7, 8, 9]","46","15","setsize","3S10A","furniture","3","0","2","0","1"
"868","null","learn","18:04:19","0","0","0","learn","2","2","[0, 1, 2, 3, 4, 5, 6, 7, 8, 9]","47","15","setsize","3S10A","furniture","3","1","2","1","1"
"1331","null","learn","18:04:19","2","2","2","learn","9","9","[0, 1, 2, 3, 4, 5, 6, 7, 8, 9]","48","16","setsize","3S10A","furniture","3","2","9","1","1"
"682","null","learn","18:04:19","0","0","0","learn","2","2","[0, 1, 2, 3, 4, 5, 6, 7, 8, 9]","49","16","setsize","3S10A","furniture","3","3","2","1","1"
"984","null","learn","18:04:19","1","1","1","learn","6","6","[0, 1, 2, 3, 4, 5, 6, 7, 8, 9]","50","16","setsize","3S10A","furniture","3","4","6","1","1"
"508","null","learn","18:04:19","2","2","2","learn","9","9","[0, 1, 2, 3, 4, 5, 6, 7, 8, 9]","51","17","setsize","3S10A","furniture","3","5","9","1","1"
"1142","null","learn","18:04:19","0","0","0","learn","2","2","[0, 1, 2, 3, 4, 5, 6, 7, 8, 9]","52","17","setsize","3S10A","furniture","3","6","2","1","1"
"578","null","learn","18:04:19","1","1","1","learn","6","6","[0, 1, 2, 3, 4, 5, 6, 7, 8, 9]","53","17","setsize","3S10A","furniture","3","7","6","1","1"
"639","null","learn","18:04:19","1","1","1","learn","6","6","[0, 1, 2, 3, 4, 5, 6, 7, 8, 9]","54","18","setsize","3S10A","furniture","3","8","6","1","1"
"1509","null","learn","18:04:19","0","0","0","learn","2","2","[0, 1, 2, 3, 4, 5, 6, 7, 8, 9]","55","18","setsize","3S10A","furniture","3","9","2","1","1"
"null","null","learn","18:04:19","1","1","1","learn","1","1","[0, 1, 2, 3, 4, 5, 6, 7, 8, 9]","0","0","setsize","10S10A","food","4","0","999","0","1"
"null","null","learn","18:04:19","0","0","0","learn","0","0","[0, 1, 2, 3, 4, 5, 6, 7, 8, 9]","1","0","setsize","10S10A","food","4","0","999","0","1"
"null","null","learn","18:04:19","2","2","2","learn","2","2","[0, 1, 2, 3, 4, 5, 6, 7, 8, 9]","2","0","setsize","10S10A","food","4","0","999","0","1"
"null","null","learn","18:04:19","9","9","9","learn","9","9","[0, 1, 2, 3, 4, 5, 6, 7, 8, 9]","3","0","setsize","10S10A","food","4","0","999","0","1"
"null","null","learn","18:04:19","3","3","3","learn","3","3","[0, 1, 2, 3, 4, 5, 6, 7, 8, 9]","4","0","setsize","10S10A","food","4","0","999","0","1"
"null","null","learn","18:04:19","4","4","4","learn","4","4","[0, 1, 2, 3, 4, 5, 6, 7, 8, 9]","5","0","setsize","10S10A","food","4","0","999","0","1"
"null","null","learn","18:04:19","7","7","7","learn","7","7","[0, 1, 2, 3, 4, 5, 6, 7, 8, 9]","6","0","setsize","10S10A","food","4","0","999","0","1"
"null","null","learn","18:04:19","8","8","8","learn","8","8","[0, 1, 2, 3, 4, 5, 6, 7, 8, 9]","7","0","setsize","10S10A","food","4","0","999","0","1"
"null","null","learn","18:04:19","6","6","6","learn","6","6","[0, 1, 2, 3, 4, 5, 6, 7, 8, 9]","8","0","setsize","10S10A","food","4","0","999","0","1"
"null","null","learn","18:04:19","5","5","5","learn","5","5","[0, 1, 2, 3, 4, 5, 6, 7, 8, 9]","9","0","setsize","10S10A","food","4","0","999","0","1"
"null","null","learn","18:04:19","4","4","4","learn","4","4","[0, 1, 2, 3, 4, 5, 6, 7, 8, 9]","10","1","setsize","10S10A","food","4","0","999","0","1"
"null","null","learn","18:04:19","5","5","5","learn","5","5","[0, 1, 2, 3, 4, 5, 6, 7, 8, 9]","11","1","setsize","10S10A","food","4","0","999","0","1"
"null","null","learn","18:04:19","7","7","7","learn","7","7","[0, 1, 2, 3, 4, 5, 6, 7, 8, 9]","12","1","setsize","10S10A","food","4","0","999","0","1"
"null","null","learn","18:04:19","3","3","3","learn","3","3","[0, 1, 2, 3, 4, 5, 6, 7, 8, 9]","13","1","setsize","10S10A","food","4","0","999","0","1"
"null","null","learn","18:04:19","9","9","9","learn","9","9","[0, 1, 2, 3, 4, 5, 6, 7, 8, 9]","14","1","setsize","10S10A","food","4","0","999","0","1"
"null","null","learn","18:04:19","0","0","0","learn","0","0","[0, 1, 2, 3, 4, 5, 6, 7, 8, 9]","15","1","setsize","10S10A","food","4","0","999","0","1"
"null","null","learn","18:04:19","1","1","1","learn","1","1","[0, 1, 2, 3, 4, 5, 6, 7, 8, 9]","16","1","setsize","10S10A","food","4","0","999","0","1"
"null","null","learn","18:04:19","8","8","8","learn","8","8","[0, 1, 2, 3, 4, 5, 6, 7, 8, 9]","17","1","setsize","10S10A","food","4","0","999","0","1"
"null","null","learn","18:04:19","2","2","2","learn","2","2","[0, 1, 2, 3, 4, 5, 6, 7, 8, 9]","18","1","setsize","10S10A","food","4","0","999","0","1"
"null","null","learn","18:04:19","6","6","6","learn","6","6","[0, 1, 2, 3, 4, 5, 6, 7, 8, 9]","19","1","setsize","10S10A","food","4","0","999","0","1"
"null","null","learn","18:04:19","6","6","6","learn","6","6","[0, 1, 2, 3, 4, 5, 6, 7, 8, 9]","20","2","setsize","10S10A","food","4","0","999","0","1"
"null","null","learn","18:04:19","9","9","9","learn","9","9","[0, 1, 2, 3, 4, 5, 6, 7, 8, 9]","21","2","setsize","10S10A","food","4","0","999","0","1"
"null","null","learn","18:04:19","3","3","3","learn","3","3","[0, 1, 2, 3, 4, 5, 6, 7, 8, 9]","22","2","setsize","10S10A","food","4","0","999","0","1"
"null","null","learn","18:04:19","5","5","5","learn","5","5","[0, 1, 2, 3, 4, 5, 6, 7, 8, 9]","23","2","setsize","10S10A","food","4","0","999","0","1"
"null","null","learn","18:04:19","1","1","1","learn","1","1","[0, 1, 2, 3, 4, 5, 6, 7, 8, 9]","24","2","setsize","10S10A","food","4","0","999","0","1"
"null","null","learn","18:04:19","0","0","0","learn","0","0","[0, 1, 2, 3, 4, 5, 6, 7, 8, 9]","25","2","setsize","10S10A","food","4","0","999","0","1"
"null","null","learn","18:04:19","8","8","8","learn","8","8","[0, 1, 2, 3, 4, 5, 6, 7, 8, 9]","26","2","setsize","10S10A","food","4","0","999","0","1"
"null","null","learn","18:04:19","2","2","2","learn","2","2","[0, 1, 2, 3, 4, 5, 6, 7, 8, 9]","27","2","setsize","10S10A","food","4","0","999","0","1"
"null","null","learn","18:04:19","7","7","7","learn","7","7","[0, 1, 2, 3, 4, 5, 6, 7, 8, 9]","28","2","setsize","10S10A","food","4","0","999","0","1"
"null","null","learn","18:04:19","4","4","4","learn","4","4","[0, 1, 2, 3, 4, 5, 6, 7, 8, 9]","29","2","setsize","10S10A","food","4","0","999","0","1"
"null","null","learn","18:04:19","2","2","2","learn","2","2","[0, 1, 2, 3, 4, 5, 6, 7, 8, 9]","30","3","setsize","10S10A","food","4","0","999","0","1"
"null","null","learn","18:04:19","0","0","0","learn","0","0","[0, 1, 2, 3, 4, 5, 6, 7, 8, 9]","31","3","setsize","10S10A","food","4","0","999","0","1"
"null","null","learn","18:04:19","6","6","6","learn","6","6","[0, 1, 2, 3, 4, 5, 6, 7, 8, 9]","32","3","setsize","10S10A","food","4","0","999","0","1"
"null","null","learn","18:04:19","7","7","7","learn","7","7","[0, 1, 2, 3, 4, 5, 6, 7, 8, 9]","33","3","setsize","10S10A","food","4","0","999","0","1"
"null","null","learn","18:04:19","1","1","1","learn","1","1","[0, 1, 2, 3, 4, 5, 6, 7, 8, 9]","34","3","setsize","10S10A","food","4","0","999","0","1"
"null","null","learn","18:04:19","8","8","8","learn","8","8","[0, 1, 2, 3, 4, 5, 6, 7, 8, 9]","35","3","setsize","10S10A","food","4","0","999","0","1"
"null","null","learn","18:04:19","9","9","9","learn","9","9","[0, 1, 2, 3, 4, 5, 6, 7, 8, 9]","36","3","setsize","10S10A","food","4","0","999","0","1"
"null","null","learn","18:04:19","3","3","3","learn","3","3","[0, 1, 2, 3, 4, 5, 6, 7, 8, 9]","37","3","setsize","10S10A","food","4","0","999","0","1"
"null","null","learn","18:04:19","5","5","5","learn","5","5","[0, 1, 2, 3, 4, 5, 6, 7, 8, 9]","38","3","setsize","10S10A","food","4","0","999","0","1"
"null","null","learn","18:04:19","4","4","4","learn","4","4","[0, 1, 2, 3, 4, 5, 6, 7, 8, 9]","39","3","setsize","10S10A","food","4","0","999","0","1"
"null","null","learn","18:04:19","4","4","4","learn","4","4","[0, 1, 2, 3, 4, 5, 6, 7, 8, 9]","40","4","setsize","10S10A","food","4","0","999","0","1"
"null","null","learn","18:04:19","5","5","5","learn","5","5","[0, 1, 2, 3, 4, 5, 6, 7, 8, 9]","41","4","setsize","10S10A","food","4","0","999","0","1"
"null","null","learn","18:04:19","9","9","9","learn","9","9","[0, 1, 2, 3, 4, 5, 6, 7, 8, 9]","42","4","setsize","10S10A","food","4","0","999","0","1"
"null","null","learn","18:04:19","7","7","7","learn","7","7","[0, 1, 2, 3, 4, 5, 6, 7, 8, 9]","43","4","setsize","10S10A","food","4","0","999","0","1"
"null","null","learn","18:04:19","1","1","1","learn","1","1","[0, 1, 2, 3, 4, 5, 6, 7, 8, 9]","44","4","setsize","10S10A","food","4","0","999","0","1"
"null","null","learn","18:04:19","3","3","3","learn","3","3","[0, 1, 2, 3, 4, 5, 6, 7, 8, 9]","45","4","setsize","10S10A","food","4","0","999","0","1"
"null","null","learn","18:04:19","0","0","0","learn","0","0","[0, 1, 2, 3, 4, 5, 6, 7, 8, 9]","46","4","setsize","10S10A","food","4","0","999","0","1"
"null","null","learn","18:04:19","6","6","6","learn","6","6","[0, 1, 2, 3, 4, 5, 6, 7, 8, 9]","47","4","setsize","10S10A","food","4","0","999","0","1"
"null","null","learn","18:04:19","8","8","8","learn","8","8","[0, 1, 2, 3, 4, 5, 6, 7, 8, 9]","48","4","setsize","10S10A","food","4","0","999","0","1"
"1526","null","learn","18:04:19","2","2","2","learn","2","2","[0, 1, 2, 3, 4, 5, 6, 7, 8, 9]","49","4","setsize","10S10A","food","4","0","9","0","1"
"358","null","learn","18:04:19","9","9","9","learn","9","9","[0, 1, 2, 3, 4, 5, 6, 7, 8, 9]","50","5","setsize","10S10A","food","4","0","2","0","1"
"15","null","learn","18:04:19","4","4","4","learn","4","4","[0, 1, 2, 3, 4, 5, 6, 7, 8, 9]","51","5","setsize","10S10A","food","4","1","4","1","1"
"48","null","learn","18:04:19","5","5","5","learn","5","5","[0, 1, 2, 3, 4, 5, 6, 7, 8, 9]","52","5","setsize","10S10A","food","4","0","9","0","1"
"797","null","learn","18:04:19","7","7","7","learn","7","7","[0, 1, 2, 3, 4, 5, 6, 7, 8, 9]","53","5","setsize","10S10A","food","4","0","1","0","1"
"235","null","learn","18:04:19","3","3","3","learn","3","3","[0, 1, 2, 3, 4, 5, 6, 7, 8, 9]","54","5","setsize","10S10A","food","4","0","2","0","1"
"4","null","learn","18:04:19","1","1","1","learn","1","1","[0, 1, 2, 3, 4, 5, 6, 7, 8, 9]","55","5","setsize","10S10A","food","4","0","4","0","1"
"191","null","learn","18:04:19","8","8","8","learn","8","8","[0, 1, 2, 3, 4, 5, 6, 7, 8, 9]","56","5","setsize","10S10A","food","4","0","6","0","1"
"32","null","learn","18:04:19","6","6","6","learn","6","6","[0, 1, 2, 3, 4, 5, 6, 7, 8, 9]","57","5","setsize","10S10A","food","4","0","2","0","1"
"153","null","learn","18:04:19","2","2","2","learn","2","2","[0, 1, 2, 3, 4, 5, 6, 7, 8, 9]","58","5","setsize","10S10A","food","4","0","9","0","1"
"334","null","learn","18:04:19","0","0","0","learn","0","0","[0, 1, 2, 3, 4, 5, 6, 7, 8, 9]","59","5","setsize","10S10A","food","4","0","5","0","1"
"326","null","learn","18:04:19","0","0","0","learn","0","0","[0, 1, 2, 3, 4, 5, 6, 7, 8, 9]","60","6","setsize","10S10A","food","4","0","2","0","1"
"79","null","learn","18:04:19","5","5","5","learn","5","5","[0, 1, 2, 3, 4, 5, 6, 7, 8, 9]","61","6","setsize","10S10A","food","4","0","0","0","1"
"533","null","learn","18:04:19","9","9","9","learn","9","9","[0, 1, 2, 3, 4, 5, 6, 7, 8, 9]","62","6","setsize","10S10A","food","4","0","1","0","1"
"175","null","learn","18:04:19","1","1","1","learn","1","1","[0, 1, 2, 3, 4, 5, 6, 7, 8, 9]","63","6","setsize","10S10A","food","4","0","8","0","1"
"468","null","learn","18:04:19","8","8","8","learn","8","8","[0, 1, 2, 3, 4, 5, 6, 7, 8, 9]","64","6","setsize","10S10A","food","4","0","5","0","1"
"224","null","learn","18:04:19","2","2","2","learn","2","2","[0, 1, 2, 3, 4, 5, 6, 7, 8, 9]","65","6","setsize","10S10A","food","4","0","6","0","1"
"85","null","learn","18:04:19","3","3","3","learn","3","3","[0, 1, 2, 3, 4, 5, 6, 7, 8, 9]","66","6","setsize","10S10A","food","4","0","9","0","1"
"339","null","learn","18:04:19","4","4","4","learn","4","4","[0, 1, 2, 3, 4, 5, 6, 7, 8, 9]","67","6","setsize","10S10A","food","4","0","3","0","1"
"302","null","learn","18:04:19","7","7","7","learn","7","7","[0, 1, 2, 3, 4, 5, 6, 7, 8, 9]","68","6","setsize","10S10A","food","4","0","2","0","1"
"260","null","learn","18:04:19","6","6","6","learn","6","6","[0, 1, 2, 3, 4, 5, 6, 7, 8, 9]","69","6","setsize","10S10A","food","4","0","3","0","1"
"300","null","learn","18:04:19","6","6","6","learn","6","6","[0, 1, 2, 3, 4, 5, 6, 7, 8, 9]","70","7","setsize","10S10A","food","4","0","9","0","1"
"269","null","learn","18:04:19","9","9","9","learn","9","9","[0, 1, 2, 3, 4, 5, 6, 7, 8, 9]","71","7","setsize","10S10A","food","4","0","8","0","1"
"114","null","learn","18:04:19","8","8","8","learn","8","8","[0, 1, 2, 3, 4, 5, 6, 7, 8, 9]","72","7","setsize","10S10A","food","4","0","7","0","1"
"287","null","learn","18:04:19","1","1","1","learn","1","1","[0, 1, 2, 3, 4, 5, 6, 7, 8, 9]","73","7","setsize","10S10A","food","4","0","6","0","1"
"341","null","learn","18:04:19","3","3","3","learn","3","3","[0, 1, 2, 3, 4, 5, 6, 7, 8, 9]","74","7","setsize","10S10A","food","4","0","5","0","1"
"319","null","learn","18:04:19","5","5","5","learn","5","5","[0, 1, 2, 3, 4, 5, 6, 7, 8, 9]","75","7","setsize","10S10A","food","4","0","3","0","1"
"123","null","learn","18:04:19","0","0","0","learn","0","0","[0, 1, 2, 3, 4, 5, 6, 7, 8, 9]","76","7","setsize","10S10A","food","4","0","4","0","1"
"195","null","learn","18:04:19","2","2","2","learn","2","2","[0, 1, 2, 3, 4, 5, 6, 7, 8, 9]","77","7","setsize","10S10A","food","4","0","9","0","1"
"230","null","learn","18:04:19","4","4","4","learn","4","4","[0, 1, 2, 3, 4, 5, 6, 7, 8, 9]","78","7","setsize","10S10A","food","4","0","0","0","1"
"248","null","learn","18:04:19","7","7","7","learn","7","7","[0, 1, 2, 3, 4, 5, 6, 7, 8, 9]","79","7","setsize","10S10A","food","4","0","0","0","1"
"181","null","learn","18:04:19","0","0","0","learn","0","0","[0, 1, 2, 3, 4, 5, 6, 7, 8, 9]","80","8","setsize","10S10A","food","4","1","0","1","1"
"513","null","learn","18:04:19","6","6","6","learn","6","6","[0, 1, 2, 3, 4, 5, 6, 7, 8, 9]","81","8","setsize","10S10A","food","4","0","1","0","1"
"352","null","learn","18:04:19","7","7","7","learn","7","7","[0, 1, 2, 3, 4, 5, 6, 7, 8, 9]","82","8","setsize","10S10A","food","4","0","1","0","1"
"260","null","learn","18:04:19","4","4","4","learn","4","4","[0, 1, 2, 3, 4, 5, 6, 7, 8, 9]","83","8","setsize","10S10A","food","4","0","1","0","1"
"439","null","learn","18:04:19","2","2","2","learn","2","2","[0, 1, 2, 3, 4, 5, 6, 7, 8, 9]","84","8","setsize","10S10A","food","4","0","1","0","1"
"321","null","learn","18:04:19","3","3","3","learn","3","3","[0, 1, 2, 3, 4, 5, 6, 7, 8, 9]","85","8","setsize","10S10A","food","4","0","1","0","1"
"348","null","learn","18:04:19","8","8","8","learn","8","8","[0, 1, 2, 3, 4, 5, 6, 7, 8, 9]","86","8","setsize","10S10A","food","4","0","1","0","1"
"317","null","learn","18:04:19","1","1","1","learn","1","1","[0, 1, 2, 3, 4, 5, 6, 7, 8, 9]","87","8","setsize","10S10A","food","4","1","1","1","1"
"541","null","learn","18:04:19","5","5","5","learn","5","5","[0, 1, 2, 3, 4, 5, 6, 7, 8, 9]","88","8","setsize","10S10A","food","4","0","2","0","1"
"321","null","learn","18:04:19","9","9","9","learn","9","9","[0, 1, 2, 3, 4, 5, 6, 7, 8, 9]","89","8","setsize","10S10A","food","4","0","2","0","1"
"365","null","learn","18:04:19","8","8","8","learn","8","8","[0, 1, 2, 3, 4, 5, 6, 7, 8, 9]","90","9","setsize","10S10A","food","4","0","2","0","1"
"440","null","learn","18:04:19","9","9","9","learn","9","9","[0, 1, 2, 3, 4, 5, 6, 7, 8, 9]","91","9","setsize","10S10A","food","4","0","2","0","1"
"222","null","learn","18:04:19","5","5","5","learn","5","5","[0, 1, 2, 3, 4, 5, 6, 7, 8, 9]","92","9","setsize","10S10A","food","4","0","2","0","1"
"432","null","learn","18:04:19","3","3","3","learn","3","3","[0, 1, 2, 3, 4, 5, 6, 7, 8, 9]","93","9","setsize","10S10A","food","4","0","2","0","1"
"1096","null","learn","18:04:19","1","1","1","learn","1","1","[0, 1, 2, 3, 4, 5, 6, 7, 8, 9]","94","9","setsize","10S10A","food","4","1","1","1","1"
"239","null","learn","18:04:19","0","0","0","learn","0","0","[0, 1, 2, 3, 4, 5, 6, 7, 8, 9]","95","9","setsize","10S10A","food","4","0","2","0","1"
"354","null","learn","18:04:19","4","4","4","learn","4","4","[0, 1, 2, 3, 4, 5, 6, 7, 8, 9]","96","9","setsize","10S10A","food","4","0","2","0","1"
"313","null","learn","18:04:19","6","6","6","learn","6","6","[0, 1, 2, 3, 4, 5, 6, 7, 8, 9]","97","9","setsize","10S10A","food","4","0","2","0","1"
"32","null","learn","18:04:19","2","2","2","learn","2","2","[0, 1, 2, 3, 4, 5, 6, 7, 8, 9]","98","9","setsize","10S10A","food","4","1","2","1","1"
"248","null","learn","18:04:19","7","7","7","learn","7","7","[0, 1, 2, 3, 4, 5, 6, 7, 8, 9]","99","9","setsize","10S10A","food","4","0","3","0","1"
"86","null","learn","18:04:19","8","8","8","learn","8","8","[0, 1, 2, 3, 4, 5, 6, 7, 8, 9]","100","10","setsize","10S10A","food","4","0","3","0","1"
"64","null","learn","18:04:19","6","6","6","learn","6","6","[0, 1, 2, 3, 4, 5, 6, 7, 8, 9]","101","10","setsize","10S10A","food","4","0","3","0","1"
"265","null","learn","18:04:19","5","5","5","learn","5","5","[0, 1, 2, 3, 4, 5, 6, 7, 8, 9]","102","10","setsize","10S10A","food","4","0","3","0","1"
"338","null","learn","18:04:19","1","1","1","learn","1","1","[0, 1, 2, 3, 4, 5, 6, 7, 8, 9]","103","10","setsize","10S10A","food","4","0","3","0","1"
"1122","null","learn","18:04:19","2","2","2","learn","2","2","[0, 1, 2, 3, 4, 5, 6, 7, 8, 9]","104","10","setsize","10S10A","food","4","0","3","0","1"
"1052","null","learn","18:04:19","0","0","0","learn","0","0","[0, 1, 2, 3, 4, 5, 6, 7, 8, 9]","105","10","setsize","10S10A","food","4","1","0","1","1"
"547","null","learn","18:04:19","9","9","9","learn","9","9","[0, 1, 2, 3, 4, 5, 6, 7, 8, 9]","106","10","setsize","10S10A","food","4","0","3","0","1"
"478","null","learn","18:04:19","7","7","7","learn","7","7","[0, 1, 2, 3, 4, 5, 6, 7, 8, 9]","107","10","setsize","10S10A","food","4","0","3","0","1"
"192","null","learn","18:04:19","4","4","4","learn","4","4","[0, 1, 2, 3, 4, 5, 6, 7, 8, 9]","108","10","setsize","10S10A","food","4","0","3","0","1"
"857","null","learn","18:04:19","3","3","3","learn","3","3","[0, 1, 2, 3, 4, 5, 6, 7, 8, 9]","109","10","setsize","10S10A","food","4","1","3","1","1"
"1203","null","learn","18:04:19","0","0","0","learn","0","0","[0, 1, 2, 3, 4, 5, 6, 7, 8, 9]","110","11","setsize","10S10A","food","4","2","0","1","1"
"1429","null","learn","18:04:19","3","3","3","learn","3","3","[0, 1, 2, 3, 4, 5, 6, 7, 8, 9]","111","11","setsize","10S10A","food","4","3","3","1","1"
"680","null","learn","18:04:19","5","5","5","learn","5","5","[0, 1, 2, 3, 4, 5, 6, 7, 8, 9]","112","11","setsize","10S10A","food","4","0","4","0","1"
"261","null","learn","18:04:19","2","2","2","learn","2","2","[0, 1, 2, 3, 4, 5, 6, 7, 8, 9]","113","11","setsize","10S10A","food","4","0","4","0","1"
"646","null","learn","18:04:19","7","7","7","learn","7","7","[0, 1, 2, 3, 4, 5, 6, 7, 8, 9]","114","11","setsize","10S10A","food","4","0","4","0","1"
"335","null","learn","18:04:19","8","8","8","learn","8","8","[0, 1, 2, 3, 4, 5, 6, 7, 8, 9]","115","11","setsize","10S10A","food","4","0","4","0","1"
"191","null","learn","18:04:19","4","4","4","learn","4","4","[0, 1, 2, 3, 4, 5, 6, 7, 8, 9]","116","11","setsize","10S10A","food","4","0","5","0","1"
"203","null","learn","18:04:19","1","1","1","learn","1","1","[0, 1, 2, 3, 4, 5, 6, 7, 8, 9]","117","11","setsize","10S10A","food","4","0","4","0","1"
"576","null","learn","18:04:19","6","6","6","learn","6","6","[0, 1, 2, 3, 4, 5, 6, 7, 8, 9]","118","11","setsize","10S10A","food","4","0","4","0","1"
"1123","null","learn","18:04:19","9","9","9","learn","9","9","[0, 1, 2, 3, 4, 5, 6, 7, 8, 9]","119","11","setsize","10S10A","food","4","0","2","0","1"
"943","null","learn","18:04:19","3","3","3","learn","3","3","[0, 1, 2, 3, 4, 5, 6, 7, 8, 9]","120","12","setsize","10S10A","food","4","1","3","1","1"
"407","null","learn","18:04:19","8","8","8","learn","8","8","[0, 1, 2, 3, 4, 5, 6, 7, 8, 9]","121","12","setsize","10S10A","food","4","0","4","0","1"
"467","null","learn","18:04:19","7","7","7","learn","7","7","[0, 1, 2, 3, 4, 5, 6, 7, 8, 9]","122","12","setsize","10S10A","food","4","0","4","0","1"
"295","null","learn","18:04:19","6","6","6","learn","6","6","[0, 1, 2, 3, 4, 5, 6, 7, 8, 9]","123","12","setsize","10S10A","food","4","0","4","0","1"
"686","null","learn","18:04:19","4","4","4","learn","4","4","[0, 1, 2, 3, 4, 5, 6, 7, 8, 9]","124","12","setsize","10S10A","food","4","1","4","1","1"
"1108","null","learn","18:04:19","9","9","9","learn","9","9","[0, 1, 2, 3, 4, 5, 6, 7, 8, 9]","125","12","setsize","10S10A","food","4","0","5","0","1"
"1241","null","learn","18:04:19","2","2","2","learn","2","2","[0, 1, 2, 3, 4, 5, 6, 7, 8, 9]","126","12","setsize","10S10A","food","4","1","2","1","1"
"306","null","learn","18:04:19","0","0","0","learn","0","0","[0, 1, 2, 3, 4, 5, 6, 7, 8, 9]","127","12","setsize","10S10A","food","4","0","5","0","1"
"1439","null","learn","18:04:19","1","1","1","learn","1","1","[0, 1, 2, 3, 4, 5, 6, 7, 8, 9]","128","12","setsize","10S10A","food","4","0","2","0","1"
"665","null","learn","18:04:19","5","5","5","learn","5","5","[0, 1, 2, 3, 4, 5, 6, 7, 8, 9]","129","12","setsize","10S10A","food","4","1","5","1","1"
"736","null","learn","18:04:19","8","8","8","learn","8","8","[0, 1, 2, 3, 4, 5, 6, 7, 8, 9]","130","13","setsize","10S10A","food","4","0","6","0","1"
"241","null","learn","18:04:19","6","6","6","learn","6","6","[0, 1, 2, 3, 4, 5, 6, 7, 8, 9]","131","13","setsize","10S10A","food","4","1","6","1","1"
"1457","null","learn","18:04:19","2","2","2","learn","2","2","[0, 1, 2, 3, 4, 5, 6, 7, 8, 9]","132","13","setsize","10S10A","food","4","2","2","1","1"
"899","null","learn","18:04:19","5","5","5","learn","5","5","[0, 1, 2, 3, 4, 5, 6, 7, 8, 9]","133","13","setsize","10S10A","food","4","3","5","1","1"
"1541","null","learn","18:04:19","1","1","1","learn","1","1","[0, 1, 2, 3, 4, 5, 6, 7, 8, 9]","134","13","setsize","10S10A","food","4","0","6","0","1"
"270","null","learn","18:04:19","7","7","7","learn","7","7","[0, 1, 2, 3, 4, 5, 6, 7, 8, 9]","135","13","setsize","10S10A","food","4","1","7","1","1"
"602","null","learn","18:04:19","4","4","4","learn","4","4","[0, 1, 2, 3, 4, 5, 6, 7, 8, 9]","136","13","setsize","10S10A","food","4","0","8","0","1"
"1355","null","learn","18:04:19","0","0","0","learn","0","0","[0, 1, 2, 3, 4, 5, 6, 7, 8, 9]","137","13","setsize","10S10A","food","4","1","0","1","1"
"1119","null","learn","18:04:19","9","9","9","learn","9","9","[0, 1, 2, 3, 4, 5, 6, 7, 8, 9]","138","13","setsize","10S10A","food","4","0","3","0","1"
"292","null","learn","18:04:19","3","3","3","learn","3","3","[0, 1, 2, 3, 4, 5, 6, 7, 8, 9]","139","13","setsize","10S10A","food","4","0","7","0","1"
"280","null","learn","18:04:19","3","3","3","learn","3","3","[0, 1, 2, 3, 4, 5, 6, 7, 8, 9]","140","14","setsize","10S10A","food","4","0","6","0","1"
"186","null","learn","18:04:19","0","0","0","learn","0","0","[0, 1, 2, 3, 4, 5, 6, 7, 8, 9]","141","14","setsize","10S10A","food","4","0","5","0","1"
"255","null","learn","18:04:19","7","7","7","learn","7","7","[0, 1, 2, 3, 4, 5, 6, 7, 8, 9]","142","14","setsize","10S10A","food","4","0","0","0","1"
"143","null","learn","18:04:19","8","8","8","learn","8","8","[0, 1, 2, 3, 4, 5, 6, 7, 8, 9]","143","14","setsize","10S10A","food","4","0","6","0","1"
"1229","null","learn","18:04:19","5","5","5","learn","5","5","[0, 1, 2, 3, 4, 5, 6, 7, 8, 9]","144","14","setsize","10S10A","food","4","1","5","1","1"
"886","null","learn","18:04:19","2","2","2","learn","2","2","[0, 1, 2, 3, 4, 5, 6, 7, 8, 9]","145","14","setsize","10S10A","food","4","2","2","1","1"
"1350","null","learn","18:04:19","6","6","6","learn","6","6","[0, 1, 2, 3, 4, 5, 6, 7, 8, 9]","146","14","setsize","10S10A","food","4","3","6","1","1"
"840","null","learn","18:04:19","9","9","9","learn","9","9","[0, 1, 2, 3, 4, 5, 6, 7, 8, 9]","147","14","setsize","10S10A","food","4","0","8","0","1"
"1073","null","learn","18:04:19","1","1","1","learn","1","1","[0, 1, 2, 3, 4, 5, 6, 7, 8, 9]","148","14","setsize","10S10A","food","4","0","7","0","1"
"662","null","learn","18:04:19","4","4","4","learn","4","4","[0, 1, 2, 3, 4, 5, 6, 7, 8, 9]","149","14","setsize","10S10A","food","4","0","9","0","1"
"1545","null","learn","18:04:19","2","2","2","learn","2","2","[0, 1, 2, 3, 4, 5, 6, 7, 8, 9]","150","15","setsize","10S10A","food","4","1","2","1","1"
"1412","null","learn","18:04:19","7","7","7","learn","7","7","[0, 1, 2, 3, 4, 5, 6, 7, 8, 9]","151","15","setsize","10S10A","food","4","0","8","0","1"
"1469","null","learn","18:04:19","5","5","5","learn","5","5","[0, 1, 2, 3, 4, 5, 6, 7, 8, 9]","152","15","setsize","10S10A","food","4","1","5","1","1"
"1579","null","learn","18:04:19","9","9","9","learn","9","9","[0, 1, 2, 3, 4, 5, 6, 7, 8, 9]","153","15","setsize","10S10A","food","4","2","9","1","1"
"978","null","learn","18:04:19","3","3","3","learn","3","3","[0, 1, 2, 3, 4, 5, 6, 7, 8, 9]","154","15","setsize","10S10A","food","4","3","3","1","1"
"1356","null","learn","18:04:19","1","1","1","learn","1","1","[0, 1, 2, 3, 4, 5, 6, 7, 8, 9]","155","15","setsize","10S10A","food","4","0","6","0","1"
"582","null","learn","18:04:19","8","8","8","learn","8","8","[0, 1, 2, 3, 4, 5, 6, 7, 8, 9]","156","15","setsize","10S10A","food","4","1","8","1","1"
"850","null","learn","18:04:19","0","0","0","learn","0","0","[0, 1, 2, 3, 4, 5, 6, 7, 8, 9]","157","15","setsize","10S10A","food","4","2","0","1","1"
"1142","null","learn","18:04:19","4","4","4","learn","4","4","[0, 1, 2, 3, 4, 5, 6, 7, 8, 9]","158","15","setsize","10S10A","food","4","0","6","0","1"
"1413","null","learn","18:04:19","6","6","6","learn","6","6","[0, 1, 2, 3, 4, 5, 6, 7, 8, 9]","159","15","setsize","10S10A","food","4","1","6","1","1"
"1039","null","learn","18:04:19","7","7","7","learn","7","7","[0, 1, 2, 3, 4, 5, 6, 7, 8, 9]","160","16","setsize","10S10A","food","4","2","7","1","1"
"837","null","learn","18:04:19","9","9","9","learn","9","9","[0, 1, 2, 3, 4, 5, 6, 7, 8, 9]","161","16","setsize","10S10A","food","4","3","9","1","1"
"993","null","learn","18:04:19","6","6","6","learn","6","6","[0, 1, 2, 3, 4, 5, 6, 7, 8, 9]","162","16","setsize","10S10A","food","4","4","6","1","1"
"908","null","learn","18:04:19","2","2","2","learn","2","2","[0, 1, 2, 3, 4, 5, 6, 7, 8, 9]","163","16","setsize","10S10A","food","4","5","2","1","1"
"668","null","learn","18:04:19","8","8","8","learn","8","8","[0, 1, 2, 3, 4, 5, 6, 7, 8, 9]","164","16","setsize","10S10A","food","4","0","9","0","1"
"837","null","learn","18:04:19","4","4","4","learn","4","4","[0, 1, 2, 3, 4, 5, 6, 7, 8, 9]","165","16","setsize","10S10A","food","4","0","9","0","1"
"893","null","learn","18:04:19","5","5","5","learn","5","5","[0, 1, 2, 3, 4, 5, 6, 7, 8, 9]","166","16","setsize","10S10A","food","4","0","6","0","1"
"1381","null","learn","18:04:19","3","3","3","learn","3","3","[0, 1, 2, 3, 4, 5, 6, 7, 8, 9]","167","16","setsize","10S10A","food","4","1","3","1","1"
"701","null","learn","18:04:19","1","1","1","learn","1","1","[0, 1, 2, 3, 4, 5, 6, 7, 8, 9]","168","16","setsize","10S10A","food","4","0","4","0","1"
"1448","null","learn","18:04:19","0","0","0","learn","0","0","[0, 1, 2, 3, 4, 5, 6, 7, 8, 9]","169","16","setsize","10S10A","food","4","1","0","1","1"
"1326","null","learn","18:04:19","9","9","9","learn","9","9","[0, 1, 2, 3, 4, 5, 6, 7, 8, 9]","170","17","setsize","10S10A","food","4","2","9","1","1"
"908","null","learn","18:04:19","1","1","1","learn","1","1","[0, 1, 2, 3, 4, 5, 6, 7, 8, 9]","171","17","setsize","10S10A","food","4","3","1","1","1"
"964","null","learn","18:04:19","6","6","6","learn","6","6","[0, 1, 2, 3, 4, 5, 6, 7, 8, 9]","172","17","setsize","10S10A","food","4","4","6","1","1"
"946","null","learn","18:04:19","3","3","3","learn","3","3","[0, 1, 2, 3, 4, 5, 6, 7, 8, 9]","173","17","setsize","10S10A","food","4","5","3","1","1"
"1210","null","learn","18:04:19","7","7","7","learn","7","7","[0, 1, 2, 3, 4, 5, 6, 7, 8, 9]","174","17","setsize","10S10A","food","4","0","8","0","1"
"829","null","learn","18:04:19","4","4","4","learn","4","4","[0, 1, 2, 3, 4, 5, 6, 7, 8, 9]","175","17","setsize","10S10A","food","4","0","8","0","1"
"1313","null","learn","18:04:19","2","2","2","learn","2","2","[0, 1, 2, 3, 4, 5, 6, 7, 8, 9]","176","17","setsize","10S10A","food","4","1","2","1","1"
"1147","null","learn","18:04:19","0","0","0","learn","0","0","[0, 1, 2, 3, 4, 5, 6, 7, 8, 9]","177","17","setsize","10S10A","food","4","2","0","1","1"
"1097","null","learn","18:04:19","8","8","8","learn","8","8","[0, 1, 2, 3, 4, 5, 6, 7, 8, 9]","178","17","setsize","10S10A","food","4","3","8","1","1"
"1026","null","learn","18:04:19","5","5","5","learn","5","5","[0, 1, 2, 3, 4, 5, 6, 7, 8, 9]","179","17","setsize","10S10A","food","4","4","5","1","1"
"893","null","learn","18:04:19","3","3","3","learn","3","3","[0, 1, 2, 3, 4, 5, 6, 7, 8, 9]","180","18","setsize","10S10A","food","4","5","3","1","1"
"1261","null","learn","18:04:19","5","5","5","learn","5","5","[0, 1, 2, 3, 4, 5, 6, 7, 8, 9]","181","18","setsize","10S10A","food","4","0","6","0","1"
"null","null","learn","18:04:19","9","9","9","learn","9","9","[0, 1, 2, 3, 4, 5, 6, 7, 8, 9]","182","18","setsize","10S10A","food","4","0","999","0","1"
"691","null","learn","18:04:19","1","1","1","learn","1","1","[0, 1, 2, 3, 4, 5, 6, 7, 8, 9]","183","18","setsize","10S10A","food","4","0","2","0","1"
"739","null","learn","18:04:19","0","0","0","learn","0","0","[0, 1, 2, 3, 4, 5, 6, 7, 8, 9]","184","18","setsize","10S10A","food","4","1","0","1","1"
"1352","null","learn","18:04:19","2","2","2","learn","2","2","[0, 1, 2, 3, 4, 5, 6, 7, 8, 9]","185","18","setsize","10S10A","food","4","0","3","0","1"
"1195","null","learn","18:04:19","7","7","7","learn","7","7","[0, 1, 2, 3, 4, 5, 6, 7, 8, 9]","186","18","setsize","10S10A","food","4","1","7","1","1"
"1094","null","learn","18:04:19","4","4","4","learn","4","4","[0, 1, 2, 3, 4, 5, 6, 7, 8, 9]","187","18","setsize","10S10A","food","4","0","8","0","1"
"250","null","learn","18:04:19","6","6","6","learn","6","6","[0, 1, 2, 3, 4, 5, 6, 7, 8, 9]","188","18","setsize","10S10A","food","4","1","6","1","1"
"1122","null","learn","18:04:19","8","8","8","learn","8","8","[0, 1, 2, 3, 4, 5, 6, 7, 8, 9]","189","18","setsize","10S10A","food","4","0","9","0","1"
"null","null","learn","18:04:19","1","1","1","learn","1","1","[0, 1, 2, 3, 4, 5, 6, 7, 8, 9]","190","19","setsize","10S10A","food","4","0","999","0","1"
"265","null","learn","18:04:19","5","5","5","learn","5","5","[0, 1, 2, 3, 4, 5, 6, 7, 8, 9]","191","19","setsize","10S10A","food","4","0","8","0","1"
"717","null","learn","18:04:19","0","0","0","learn","0","0","[0, 1, 2, 3, 4, 5, 6, 7, 8, 9]","192","19","setsize","10S10A","food","4","1","0","1","1"
"855","null","learn","18:04:19","3","3","3","learn","3","3","[0, 1, 2, 3, 4, 5, 6, 7, 8, 9]","193","19","setsize","10S10A","food","4","2","3","1","1"
"803","null","learn","18:04:19","6","6","6","learn","6","6","[0, 1, 2, 3, 4, 5, 6, 7, 8, 9]","194","19","setsize","10S10A","food","4","3","6","1","1"
"933","null","learn","18:04:19","7","7","7","learn","7","7","[0, 1, 2, 3, 4, 5, 6, 7, 8, 9]","195","19","setsize","10S10A","food","4","4","7","1","1"
"1407","null","learn","18:04:19","8","8","8","learn","8","8","[0, 1, 2, 3, 4, 5, 6, 7, 8, 9]","196","19","setsize","10S10A","food","4","5","8","1","1"
"2117","null","learn","18:04:19","4","4","4","learn","4","4","[0, 1, 2, 3, 4, 5, 6, 7, 8, 9]","197","19","setsize","10S10A","food","4","0","9","0","1"
"326","null","learn","18:04:19","2","2","2","learn","2","2","[0, 1, 2, 3, 4, 5, 6, 7, 8, 9]","198","19","setsize","10S10A","food","4","1","2","1","1"
"1352","null","learn","18:04:19","9","9","9","learn","9","9","[0, 1, 2, 3, 4, 5, 6, 7, 8, 9]","199","19","setsize","10S10A","food","4","2","9","1","1"
"1001","null","learn","18:04:19","6","6","6","learn","6","6","[0, 1, 2, 3, 4, 5, 6, 7, 8, 9]","200","20","setsize","10S10A","food","4","3","6","1","1"
"1292","null","learn","18:04:19","2","2","2","learn","2","2","[0, 1, 2, 3, 4, 5, 6, 7, 8, 9]","201","20","setsize","10S10A","food","4","0","3","0","1"
"291","null","learn","18:04:19","3","3","3","learn","3","3","[0, 1, 2, 3, 4, 5, 6, 7, 8, 9]","202","20","setsize","10S10A","food","4","0","2","0","1"
"936","null","learn","18:04:19","5","5","5","learn","5","5","[0, 1, 2, 3, 4, 5, 6, 7, 8, 9]","203","20","setsize","10S10A","food","4","1","5","1","1"
"2522","null","learn","18:04:19","4","4","4","learn","4","4","[0, 1, 2, 3, 4, 5, 6, 7, 8, 9]","204","20","setsize","10S10A","food","4","0","9","0","1"
"1714","null","learn","18:04:19","9","9","9","learn","9","9","[0, 1, 2, 3, 4, 5, 6, 7, 8, 9]","205","20","setsize","10S10A","food","4","1","9","1","1"
"1317","null","learn","18:04:19","8","8","8","learn","8","8","[0, 1, 2, 3, 4, 5, 6, 7, 8, 9]","206","20","setsize","10S10A","food","4","2","8","1","1"
"927","null","learn","18:04:19","7","7","7","learn","7","7","[0, 1, 2, 3, 4, 5, 6, 7, 8, 9]","207","20","setsize","10S10A","food","4","3","7","1","1"
"894","null","learn","18:04:19","0","0","0","learn","0","0","[0, 1, 2, 3, 4, 5, 6, 7, 8, 9]","208","20","setsize","10S10A","food","4","4","0","1","1"
"891","null","learn","18:04:19","1","1","1","learn","1","1","[0, 1, 2, 3, 4, 5, 6, 7, 8, 9]","209","20","setsize","10S10A","food","4","5","1","1","1"
"1097","null","learn","18:04:19","8","8","8","learn","8","8","[0, 1, 2, 3, 4, 5, 6, 7, 8, 9]","210","21","setsize","10S10A","food","4","0","9","0","1"
"775","null","learn","18:04:19","9","9","9","learn","9","9","[0, 1, 2, 3, 4, 5, 6, 7, 8, 9]","211","21","setsize","10S10A","food","4","1","9","1","1"
"868","null","learn","18:04:19","6","6","6","learn","6","6","[0, 1, 2, 3, 4, 5, 6, 7, 8, 9]","212","21","setsize","10S10A","food","4","2","6","1","1"
"1365","null","learn","18:04:19","2","2","2","learn","2","2","[0, 1, 2, 3, 4, 5, 6, 7, 8, 9]","213","21","setsize","10S10A","food","4","0","3","0","1"
"1108","null","learn","18:04:19","0","0","0","learn","0","0","[0, 1, 2, 3, 4, 5, 6, 7, 8, 9]","214","21","setsize","10S10A","food","4","1","0","1","1"
"1340","null","learn","18:04:19","5","5","5","learn","5","5","[0, 1, 2, 3, 4, 5, 6, 7, 8, 9]","215","21","setsize","10S10A","food","4","0","6","0","1"
"885","null","learn","18:04:19","1","1","1","learn","1","1","[0, 1, 2, 3, 4, 5, 6, 7, 8, 9]","216","21","setsize","10S10A","food","4","1","1","1","1"
"1083","null","learn","18:04:19","4","4","4","learn","4","4","[0, 1, 2, 3, 4, 5, 6, 7, 8, 9]","217","21","setsize","10S10A","food","4","0","9","0","1"
"1133","null","learn","18:04:19","7","7","7","learn","7","7","[0, 1, 2, 3, 4, 5, 6, 7, 8, 9]","218","21","setsize","10S10A","food","4","0","6","0","1"
"1140","null","learn","18:04:19","3","3","3","learn","3","3","[0, 1, 2, 3, 4, 5, 6, 7, 8, 9]","219","21","setsize","10S10A","food","4","1","3","1","1"
"1150","null","learn","18:04:19","5","5","5","learn","5","5","[0, 1, 2, 3, 4, 5, 6, 7, 8, 9]","220","22","setsize","10S10A","food","4","2","5","1","1"
"979","null","learn","18:04:19","0","0","0","learn","0","0","[0, 1, 2, 3, 4, 5, 6, 7, 8, 9]","221","22","setsize","10S10A","food","4","3","0","1","1"
"1049","null","learn","18:04:19","4","4","4","learn","4","4","[0, 1, 2, 3, 4, 5, 6, 7, 8, 9]","222","22","setsize","10S10A","food","4","0","8","0","1"
"1185","null","learn","18:04:19","2","2","2","learn","2","2","[0, 1, 2, 3, 4, 5, 6, 7, 8, 9]","223","22","setsize","10S10A","food","4","1","2","1","1"
"1166","null","learn","18:04:19","6","6","6","learn","6","6","[0, 1, 2, 3, 4, 5, 6, 7, 8, 9]","224","22","setsize","10S10A","food","4","2","6","1","1"
"1393","null","learn","18:04:19","7","7","7","learn","7","7","[0, 1, 2, 3, 4, 5, 6, 7, 8, 9]","225","22","setsize","10S10A","food","4","3","7","1","1"
"883","null","learn","18:04:19","3","3","3","learn","3","3","[0, 1, 2, 3, 4, 5, 6, 7, 8, 9]","226","22","setsize","10S10A","food","4","4","3","1","1"
"772","null","learn","18:04:19","9","9","9","learn","9","9","[0, 1, 2, 3, 4, 5, 6, 7, 8, 9]","227","22","setsize","10S10A","food","4","5","9","1","1"
"796","null","learn","18:04:19","8","8","8","learn","8","8","[0, 1, 2, 3, 4, 5, 6, 7, 8, 9]","228","22","setsize","10S10A","food","4","6","8","1","1"
"1104","null","learn","18:04:19","1","1","1","learn","1","1","[0, 1, 2, 3, 4, 5, 6, 7, 8, 9]","229","22","setsize","10S10A","food","4","7","1","1","1"
"634","null","learn","18:04:19","1","1","1","learn","1","1","[0, 1, 2, 3, 4, 5, 6, 7, 8, 9]","230","23","setsize","10S10A","food","4","8","1","1","1"
"1080","null","learn","18:04:19","5","5","5","learn","5","5","[0, 1, 2, 3, 4, 5, 6, 7, 8, 9]","231","23","setsize","10S10A","food","4","9","5","1","1"
