"rt","response","screen_id","trial_type","trial_index","time_elapsed","internal_node_id","start_time","n_Prac","success","timeout","failed_images","failed_audio","failed_video","view_history","stimulus","question_order","stage","s","word","word_id","phase","a_cor","a_real","a_ava","trial","tps","task_type","block_typ","pic_typ","block_id","cum_r","a","r","plugin_name"
"29186","{""sub_id"":""26"",""task_type"":""task1"",""name"":""斯文臻"",""gender"":""M""}","basic_info","survey-html-form","0","29199","0.0-0.0","10:07:47","5","","","","","","","","","","","","","","","","","","","","","","","","","",""
"","","","preload","1","29644","0.0-1.0-0.0","10:07:47","5","true","false","[]","[]","[]","","","","","","","","","","","","","","","","","","","","",""
"","","","preload","2","29828","0.0-1.0-1.0","10:07:47","5","true","false","[]","[]","[]","","","","","","","","","","","","","","","","","","","","",""
"","","","fullscreen","3","32329","0.0-1.0-2.0","10:07:47","5","true","","","","","","","","","","","","","","","","","","","","","","","","",""
"21112","","instruct","instructions","4","53448","0.0-1.0-3.0-0.0","10:07:47","5","","","","","","[{""page_index"":0,""viewing_time"":8008},{""page_index"":1,""viewing_time"":4123},{""page_index"":2,""viewing_time"":8979}]","","","","","","","","","","","","","","","","","","","",""
"64318","{""Q0"":"""",""task1"":""<span style='font-size: 24px'>学习图片和数字的对应关系</span>"",""task2"":""<span style='font-size: 24px'> 数字键1-3 </span>"",""task3"":""<span style='font-size: 24px'> 看到图片选出正确对应的数字 </span>""}","question","survey-multi-choice","5","117777","0.0-1.0-3.0-1.0","10:07:47","5","","","","","","","","[0,1,2,3]","","","","","","","","","","","","","","","","","",""
"4687"," ","inst_q","html-keyboard-response","6","122474","0.0-1.0-3.0-2.0","10:07:47","5","","","","","","","inst","","1","","","","","","","","","","","","","","","","",""
"10950","","instruct","instructions","7","133425","0.0-1.0-3.1-0.1","10:07:47","5","","","","","","[{""page_index"":0,""viewing_time"":3467},{""page_index"":1,""viewing_time"":4421},{""page_index"":2,""viewing_time"":3062}]","","","","","","","","","","","","","","","","","","","",""
"15390","{""Q0"":"""",""task1"":""<span style='font-size: 24px'>选择正确按钮获得更多能量</span>"",""task2"":""<span style='font-size: 24px'> 数字键1-3 </span>"",""task3"":""<span style='font-size: 24px'> 看到图片选出正确对应的数字 </span>""}","question","survey-multi-choice","8","148818","0.0-1.0-3.1-1.1","10:07:47","5","","","","","","","","[0,1,2,3]","","","","","","","","","","","","","","","","","",""
"1755"," ","inst_q","html-keyboard-response","9","150580","0.0-1.0-3.1-2.1","10:07:47","5","","","","","","","inst","","1","","","","","","","","","","","","","","","","",""
"2651","","instruct","instructions","10","153232","0.0-1.0-3.2-0.2","10:07:47","5","","","","","","[{""page_index"":0,""viewing_time"":997},{""page_index"":1,""viewing_time"":402},{""page_index"":2,""viewing_time"":1252}]","","","","","","","","","","","","","","","","","","","",""
"11962","{""Q0"":"""",""task1"":""<span style='font-size: 24px'>学习图片和数字的对应关系</span>"",""task2"":""<span style='font-size: 24px'> 图片下方标注为可用的数字键（数字键1-3或0-9） </span>"",""task3"":""<span style='font-size: 24px'> 看到图片选出正确对应的数字 </span>""}","question","survey-multi-choice","11","165196","0.0-1.0-3.2-1.2","10:07:47","5","","","","","","","","[0,1,2,3]","","","","","","","","","","","","","","","","","",""
"3107"," ","inst_q","html-keyboard-response","12","168311","0.0-1.0-3.2-2.2","10:07:47","5","","","","","","","inst","","1","","","","","","","","","","","","","","","","",""
"","","","preload","13","168402","0.0-1.0-4.0-0.0","10:07:47","5","true","false","[]","[]","[]","","","","","","","","","","","","","","","","","","","","",""
"5339"," ","","html-keyboard-response","14","173742","0.0-1.0-4.0-1.0","10:07:47","5","","","","","","","<div style='font-size: 32px; text-align: center;'
                    <p>请学习图片和数字之间的对应关系</p>
                    <p>我们将<span style='color: blue'><b> 告诉 </b></span>您选择的对错。请根据反馈学习。</p>
                    <p>请按""空格""继续实验。</p></div>","","","","","","","","","","","","","","","","","","",""
"6310"," ","inst","html-keyboard-response","15","180059","0.0-1.0-4.0-2.0","10:07:47","5","","","","","","","<img class='instruct_stim' src=""instruction/prac3.PNG""></div>","","","","","","","","","","","","","","","","","","",""
"null","null","fixation","html-keyboard-response","16","180584","0.0-1.0-4.0-3.0-0.0","10:07:47","5","","","","","","","fixation","","","","","","","","","","","","","","","","","","",""
"null","null","pic_response","html-keyboard-response","17","183587","0.0-1.0-4.0-3.0-1.0","10:07:47","5","","","","","","","<div>
            <img class='stim' src=""pictures/prac/1.jpg""></div><div class=""button_prompt"">
                        <b>请用数字键1-3回答</b>
                        </div>","","","","","","","","","","","","","","","","","","",""
"null","null","sub_response","html-keyboard-response","18","184588","0.0-1.0-4.0-3.0-2.0","10:07:47","5","","","","","","","<div style='text-align: center;'>
                            <span style=""color: red; font-size: 40px""><b>错误！+0 pts</b></span></div>
                            ","","learn","1","1","1","learn","0","0","[0, 1, 2]","0","0","setsize","99","prac","0","0","999","0",""
"null","null","fixation","html-keyboard-response","19","185091","0.0-1.0-4.0-3.0-0.1","10:07:47","5","","","","","","","fixation","","","","","","","","","","","","","","","","","","",""
"1619","1","pic_response","html-keyboard-response","20","186711","0.0-1.0-4.0-3.0-1.1","10:07:47","5","","","","","","","<div>
            <img class='stim' src=""pictures/prac/0.jpg""></div><div class=""button_prompt"">
                        <b>请用数字键1-3回答</b>
                        </div>","","","","","","","","","","","","","","","","","","",""
"1619","null","sub_response","html-keyboard-response","21","187712","0.0-1.0-4.0-3.0-2.1","10:07:47","5","","","","","","","<div style='text-align: center;'>
                            <span style=""color: green; font-size: 40px""><b>正确！+1 pts</b></span></div>
                            ","","learn","0","0","0","learn","0","0","[0, 1, 2]","1","0","setsize","99","prac","0","1","0","1",""
"null","null","fixation","html-keyboard-response","22","188213","0.0-1.0-4.0-3.0-0.2","10:07:47","5","","","","","","","fixation","","","","","","","","","","","","","","","","","","",""
"2448","1","pic_response","html-keyboard-response","23","190662","0.0-1.0-4.0-3.0-1.2","10:07:47","5","","","","","","","<div>
            <img class='stim' src=""pictures/prac/2.jpg""></div><div class=""button_prompt"">
                        <b>请用数字键1-3回答</b>
                        </div>","","","","","","","","","","","","","","","","","","",""
"2448","null","sub_response","html-keyboard-response","24","191664","0.0-1.0-4.0-3.0-2.2","10:07:47","5","","","","","","","<div style='text-align: center;'>
                            <span style=""color: red; font-size: 40px""><b>错误！+0 pts</b></span></div>
                            ","","learn","2","2","2","learn","2","2","[0, 1, 2]","2","0","setsize","99","prac","0","0","0","0",""
"null","null","fixation","html-keyboard-response","25","192165","0.0-1.0-4.0-3.0-0.3","10:07:47","5","","","","","","","fixation","","","","","","","","","","","","","","","","","","",""
"1147","3","pic_response","html-keyboard-response","26","193312","0.0-1.0-4.0-3.0-1.3","10:07:47","5","","","","","","","<div>
            <img class='stim' src=""pictures/prac/1.jpg""></div><div class=""button_prompt"">
                        <b>请用数字键1-3回答</b>
                        </div>","","","","","","","","","","","","","","","","","","",""
"1147","null","sub_response","html-keyboard-response","27","194313","0.0-1.0-4.0-3.0-2.3","10:07:47","5","","","","","","","<div style='text-align: center;'>
                            <span style=""color: red; font-size: 40px""><b>错误！+0 pts</b></span></div>
                            ","","learn","1","1","1","learn","0","0","[0, 1, 2]","3","1","setsize","99","prac","0","0","2","0",""
"null","null","fixation","html-keyboard-response","28","194814","0.0-1.0-4.0-3.0-0.4","10:07:47","5","","","","","","","fixation","","","","","","","","","","","","","","","","","","",""
"1221","1","pic_response","html-keyboard-response","29","196036","0.0-1.0-4.0-3.0-1.4","10:07:47","5","","","","","","","<div>
            <img class='stim' src=""pictures/prac/0.jpg""></div><div class=""button_prompt"">
                        <b>请用数字键1-3回答</b>
                        </div>","","","","","","","","","","","","","","","","","","",""
"1221","null","sub_response","html-keyboard-response","30","197038","0.0-1.0-4.0-3.0-2.4","10:07:47","5","","","","","","","<div style='text-align: center;'>
                            <span style=""color: green; font-size: 40px""><b>正确！+1 pts</b></span></div>
                            ","","learn","0","0","0","learn","0","0","[0, 1, 2]","4","1","setsize","99","prac","0","1","0","1",""
"null","null","fixation","html-keyboard-response","31","197539","0.0-1.0-4.0-3.0-0.5","10:07:47","5","","","","","","","fixation","","","","","","","","","","","","","","","","","","",""
"969","2","pic_response","html-keyboard-response","32","198509","0.0-1.0-4.0-3.0-1.5","10:07:47","5","","","","","","","<div>
            <img class='stim' src=""pictures/prac/2.jpg""></div><div class=""button_prompt"">
                        <b>请用数字键1-3回答</b>
                        </div>","","","","","","","","","","","","","","","","","","",""
"969","null","sub_response","html-keyboard-response","33","199510","0.0-1.0-4.0-3.0-2.5","10:07:47","5","","","","","","","<div style='text-align: center;'>
                            <span style=""color: red; font-size: 40px""><b>错误！+0 pts</b></span></div>
                            ","","learn","2","2","2","learn","2","2","[0, 1, 2]","5","1","setsize","99","prac","0","0","1","0",""
"","","","preload","34","199517","0.0-1.0-4.1-0.1","10:07:47","5","true","false","[]","[]","[]","","","","","","","","","","","","","","","","","","","","",""
"5227"," ","","html-keyboard-response","35","204745","0.0-1.0-4.1-1.1","10:07:47","5","","","","","","","<div style='font-size: 32px; text-align: center;'
                    <p>请学习图片和数字之间的对应关系</p>
                    <p>我们将<span style='color: blue'><b> 告诉 </b></span>您选择的对错。请根据反馈学习。</p>
                    <p>请按""空格""继续实验。</p></div>","","","","","","","","","","","","","","","","","","",""
"8114"," ","inst","html-keyboard-response","36","212859","0.0-1.0-4.1-2.1","10:07:47","5","","","","","","","<img class='instruct_stim' src=""instruction/prac3.PNG""></div>","","","","","","","","","","","","","","","","","","",""
"null","null","fixation","html-keyboard-response","37","213360","0.0-1.0-4.1-3.1-0.6","10:07:47","5","","","","","","","fixation","","","","","","","","","","","","","","","","","","",""
"2227","1","pic_response","html-keyboard-response","38","215587","0.0-1.0-4.1-3.1-1.6","10:07:47","5","","","","","","","<div>
            <img class='stim' src=""pictures/prac/1.jpg""></div><div class=""button_prompt"">
                        <b>请用数字键1-3回答</b>
                        </div>","","","","","","","","","","","","","","","","","","",""
"2227","null","sub_response","html-keyboard-response","39","216588","0.0-1.0-4.1-3.1-2.6","10:07:47","5","","","","","","","<div style='text-align: center;'>
                            <span style=""color: green; font-size: 40px""><b>正确！+1 pts</b></span></div>
                            ","","learn","1","1","1","learn","0","0","[0, 1, 2]","0","0","setsize","99","prac","0","1","0","1",""
"null","null","fixation","html-keyboard-response","40","217089","0.0-1.0-4.1-3.1-0.7","10:07:47","5","","","","","","","fixation","","","","","","","","","","","","","","","","","","",""
"2025","2","pic_response","html-keyboard-response","41","219116","0.0-1.0-4.1-3.1-1.7","10:07:47","5","","","","","","","<div>
            <img class='stim' src=""pictures/prac/0.jpg""></div><div class=""button_prompt"">
                        <b>请用数字键1-3回答</b>
                        </div>","","","","","","","","","","","","","","","","","","",""
"2025","null","sub_response","html-keyboard-response","42","220117","0.0-1.0-4.1-3.1-2.7","10:07:47","5","","","","","","","<div style='text-align: center;'>
                            <span style=""color: red; font-size: 40px""><b>错误！+0 pts</b></span></div>
                            ","","learn","0","0","0","learn","0","0","[0, 1, 2]","1","0","setsize","99","prac","0","0","1","0",""
"null","null","fixation","html-keyboard-response","43","220618","0.0-1.0-4.1-3.1-0.8","10:07:47","5","","","","","","","fixation","","","","","","","","","","","","","","","","","","",""
"1101","2","pic_response","html-keyboard-response","44","221720","0.0-1.0-4.1-3.1-1.8","10:07:47","5","","","","","","","<div>
            <img class='stim' src=""pictures/prac/2.jpg""></div><div class=""button_prompt"">
                        <b>请用数字键1-3回答</b>
                        </div>","","","","","","","","","","","","","","","","","","",""
"1101","null","sub_response","html-keyboard-response","45","222722","0.0-1.0-4.1-3.1-2.8","10:07:47","5","","","","","","","<div style='text-align: center;'>
                            <span style=""color: red; font-size: 40px""><b>错误！+0 pts</b></span></div>
                            ","","learn","2","2","2","learn","2","2","[0, 1, 2]","2","0","setsize","99","prac","0","0","1","0",""
"null","null","fixation","html-keyboard-response","46","223223","0.0-1.0-4.1-3.1-0.9","10:07:47","5","","","","","","","fixation","","","","","","","","","","","","","","","","","","",""
"829","1","pic_response","html-keyboard-response","47","224053","0.0-1.0-4.1-3.1-1.9","10:07:47","5","","","","","","","<div>
            <img class='stim' src=""pictures/prac/1.jpg""></div><div class=""button_prompt"">
                        <b>请用数字键1-3回答</b>
                        </div>","","","","","","","","","","","","","","","","","","",""
"829","null","sub_response","html-keyboard-response","48","225055","0.0-1.0-4.1-3.1-2.9","10:07:47","5","","","","","","","<div style='text-align: center;'>
                            <span style=""color: green; font-size: 40px""><b>正确！+1 pts</b></span></div>
                            ","","learn","1","1","1","learn","0","0","[0, 1, 2]","3","1","setsize","99","prac","0","1","0","1",""
"null","null","fixation","html-keyboard-response","49","225556","0.0-1.0-4.1-3.1-0.10","10:07:47","5","","","","","","","fixation","","","","","","","","","","","","","","","","","","",""
"1238","3","pic_response","html-keyboard-response","50","226794","0.0-1.0-4.1-3.1-1.10","10:07:47","5","","","","","","","<div>
            <img class='stim' src=""pictures/prac/0.jpg""></div><div class=""button_prompt"">
                        <b>请用数字键1-3回答</b>
                        </div>","","","","","","","","","","","","","","","","","","",""
"1238","null","sub_response","html-keyboard-response","51","227795","0.0-1.0-4.1-3.1-2.10","10:07:47","5","","","","","","","<div style='text-align: center;'>
                            <span style=""color: red; font-size: 40px""><b>错误！+0 pts</b></span></div>
                            ","","learn","0","0","0","learn","0","0","[0, 1, 2]","4","1","setsize","99","prac","0","0","2","0",""
"null","null","fixation","html-keyboard-response","52","228296","0.0-1.0-4.1-3.1-0.11","10:07:47","5","","","","","","","fixation","","","","","","","","","","","","","","","","","","",""
"1157","3","pic_response","html-keyboard-response","53","229454","0.0-1.0-4.1-3.1-1.11","10:07:47","5","","","","","","","<div>
            <img class='stim' src=""pictures/prac/2.jpg""></div><div class=""button_prompt"">
                        <b>请用数字键1-3回答</b>
                        </div>","","","","","","","","","","","","","","","","","","",""
"1157","null","sub_response","html-keyboard-response","54","230455","0.0-1.0-4.1-3.1-2.11","10:07:47","5","","","","","","","<div style='text-align: center;'>
                            <span style=""color: green; font-size: 40px""><b>正确！+1 pts</b></span></div>
                            ","","learn","2","2","2","learn","2","2","[0, 1, 2]","5","1","setsize","99","prac","0","1","2","1",""
"","","","preload","55","230458","0.0-1.0-4.2-0.2","10:07:47","5","true","false","[]","[]","[]","","","","","","","","","","","","","","","","","","","","",""
"3534"," ","","html-keyboard-response","56","233993","0.0-1.0-4.2-1.2","10:07:47","5","","","","","","","<div style='font-size: 32px; text-align: center;'
                    <p>请学习图片和数字之间的对应关系</p>
                    <p>我们将<span style='color: blue'><b> 告诉 </b></span>您选择的对错。请根据反馈学习。</p>
                    <p>请按""空格""继续实验。</p></div>","","","","","","","","","","","","","","","","","","",""
"4019"," ","inst","html-keyboard-response","57","238019","0.0-1.0-4.2-2.2","10:07:47","5","","","","","","","<img class='instruct_stim' src=""instruction/prac3.PNG""></div>","","","","","","","","","","","","","","","","","","",""
"null","null","fixation","html-keyboard-response","58","238520","0.0-1.0-4.2-3.2-0.12","10:07:47","5","","","","","","","fixation","","","","","","","","","","","","","","","","","","",""
"463","1","pic_response","html-keyboard-response","59","238985","0.0-1.0-4.2-3.2-1.12","10:07:47","5","","","","","","","<div>
            <img class='stim' src=""pictures/prac/1.jpg""></div><div class=""button_prompt"">
                        <b>请用数字键1-3回答</b>
                        </div>","","","","","","","","","","","","","","","","","","",""
"463","null","sub_response","html-keyboard-response","60","239986","0.0-1.0-4.2-3.2-2.12","10:07:47","5","","","","","","","<div style='text-align: center;'>
                            <span style=""color: green; font-size: 40px""><b>正确！+1 pts</b></span></div>
                            ","","learn","1","1","1","learn","0","0","[0, 1, 2]","0","0","setsize","99","prac","0","2","0","1",""
"null","null","fixation","html-keyboard-response","61","240487","0.0-1.0-4.2-3.2-0.13","10:07:47","5","","","","","","","fixation","","","","","","","","","","","","","","","","","","",""
"1908","3","pic_response","html-keyboard-response","62","242396","0.0-1.0-4.2-3.2-1.13","10:07:47","5","","","","","","","<div>
            <img class='stim' src=""pictures/prac/0.jpg""></div><div class=""button_prompt"">
                        <b>请用数字键1-3回答</b>
                        </div>","","","","","","","","","","","","","","","","","","",""
"1908","null","sub_response","html-keyboard-response","63","243397","0.0-1.0-4.2-3.2-2.13","10:07:47","5","","","","","","","<div style='text-align: center;'>
                            <span style=""color: red; font-size: 40px""><b>错误！+0 pts</b></span></div>
                            ","","learn","0","0","0","learn","0","0","[0, 1, 2]","1","0","setsize","99","prac","0","0","2","0",""
"null","null","fixation","html-keyboard-response","64","243898","0.0-1.0-4.2-3.2-0.14","10:07:47","5","","","","","","","fixation","","","","","","","","","","","","","","","","","","",""
"965","3","pic_response","html-keyboard-response","65","244864","0.0-1.0-4.2-3.2-1.14","10:07:47","5","","","","","","","<div>
            <img class='stim' src=""pictures/prac/2.jpg""></div><div class=""button_prompt"">
                        <b>请用数字键1-3回答</b>
                        </div>","","","","","","","","","","","","","","","","","","",""
"965","null","sub_response","html-keyboard-response","66","245865","0.0-1.0-4.2-3.2-2.14","10:07:47","5","","","","","","","<div style='text-align: center;'>
                            <span style=""color: green; font-size: 40px""><b>正确！+1 pts</b></span></div>
                            ","","learn","2","2","2","learn","2","2","[0, 1, 2]","2","0","setsize","99","prac","0","1","2","1",""
"null","null","fixation","html-keyboard-response","67","246366","0.0-1.0-4.2-3.2-0.15","10:07:47","5","","","","","","","fixation","","","","","","","","","","","","","","","","","","",""
"559","1","pic_response","html-keyboard-response","68","246927","0.0-1.0-4.2-3.2-1.15","10:07:47","5","","","","","","","<div>
            <img class='stim' src=""pictures/prac/1.jpg""></div><div class=""button_prompt"">
                        <b>请用数字键1-3回答</b>
                        </div>","","","","","","","","","","","","","","","","","","",""
"559","null","sub_response","html-keyboard-response","69","247928","0.0-1.0-4.2-3.2-2.15","10:07:47","5","","","","","","","<div style='text-align: center;'>
                            <span style=""color: green; font-size: 40px""><b>正确！+1 pts</b></span></div>
                            ","","learn","1","1","1","learn","0","0","[0, 1, 2]","3","1","setsize","99","prac","0","2","0","1",""
"null","null","fixation","html-keyboard-response","70","248429","0.0-1.0-4.2-3.2-0.16","10:07:47","5","","","","","","","fixation","","","","","","","","","","","","","","","","","","",""
"1127","2","pic_response","html-keyboard-response","71","249557","0.0-1.0-4.2-3.2-1.16","10:07:47","5","","","","","","","<div>
            <img class='stim' src=""pictures/prac/0.jpg""></div><div class=""button_prompt"">
                        <b>请用数字键1-3回答</b>
                        </div>","","","","","","","","","","","","","","","","","","",""
"1127","null","sub_response","html-keyboard-response","72","250558","0.0-1.0-4.2-3.2-2.16","10:07:47","5","","","","","","","<div style='text-align: center;'>
                            <span style=""color: red; font-size: 40px""><b>错误！+0 pts</b></span></div>
                            ","","learn","0","0","0","learn","0","0","[0, 1, 2]","4","1","setsize","99","prac","0","0","1","0",""
"null","null","fixation","html-keyboard-response","73","251059","0.0-1.0-4.2-3.2-0.17","10:07:47","5","","","","","","","fixation","","","","","","","","","","","","","","","","","","",""
"952","2","pic_response","html-keyboard-response","74","252012","0.0-1.0-4.2-3.2-1.17","10:07:47","5","","","","","","","<div>
            <img class='stim' src=""pictures/prac/2.jpg""></div><div class=""button_prompt"">
                        <b>请用数字键1-3回答</b>
                        </div>","","","","","","","","","","","","","","","","","","",""
"952","null","sub_response","html-keyboard-response","75","253013","0.0-1.0-4.2-3.2-2.17","10:07:47","5","","","","","","","<div style='text-align: center;'>
                            <span style=""color: red; font-size: 40px""><b>错误！+0 pts</b></span></div>
                            ","","learn","2","2","2","learn","2","2","[0, 1, 2]","5","1","setsize","99","prac","0","0","1","0",""
"","","","preload","76","253016","0.0-1.0-4.3-0.3","10:07:47","5","true","false","[]","[]","[]","","","","","","","","","","","","","","","","","","","","",""
"1119"," ","","html-keyboard-response","77","254137","0.0-1.0-4.3-1.3","10:07:47","5","","","","","","","<div style='font-size: 32px; text-align: center;'
                    <p>请学习图片和数字之间的对应关系</p>
                    <p>我们将<span style='color: blue'><b> 告诉 </b></span>您选择的对错。请根据反馈学习。</p>
                    <p>请按""空格""继续实验。</p></div>","","","","","","","","","","","","","","","","","","",""
"10141"," ","inst","html-keyboard-response","78","264278","0.0-1.0-4.3-2.3","10:07:47","5","","","","","","","<img class='instruct_stim' src=""instruction/prac3.PNG""></div>","","","","","","","","","","","","","","","","","","",""
"null","null","fixation","html-keyboard-response","79","264779","0.0-1.0-4.3-3.3-0.18","10:07:47","5","","","","","","","fixation","","","","","","","","","","","","","","","","","","",""
"690","1","pic_response","html-keyboard-response","80","265470","0.0-1.0-4.3-3.3-1.18","10:07:47","5","","","","","","","<div>
            <img class='stim' src=""pictures/prac/1.jpg""></div><div class=""button_prompt"">
                        <b>请用数字键1-3回答</b>
                        </div>","","","","","","","","","","","","","","","","","","",""
"690","null","sub_response","html-keyboard-response","81","266470","0.0-1.0-4.3-3.3-2.18","10:07:47","5","","","","","","","<div style='text-align: center;'>
                            <span style=""color: green; font-size: 40px""><b>正确！+1 pts</b></span></div>
                            ","","learn","1","1","1","learn","0","0","[0, 1, 2]","0","0","setsize","99","prac","0","1","0","1",""
"null","null","fixation","html-keyboard-response","82","266971","0.0-1.0-4.3-3.3-0.19","10:07:47","5","","","","","","","fixation","","","","","","","","","","","","","","","","","","",""
"1770","2","pic_response","html-keyboard-response","83","268742","0.0-1.0-4.3-3.3-1.19","10:07:47","5","","","","","","","<div>
            <img class='stim' src=""pictures/prac/0.jpg""></div><div class=""button_prompt"">
                        <b>请用数字键1-3回答</b>
                        </div>","","","","","","","","","","","","","","","","","","",""
"1770","null","sub_response","html-keyboard-response","84","269743","0.0-1.0-4.3-3.3-2.19","10:07:47","5","","","","","","","<div style='text-align: center;'>
                            <span style=""color: red; font-size: 40px""><b>错误！+0 pts</b></span></div>
                            ","","learn","0","0","0","learn","0","0","[0, 1, 2]","1","0","setsize","99","prac","0","0","1","0",""
"null","null","fixation","html-keyboard-response","85","270244","0.0-1.0-4.3-3.3-0.20","10:07:47","5","","","","","","","fixation","","","","","","","","","","","","","","","","","","",""
"550","2","pic_response","html-keyboard-response","86","270794","0.0-1.0-4.3-3.3-1.20","10:07:47","5","","","","","","","<div>
            <img class='stim' src=""pictures/prac/2.jpg""></div><div class=""button_prompt"">
                        <b>请用数字键1-3回答</b>
                        </div>","","","","","","","","","","","","","","","","","","",""
"550","null","sub_response","html-keyboard-response","87","271795","0.0-1.0-4.3-3.3-2.20","10:07:47","5","","","","","","","<div style='text-align: center;'>
                            <span style=""color: red; font-size: 40px""><b>错误！+0 pts</b></span></div>
                            ","","learn","2","2","2","learn","2","2","[0, 1, 2]","2","0","setsize","99","prac","0","0","1","0",""
"null","null","fixation","html-keyboard-response","88","272296","0.0-1.0-4.3-3.3-0.21","10:07:47","5","","","","","","","fixation","","","","","","","","","","","","","","","","","","",""
"2122","1","pic_response","html-keyboard-response","89","274419","0.0-1.0-4.3-3.3-1.21","10:07:47","5","","","","","","","<div>
            <img class='stim' src=""pictures/prac/1.jpg""></div><div class=""button_prompt"">
                        <b>请用数字键1-3回答</b>
                        </div>","","","","","","","","","","","","","","","","","","",""
"2122","null","sub_response","html-keyboard-response","90","275421","0.0-1.0-4.3-3.3-2.21","10:07:47","5","","","","","","","<div style='text-align: center;'>
                            <span style=""color: green; font-size: 40px""><b>正确！+1 pts</b></span></div>
                            ","","learn","1","1","1","learn","0","0","[0, 1, 2]","3","1","setsize","99","prac","0","1","0","1",""
"null","null","fixation","html-keyboard-response","91","275922","0.0-1.0-4.3-3.3-0.22","10:07:47","5","","","","","","","fixation","","","","","","","","","","","","","","","","","","",""
"589","3","pic_response","html-keyboard-response","92","276511","0.0-1.0-4.3-3.3-1.22","10:07:47","5","","","","","","","<div>
            <img class='stim' src=""pictures/prac/0.jpg""></div><div class=""button_prompt"">
                        <b>请用数字键1-3回答</b>
                        </div>","","","","","","","","","","","","","","","","","","",""
"589","null","sub_response","html-keyboard-response","93","277512","0.0-1.0-4.3-3.3-2.22","10:07:47","5","","","","","","","<div style='text-align: center;'>
                            <span style=""color: red; font-size: 40px""><b>错误！+0 pts</b></span></div>
                            ","","learn","0","0","0","learn","0","0","[0, 1, 2]","4","1","setsize","99","prac","0","0","2","0",""
"null","null","fixation","html-keyboard-response","94","278013","0.0-1.0-4.3-3.3-0.23","10:07:47","5","","","","","","","fixation","","","","","","","","","","","","","","","","","","",""
"1126","3","pic_response","html-keyboard-response","95","279140","0.0-1.0-4.3-3.3-1.23","10:07:47","5","","","","","","","<div>
            <img class='stim' src=""pictures/prac/2.jpg""></div><div class=""button_prompt"">
                        <b>请用数字键1-3回答</b>
                        </div>","","","","","","","","","","","","","","","","","","",""
"1126","null","sub_response","html-keyboard-response","96","280141","0.0-1.0-4.3-3.3-2.23","10:07:47","5","","","","","","","<div style='text-align: center;'>
                            <span style=""color: green; font-size: 40px""><b>正确！+1 pts</b></span></div>
                            ","","learn","2","2","2","learn","2","2","[0, 1, 2]","5","1","setsize","99","prac","0","1","2","1",""
"","","","preload","97","280145","0.0-1.0-4.4-0.4","10:07:47","5","true","false","[]","[]","[]","","","","","","","","","","","","","","","","","","","","",""
"1089"," ","","html-keyboard-response","98","281235","0.0-1.0-4.4-1.4","10:07:47","5","","","","","","","<div style='font-size: 32px; text-align: center;'
                    <p>请学习图片和数字之间的对应关系</p>
                    <p>我们将<span style='color: blue'><b> 告诉 </b></span>您选择的对错。请根据反馈学习。</p>
                    <p>请按""空格""继续实验。</p></div>","","","","","","","","","","","","","","","","","","",""
"1097"," ","inst","html-keyboard-response","99","282333","0.0-1.0-4.4-2.4","10:07:47","5","","","","","","","<img class='instruct_stim' src=""instruction/prac3.PNG""></div>","","","","","","","","","","","","","","","","","","",""
"null","null","fixation","html-keyboard-response","100","282834","0.0-1.0-4.4-3.4-0.24","10:07:47","5","","","","","","","fixation","","","","","","","","","","","","","","","","","","",""
"702","1","pic_response","html-keyboard-response","101","283537","0.0-1.0-4.4-3.4-1.24","10:07:47","5","","","","","","","<div>
            <img class='stim' src=""pictures/prac/1.jpg""></div><div class=""button_prompt"">
                        <b>请用数字键1-3回答</b>
                        </div>","","","","","","","","","","","","","","","","","","",""
"702","null","sub_response","html-keyboard-response","102","284538","0.0-1.0-4.4-3.4-2.24","10:07:47","5","","","","","","","<div style='text-align: center;'>
                            <span style=""color: green; font-size: 40px""><b>正确！+1 pts</b></span></div>
                            ","","learn","1","1","1","learn","0","0","[0, 1, 2]","0","0","setsize","99","prac","0","2","0","1",""
"null","null","fixation","html-keyboard-response","103","285039","0.0-1.0-4.4-3.4-0.25","10:07:47","5","","","","","","","fixation","","","","","","","","","","","","","","","","","","",""
"580","1","pic_response","html-keyboard-response","104","285620","0.0-1.0-4.4-3.4-1.25","10:07:47","5","","","","","","","<div>
            <img class='stim' src=""pictures/prac/0.jpg""></div><div class=""button_prompt"">
                        <b>请用数字键1-3回答</b>
                        </div>","","","","","","","","","","","","","","","","","","",""
"580","null","sub_response","html-keyboard-response","105","286621","0.0-1.0-4.4-3.4-2.25","10:07:47","5","","","","","","","<div style='text-align: center;'>
                            <span style=""color: green; font-size: 40px""><b>正确！+1 pts</b></span></div>
                            ","","learn","0","0","0","learn","0","0","[0, 1, 2]","1","0","setsize","99","prac","0","3","0","1",""
"null","null","fixation","html-keyboard-response","106","287122","0.0-1.0-4.4-3.4-0.26","10:07:47","5","","","","","","","fixation","","","","","","","","","","","","","","","","","","",""
"786","3","pic_response","html-keyboard-response","107","287909","0.0-1.0-4.4-3.4-1.26","10:07:47","5","","","","","","","<div>
            <img class='stim' src=""pictures/prac/2.jpg""></div><div class=""button_prompt"">
                        <b>请用数字键1-3回答</b>
                        </div>","","","","","","","","","","","","","","","","","","",""
"786","null","sub_response","html-keyboard-response","108","288911","0.0-1.0-4.4-3.4-2.26","10:07:47","5","","","","","","","<div style='text-align: center;'>
                            <span style=""color: green; font-size: 40px""><b>正确！+1 pts</b></span></div>
                            ","","learn","2","2","2","learn","2","2","[0, 1, 2]","2","0","setsize","99","prac","0","4","2","1",""
"null","null","fixation","html-keyboard-response","109","289412","0.0-1.0-4.4-3.4-0.27","10:07:47","5","","","","","","","fixation","","","","","","","","","","","","","","","","","","",""
"1700","1","pic_response","html-keyboard-response","110","291113","0.0-1.0-4.4-3.4-1.27","10:07:47","5","","","","","","","<div>
            <img class='stim' src=""pictures/prac/1.jpg""></div><div class=""button_prompt"">
                        <b>请用数字键1-3回答</b>
                        </div>","","","","","","","","","","","","","","","","","","",""
"1700","null","sub_response","html-keyboard-response","111","292113","0.0-1.0-4.4-3.4-2.27","10:07:47","5","","","","","","","<div style='text-align: center;'>
                            <span style=""color: green; font-size: 40px""><b>正确！+1 pts</b></span></div>
                            ","","learn","1","1","1","learn","0","0","[0, 1, 2]","3","1","setsize","99","prac","0","5","0","1",""
"null","null","fixation","html-keyboard-response","112","292614","0.0-1.0-4.4-3.4-0.28","10:07:47","5","","","","","","","fixation","","","","","","","","","","","","","","","","","","",""
"2000","1","pic_response","html-keyboard-response","113","294614","0.0-1.0-4.4-3.4-1.28","10:07:47","5","","","","","","","<div>
            <img class='stim' src=""pictures/prac/0.jpg""></div><div class=""button_prompt"">
                        <b>请用数字键1-3回答</b>
                        </div>","","","","","","","","","","","","","","","","","","",""
"2000","null","sub_response","html-keyboard-response","114","295616","0.0-1.0-4.4-3.4-2.28","10:07:47","5","","","","","","","<div style='text-align: center;'>
                            <span style=""color: green; font-size: 40px""><b>正确！+1 pts</b></span></div>
                            ","","learn","0","0","0","learn","0","0","[0, 1, 2]","4","1","setsize","99","prac","0","6","0","1",""
"null","null","fixation","html-keyboard-response","115","296117","0.0-1.0-4.4-3.4-0.29","10:07:47","5","","","","","","","fixation","","","","","","","","","","","","","","","","","","",""
"410","3","pic_response","html-keyboard-response","116","296528","0.0-1.0-4.4-3.4-1.29","10:07:47","5","","","","","","","<div>
            <img class='stim' src=""pictures/prac/2.jpg""></div><div class=""button_prompt"">
                        <b>请用数字键1-3回答</b>
                        </div>","","","","","","","","","","","","","","","","","","",""
"410","null","sub_response","html-keyboard-response","117","297529","0.0-1.0-4.4-3.4-2.29","10:07:47","5","","","","","","","<div style='text-align: center;'>
                            <span style=""color: green; font-size: 40px""><b>正确！+1 pts</b></span></div>
                            ","","learn","2","2","2","learn","2","2","[0, 1, 2]","5","1","setsize","99","prac","0","7","2","1",""
"2813"," ","","html-keyboard-response","118","300350","0.0-1.0-5.0","10:07:47","5","","","","","","","<div style=""font-size: 25px""><p>距下一个实验开始还有</p><div style=""font-size: 50px; color: blue""><p><span id=""clock"">1:00</span></div></p><p>按""空格""跳过休息</p></div>","","","","","","","","","","","","","","","","","","",""
"2623"," ","","html-keyboard-response","119","302974","0.0-1.0-6.0","10:07:47","5","","","","","","","<div style='font-size: 32px; text-align: center;'
                    <p>请按""空格""继续正式实验。</p></div>","","","","","","","","","","","","","","","","","","",""
"","","","preload","120","303155","0.0-1.0-7.0-0.0","10:07:47","5","true","false","[]","[]","[]","","","","","","","","","","","","","","","","","","","","",""
"1361"," ","","html-keyboard-response","121","304517","0.0-1.0-7.0-1.0","10:07:47","5","","","","","","","<div style='font-size: 32px; text-align: center;'
                    <p>请学习图片和数字之间的对应关系</p>
                    <p>我们将<span style='color: blue'><b> 告诉 </b></span>您选择的对错。请根据反馈学习。</p>
                    <p>请按""空格""继续实验。</p></div>","","","","","","","","","","","","","","","","","","",""
"4707"," ","inst","html-keyboard-response","122","309224","0.0-1.0-7.0-2.0","10:07:47","5","","","","","","","<img class='instruct_stim' src=""instruction/animals3.PNG""></div>","","","","","","","","","","","","","","","","","","",""
"null","null","fixation","html-keyboard-response","123","309725","0.0-1.0-7.0-3.0-0.0","10:07:47","5","","","","","","","fixation","","","","","","","","","","","","","","","","","","",""
"1251","1","pic_response","html-keyboard-response","124","310976","0.0-1.0-7.0-3.0-1.0","10:07:47","5","","","","","","","<div>
            <img class='stim' src=""pictures/animals/2.jpg""></div><div class=""button_prompt"">
                    <b>请用数字键0-9回答</b>
                    </div>","","","","","","","","","","","","","","","","","","",""
"1251","null","sub_response","html-keyboard-response","125","311978","0.0-1.0-7.0-3.0-2.0","10:07:47","5","","","","","","","<div style='text-align: center;'>
                            <span style=""color: red; font-size: 40px""><b>错误！+0 pts</b></span></div>
                            ","","learn","2","2","2","learn","9","9","[0, 1, 2, 3, 4, 5, 6, 7, 8, 9]","0","0","setsize","3S10A","animals","1","0","0","0",""
"null","null","fixation","html-keyboard-response","126","312480","0.0-1.0-7.0-3.0-0.1","10:07:47","5","","","","","","","fixation","","","","","","","","","","","","","","","","","","",""
"957","1","pic_response","html-keyboard-response","127","313438","0.0-1.0-7.0-3.0-1.1","10:07:47","5","","","","","","","<div>
            <img class='stim' src=""pictures/animals/1.jpg""></div><div class=""button_prompt"">
                    <b>请用数字键0-9回答</b>
                    </div>","","","","","","","","","","","","","","","","","","",""
"957","null","sub_response","html-keyboard-response","128","314440","0.0-1.0-7.0-3.0-2.1","10:07:47","5","","","","","","","<div style='text-align: center;'>
                            <span style=""color: red; font-size: 40px""><b>错误！+0 pts</b></span></div>
                            ","","learn","1","1","1","learn","6","6","[0, 1, 2, 3, 4, 5, 6, 7, 8, 9]","1","0","setsize","3S10A","animals","1","0","0","0",""
"null","null","fixation","html-keyboard-response","129","314940","0.0-1.0-7.0-3.0-0.2","10:07:47","5","","","","","","","fixation","","","","","","","","","","","","","","","","","","",""
"1284","1","pic_response","html-keyboard-response","130","316225","0.0-1.0-7.0-3.0-1.2","10:07:47","5","","","","","","","<div>
            <img class='stim' src=""pictures/animals/0.jpg""></div><div class=""button_prompt"">
                    <b>请用数字键0-9回答</b>
                    </div>","","","","","","","","","","","","","","","","","","",""
"1284","null","sub_response","html-keyboard-response","131","317226","0.0-1.0-7.0-3.0-2.2","10:07:47","5","","","","","","","<div style='text-align: center;'>
                            <span style=""color: red; font-size: 40px""><b>错误！+0 pts</b></span></div>
                            ","","learn","0","0","0","learn","2","2","[0, 1, 2, 3, 4, 5, 6, 7, 8, 9]","2","0","setsize","3S10A","animals","1","0","0","0",""
"null","null","fixation","html-keyboard-response","132","317727","0.0-1.0-7.0-3.0-0.3","10:07:47","5","","","","","","","fixation","","","","","","","","","","","","","","","","","","",""
"934","2","pic_response","html-keyboard-response","133","318663","0.0-1.0-7.0-3.0-1.3","10:07:47","5","","","","","","","<div>
            <img class='stim' src=""pictures/animals/2.jpg""></div><div class=""button_prompt"">
                    <b>请用数字键0-9回答</b>
                    </div>","","","","","","","","","","","","","","","","","","",""
"934","null","sub_response","html-keyboard-response","134","319664","0.0-1.0-7.0-3.0-2.3","10:07:47","5","","","","","","","<div style='text-align: center;'>
                            <span style=""color: red; font-size: 40px""><b>错误！+0 pts</b></span></div>
                            ","","learn","2","2","2","learn","9","9","[0, 1, 2, 3, 4, 5, 6, 7, 8, 9]","3","1","setsize","3S10A","animals","1","0","1","0",""
"null","null","fixation","html-keyboard-response","135","320165","0.0-1.0-7.0-3.0-0.4","10:07:47","5","","","","","","","fixation","","","","","","","","","","","","","","","","","","",""
"1171","2","pic_response","html-keyboard-response","136","321338","0.0-1.0-7.0-3.0-1.4","10:07:47","5","","","","","","","<div>
            <img class='stim' src=""pictures/animals/1.jpg""></div><div class=""button_prompt"">
                    <b>请用数字键0-9回答</b>
                    </div>","","","","","","","","","","","","","","","","","","",""
"1171","null","sub_response","html-keyboard-response","137","322339","0.0-1.0-7.0-3.0-2.4","10:07:47","5","","","","","","","<div style='text-align: center;'>
                            <span style=""color: red; font-size: 40px""><b>错误！+0 pts</b></span></div>
                            ","","learn","1","1","1","learn","6","6","[0, 1, 2, 3, 4, 5, 6, 7, 8, 9]","4","1","setsize","3S10A","animals","1","0","1","0",""
"null","null","fixation","html-keyboard-response","138","322840","0.0-1.0-7.0-3.0-0.5","10:07:47","5","","","","","","","fixation","","","","","","","","","","","","","","","","","","",""
"1363","2","pic_response","html-keyboard-response","139","324204","0.0-1.0-7.0-3.0-1.5","10:07:47","5","","","","","","","<div>
            <img class='stim' src=""pictures/animals/0.jpg""></div><div class=""button_prompt"">
                    <b>请用数字键0-9回答</b>
                    </div>","","","","","","","","","","","","","","","","","","",""
"1363","null","sub_response","html-keyboard-response","140","325206","0.0-1.0-7.0-3.0-2.5","10:07:47","5","","","","","","","<div style='text-align: center;'>
                            <span style=""color: red; font-size: 40px""><b>错误！+0 pts</b></span></div>
                            ","","learn","0","0","0","learn","2","2","[0, 1, 2, 3, 4, 5, 6, 7, 8, 9]","5","1","setsize","3S10A","animals","1","0","1","0",""
"null","null","fixation","html-keyboard-response","141","325707","0.0-1.0-7.0-3.0-0.6","10:07:47","5","","","","","","","fixation","","","","","","","","","","","","","","","","","","",""
"743","3","pic_response","html-keyboard-response","142","326450","0.0-1.0-7.0-3.0-1.6","10:07:47","5","","","","","","","<div>
            <img class='stim' src=""pictures/animals/2.jpg""></div><div class=""button_prompt"">
                    <b>请用数字键0-9回答</b>
                    </div>","","","","","","","","","","","","","","","","","","",""
"743","null","sub_response","html-keyboard-response","143","327451","0.0-1.0-7.0-3.0-2.6","10:07:47","5","","","","","","","<div style='text-align: center;'>
                            <span style=""color: red; font-size: 40px""><b>错误！+0 pts</b></span></div>
                            ","","learn","2","2","2","learn","9","9","[0, 1, 2, 3, 4, 5, 6, 7, 8, 9]","6","2","setsize","3S10A","animals","1","0","2","0",""
"null","null","fixation","html-keyboard-response","144","327952","0.0-1.0-7.0-3.0-0.7","10:07:47","5","","","","","","","fixation","","","","","","","","","","","","","","","","","","",""
"null","null","pic_response","html-keyboard-response","145","330954","0.0-1.0-7.0-3.0-1.7","10:07:47","5","","","","","","","<div>
            <img class='stim' src=""pictures/animals/1.jpg""></div><div class=""button_prompt"">
                    <b>请用数字键0-9回答</b>
                    </div>","","","","","","","","","","","","","","","","","","",""
"null","null","sub_response","html-keyboard-response","146","331955","0.0-1.0-7.0-3.0-2.7","10:07:47","5","","","","","","","<div style='text-align: center;'>
                            <span style=""color: red; font-size: 40px""><b>错误！+0 pts</b></span></div>
                            ","","learn","1","1","1","learn","6","6","[0, 1, 2, 3, 4, 5, 6, 7, 8, 9]","7","2","setsize","3S10A","animals","1","0","999","0",""
"null","null","fixation","html-keyboard-response","147","332456","0.0-1.0-7.0-3.0-0.8","10:07:47","5","","","","","","","fixation","","","","","","","","","","","","","","","","","","",""
"1338","6","pic_response","html-keyboard-response","148","333796","0.0-1.0-7.0-3.0-1.8","10:07:47","5","","","","","","","<div>
            <img class='stim' src=""pictures/animals/0.jpg""></div><div class=""button_prompt"">
                    <b>请用数字键0-9回答</b>
                    </div>","","","","","","","","","","","","","","","","","","",""
"1338","null","sub_response","html-keyboard-response","149","334797","0.0-1.0-7.0-3.0-2.8","10:07:47","5","","","","","","","<div style='text-align: center;'>
                            <span style=""color: red; font-size: 40px""><b>错误！+0 pts</b></span></div>
                            ","","learn","0","0","0","learn","2","2","[0, 1, 2, 3, 4, 5, 6, 7, 8, 9]","8","2","setsize","3S10A","animals","1","0","5","0",""
"null","null","fixation","html-keyboard-response","150","335298","0.0-1.0-7.0-3.0-0.9","10:07:47","5","","","","","","","fixation","","","","","","","","","","","","","","","","","","",""
"850","4","pic_response","html-keyboard-response","151","336149","0.0-1.0-7.0-3.0-1.9","10:07:47","5","","","","","","","<div>
            <img class='stim' src=""pictures/animals/2.jpg""></div><div class=""button_prompt"">
                    <b>请用数字键0-9回答</b>
                    </div>","","","","","","","","","","","","","","","","","","",""
"850","null","sub_response","html-keyboard-response","152","337150","0.0-1.0-7.0-3.0-2.9","10:07:47","5","","","","","","","<div style='text-align: center;'>
                            <span style=""color: red; font-size: 40px""><b>错误！+0 pts</b></span></div>
                            ","","learn","2","2","2","learn","9","9","[0, 1, 2, 3, 4, 5, 6, 7, 8, 9]","9","3","setsize","3S10A","animals","1","0","3","0",""
"null","null","fixation","html-keyboard-response","153","337650","0.0-1.0-7.0-3.0-0.10","10:07:47","5","","","","","","","fixation","","","","","","","","","","","","","","","","","","",""
"1493","2","pic_response","html-keyboard-response","154","339144","0.0-1.0-7.0-3.0-1.10","10:07:47","5","","","","","","","<div>
            <img class='stim' src=""pictures/animals/1.jpg""></div><div class=""button_prompt"">
                    <b>请用数字键0-9回答</b>
                    </div>","","","","","","","","","","","","","","","","","","",""
"1493","null","sub_response","html-keyboard-response","155","340145","0.0-1.0-7.0-3.0-2.10","10:07:47","5","","","","","","","<div style='text-align: center;'>
                            <span style=""color: red; font-size: 40px""><b>错误！+0 pts</b></span></div>
                            ","","learn","1","1","1","learn","6","6","[0, 1, 2, 3, 4, 5, 6, 7, 8, 9]","10","3","setsize","3S10A","animals","1","0","1","0",""
"null","null","fixation","html-keyboard-response","156","340647","0.0-1.0-7.0-3.0-0.11","10:07:47","5","","","","","","","fixation","","","","","","","","","","","","","","","","","","",""
"615","3","pic_response","html-keyboard-response","157","341264","0.0-1.0-7.0-3.0-1.11","10:07:47","5","","","","","","","<div>
            <img class='stim' src=""pictures/animals/0.jpg""></div><div class=""button_prompt"">
                    <b>请用数字键0-9回答</b>
                    </div>","","","","","","","","","","","","","","","","","","",""
"615","null","sub_response","html-keyboard-response","158","342265","0.0-1.0-7.0-3.0-2.11","10:07:47","5","","","","","","","<div style='text-align: center;'>
                            <span style=""color: green; font-size: 40px""><b>正确！+1 pts</b></span></div>
                            ","","learn","0","0","0","learn","2","2","[0, 1, 2, 3, 4, 5, 6, 7, 8, 9]","11","3","setsize","3S10A","animals","1","1","2","1",""
"null","null","fixation","html-keyboard-response","159","342767","0.0-1.0-7.0-3.0-0.12","10:07:47","5","","","","","","","fixation","","","","","","","","","","","","","","","","","","",""
"1247","3","pic_response","html-keyboard-response","160","344015","0.0-1.0-7.0-3.0-1.12","10:07:47","5","","","","","","","<div>
            <img class='stim' src=""pictures/animals/0.jpg""></div><div class=""button_prompt"">
                    <b>请用数字键0-9回答</b>
                    </div>","","","","","","","","","","","","","","","","","","",""
"1247","null","sub_response","html-keyboard-response","161","345016","0.0-1.0-7.0-3.0-2.12","10:07:47","5","","","","","","","<div style='text-align: center;'>
                            <span style=""color: green; font-size: 40px""><b>正确！+1 pts</b></span></div>
                            ","","learn","0","0","0","learn","2","2","[0, 1, 2, 3, 4, 5, 6, 7, 8, 9]","12","4","setsize","3S10A","animals","1","2","2","1",""
"null","null","fixation","html-keyboard-response","162","345517","0.0-1.0-7.0-3.0-0.13","10:07:47","5","","","","","","","fixation","","","","","","","","","","","","","","","","","","",""
"2721","5","pic_response","html-keyboard-response","163","348239","0.0-1.0-7.0-3.0-1.13","10:07:47","5","","","","","","","<div>
            <img class='stim' src=""pictures/animals/1.jpg""></div><div class=""button_prompt"">
                    <b>请用数字键0-9回答</b>
                    </div>","","","","","","","","","","","","","","","","","","",""
"2721","null","sub_response","html-keyboard-response","164","349241","0.0-1.0-7.0-3.0-2.13","10:07:47","5","","","","","","","<div style='text-align: center;'>
                            <span style=""color: red; font-size: 40px""><b>错误！+0 pts</b></span></div>
                            ","","learn","1","1","1","learn","6","6","[0, 1, 2, 3, 4, 5, 6, 7, 8, 9]","13","4","setsize","3S10A","animals","1","0","4","0",""
"null","null","fixation","html-keyboard-response","165","349742","0.0-1.0-7.0-3.0-0.14","10:07:47","5","","","","","","","fixation","","","","","","","","","","","","","","","","","","",""
"643","6","pic_response","html-keyboard-response","166","350386","0.0-1.0-7.0-3.0-1.14","10:07:47","5","","","","","","","<div>
            <img class='stim' src=""pictures/animals/2.jpg""></div><div class=""button_prompt"">
                    <b>请用数字键0-9回答</b>
                    </div>","","","","","","","","","","","","","","","","","","",""
"643","null","sub_response","html-keyboard-response","167","351387","0.0-1.0-7.0-3.0-2.14","10:07:47","5","","","","","","","<div style='text-align: center;'>
                            <span style=""color: red; font-size: 40px""><b>错误！+0 pts</b></span></div>
                            ","","learn","2","2","2","learn","9","9","[0, 1, 2, 3, 4, 5, 6, 7, 8, 9]","14","4","setsize","3S10A","animals","1","0","5","0",""
"null","null","fixation","html-keyboard-response","168","351888","0.0-1.0-7.0-3.0-0.15","10:07:47","5","","","","","","","fixation","","","","","","","","","","","","","","","","","","",""
"1087","3","pic_response","html-keyboard-response","169","352976","0.0-1.0-7.0-3.0-1.15","10:07:47","5","","","","","","","<div>
            <img class='stim' src=""pictures/animals/0.jpg""></div><div class=""button_prompt"">
                    <b>请用数字键0-9回答</b>
                    </div>","","","","","","","","","","","","","","","","","","",""
"1087","null","sub_response","html-keyboard-response","170","353977","0.0-1.0-7.0-3.0-2.15","10:07:47","5","","","","","","","<div style='text-align: center;'>
                            <span style=""color: green; font-size: 40px""><b>正确！+1 pts</b></span></div>
                            ","","learn","0","0","0","learn","2","2","[0, 1, 2, 3, 4, 5, 6, 7, 8, 9]","15","5","setsize","3S10A","animals","1","1","2","1",""
"null","null","fixation","html-keyboard-response","171","354478","0.0-1.0-7.0-3.0-0.16","10:07:47","5","","","","","","","fixation","","","","","","","","","","","","","","","","","","",""
"546","9","pic_response","html-keyboard-response","172","355025","0.0-1.0-7.0-3.0-1.16","10:07:47","5","","","","","","","<div>
            <img class='stim' src=""pictures/animals/2.jpg""></div><div class=""button_prompt"">
                    <b>请用数字键0-9回答</b>
                    </div>","","","","","","","","","","","","","","","","","","",""
"546","null","sub_response","html-keyboard-response","173","356026","0.0-1.0-7.0-3.0-2.16","10:07:47","5","","","","","","","<div style='text-align: center;'>
                            <span style=""color: red; font-size: 40px""><b>错误！+0 pts</b></span></div>
                            ","","learn","2","2","2","learn","9","9","[0, 1, 2, 3, 4, 5, 6, 7, 8, 9]","16","5","setsize","3S10A","animals","1","0","8","0",""
"null","null","fixation","html-keyboard-response","174","356527","0.0-1.0-7.0-3.0-0.17","10:07:47","5","","","","","","","fixation","","","","","","","","","","","","","","","","","","",""
"669","9","pic_response","html-keyboard-response","175","357197","0.0-1.0-7.0-3.0-1.17","10:07:47","5","","","","","","","<div>
            <img class='stim' src=""pictures/animals/1.jpg""></div><div class=""button_prompt"">
                    <b>请用数字键0-9回答</b>
                    </div>","","","","","","","","","","","","","","","","","","",""
"669","null","sub_response","html-keyboard-response","176","358204","0.0-1.0-7.0-3.0-2.17","10:07:47","5","","","","","","","<div style='text-align: center;'>
                            <span style=""color: red; font-size: 40px""><b>错误！+0 pts</b></span></div>
                            ","","learn","1","1","1","learn","6","6","[0, 1, 2, 3, 4, 5, 6, 7, 8, 9]","17","5","setsize","3S10A","animals","1","0","8","0",""
"null","null","fixation","html-keyboard-response","177","358704","0.0-1.0-7.0-3.0-0.18","10:07:47","5","","","","","","","fixation","","","","","","","","","","","","","","","","","","",""
"744","0","pic_response","html-keyboard-response","178","359449","0.0-1.0-7.0-3.0-1.18","10:07:47","5","","","","","","","<div>
            <img class='stim' src=""pictures/animals/0.jpg""></div><div class=""button_prompt"">
                    <b>请用数字键0-9回答</b>
                    </div>","","","","","","","","","","","","","","","","","","",""
"744","null","sub_response","html-keyboard-response","179","360450","0.0-1.0-7.0-3.0-2.18","10:07:47","5","","","","","","","<div style='text-align: center;'>
                            <span style=""color: red; font-size: 40px""><b>错误！+0 pts</b></span></div>
                            ","","learn","0","0","0","learn","2","2","[0, 1, 2, 3, 4, 5, 6, 7, 8, 9]","18","6","setsize","3S10A","animals","1","0","9","0",""
"null","null","fixation","html-keyboard-response","180","360951","0.0-1.0-7.0-3.0-0.19","10:07:47","5","","","","","","","fixation","","","","","","","","","","","","","","","","","","",""
"1674","0","pic_response","html-keyboard-response","181","362625","0.0-1.0-7.0-3.0-1.19","10:07:47","5","","","","","","","<div>
            <img class='stim' src=""pictures/animals/2.jpg""></div><div class=""button_prompt"">
                    <b>请用数字键0-9回答</b>
                    </div>","","","","","","","","","","","","","","","","","","",""
"1674","null","sub_response","html-keyboard-response","182","363626","0.0-1.0-7.0-3.0-2.19","10:07:47","5","","","","","","","<div style='text-align: center;'>
                            <span style=""color: green; font-size: 40px""><b>正确！+1 pts</b></span></div>
                            ","","learn","2","2","2","learn","9","9","[0, 1, 2, 3, 4, 5, 6, 7, 8, 9]","19","6","setsize","3S10A","animals","1","1","9","1",""
"null","null","fixation","html-keyboard-response","183","364128","0.0-1.0-7.0-3.0-0.20","10:07:47","5","","","","","","","fixation","","","","","","","","","","","","","","","","","","",""
"null","null","pic_response","html-keyboard-response","184","367130","0.0-1.0-7.0-3.0-1.20","10:07:47","5","","","","","","","<div>
            <img class='stim' src=""pictures/animals/1.jpg""></div><div class=""button_prompt"">
                    <b>请用数字键0-9回答</b>
                    </div>","","","","","","","","","","","","","","","","","","",""
"null","null","sub_response","html-keyboard-response","185","368130","0.0-1.0-7.0-3.0-2.20","10:07:47","5","","","","","","","<div style='text-align: center;'>
                            <span style=""color: red; font-size: 40px""><b>错误！+0 pts</b></span></div>
                            ","","learn","1","1","1","learn","6","6","[0, 1, 2, 3, 4, 5, 6, 7, 8, 9]","20","6","setsize","3S10A","animals","1","0","999","0",""
"null","null","fixation","html-keyboard-response","186","368631","0.0-1.0-7.0-3.0-0.21","10:07:47","5","","","","","","","fixation","","","","","","","","","","","","","","","","","","",""
"909","3","pic_response","html-keyboard-response","187","369542","0.0-1.0-7.0-3.0-1.21","10:07:47","5","","","","","","","<div>
            <img class='stim' src=""pictures/animals/0.jpg""></div><div class=""button_prompt"">
                    <b>请用数字键0-9回答</b>
                    </div>","","","","","","","","","","","","","","","","","","",""
"909","null","sub_response","html-keyboard-response","188","370542","0.0-1.0-7.0-3.0-2.21","10:07:47","5","","","","","","","<div style='text-align: center;'>
                            <span style=""color: green; font-size: 40px""><b>正确！+1 pts</b></span></div>
                            ","","learn","0","0","0","learn","2","2","[0, 1, 2, 3, 4, 5, 6, 7, 8, 9]","21","7","setsize","3S10A","animals","1","1","2","1",""
"null","null","fixation","html-keyboard-response","189","371043","0.0-1.0-7.0-3.0-0.22","10:07:47","5","","","","","","","fixation","","","","","","","","","","","","","","","","","","",""
"813","0","pic_response","html-keyboard-response","190","371857","0.0-1.0-7.0-3.0-1.22","10:07:47","5","","","","","","","<div>
            <img class='stim' src=""pictures/animals/2.jpg""></div><div class=""button_prompt"">
                    <b>请用数字键0-9回答</b>
                    </div>","","","","","","","","","","","","","","","","","","",""
"813","null","sub_response","html-keyboard-response","191","372858","0.0-1.0-7.0-3.0-2.22","10:07:47","5","","","","","","","<div style='text-align: center;'>
                            <span style=""color: green; font-size: 40px""><b>正确！+1 pts</b></span></div>
                            ","","learn","2","2","2","learn","9","9","[0, 1, 2, 3, 4, 5, 6, 7, 8, 9]","22","7","setsize","3S10A","animals","1","2","9","1",""
"null","null","fixation","html-keyboard-response","192","373359","0.0-1.0-7.0-3.0-0.23","10:07:47","5","","","","","","","fixation","","","","","","","","","","","","","","","","","","",""
"648","2","pic_response","html-keyboard-response","193","374008","0.0-1.0-7.0-3.0-1.23","10:07:47","5","","","","","","","<div>
            <img class='stim' src=""pictures/animals/1.jpg""></div><div class=""button_prompt"">
                    <b>请用数字键0-9回答</b>
                    </div>","","","","","","","","","","","","","","","","","","",""
"648","null","sub_response","html-keyboard-response","194","375010","0.0-1.0-7.0-3.0-2.23","10:07:47","5","","","","","","","<div style='text-align: center;'>
                            <span style=""color: red; font-size: 40px""><b>错误！+0 pts</b></span></div>
                            ","","learn","1","1","1","learn","6","6","[0, 1, 2, 3, 4, 5, 6, 7, 8, 9]","23","7","setsize","3S10A","animals","1","0","1","0",""
"null","null","fixation","html-keyboard-response","195","375511","0.0-1.0-7.0-3.0-0.24","10:07:47","5","","","","","","","fixation","","","","","","","","","","","","","","","","","","",""
"603","3","pic_response","html-keyboard-response","196","376115","0.0-1.0-7.0-3.0-1.24","10:07:47","5","","","","","","","<div>
            <img class='stim' src=""pictures/animals/0.jpg""></div><div class=""button_prompt"">
                    <b>请用数字键0-9回答</b>
                    </div>","","","","","","","","","","","","","","","","","","",""
"603","null","sub_response","html-keyboard-response","197","377117","0.0-1.0-7.0-3.0-2.24","10:07:47","5","","","","","","","<div style='text-align: center;'>
                            <span style=""color: green; font-size: 40px""><b>正确！+1 pts</b></span></div>
                            ","","learn","0","0","0","learn","2","2","[0, 1, 2, 3, 4, 5, 6, 7, 8, 9]","24","8","setsize","3S10A","animals","1","1","2","1",""
"null","null","fixation","html-keyboard-response","198","377618","0.0-1.0-7.0-3.0-0.25","10:07:47","5","","","","","","","fixation","","","","","","","","","","","","","","","","","","",""
"1211","1","pic_response","html-keyboard-response","199","378829","0.0-1.0-7.0-3.0-1.25","10:07:47","5","","","","","","","<div>
            <img class='stim' src=""pictures/animals/1.jpg""></div><div class=""button_prompt"">
                    <b>请用数字键0-9回答</b>
                    </div>","","","","","","","","","","","","","","","","","","",""
"1211","null","sub_response","html-keyboard-response","200","379831","0.0-1.0-7.0-3.0-2.25","10:07:47","5","","","","","","","<div style='text-align: center;'>
                            <span style=""color: red; font-size: 40px""><b>错误！+0 pts</b></span></div>
                            ","","learn","1","1","1","learn","6","6","[0, 1, 2, 3, 4, 5, 6, 7, 8, 9]","25","8","setsize","3S10A","animals","1","0","0","0",""
"null","null","fixation","html-keyboard-response","201","380332","0.0-1.0-7.0-3.0-0.26","10:07:47","5","","","","","","","fixation","","","","","","","","","","","","","","","","","","",""
"1113","0","pic_response","html-keyboard-response","202","381446","0.0-1.0-7.0-3.0-1.26","10:07:47","5","","","","","","","<div>
            <img class='stim' src=""pictures/animals/2.jpg""></div><div class=""button_prompt"">
                    <b>请用数字键0-9回答</b>
                    </div>","","","","","","","","","","","","","","","","","","",""
"1113","null","sub_response","html-keyboard-response","203","382446","0.0-1.0-7.0-3.0-2.26","10:07:47","5","","","","","","","<div style='text-align: center;'>
                            <span style=""color: green; font-size: 40px""><b>正确！+1 pts</b></span></div>
                            ","","learn","2","2","2","learn","9","9","[0, 1, 2, 3, 4, 5, 6, 7, 8, 9]","26","8","setsize","3S10A","animals","1","1","9","1",""
"null","null","fixation","html-keyboard-response","204","382947","0.0-1.0-7.0-3.0-0.27","10:07:47","5","","","","","","","fixation","","","","","","","","","","","","","","","","","","",""
"950","0","pic_response","html-keyboard-response","205","383898","0.0-1.0-7.0-3.0-1.27","10:07:47","5","","","","","","","<div>
            <img class='stim' src=""pictures/animals/2.jpg""></div><div class=""button_prompt"">
                    <b>请用数字键0-9回答</b>
                    </div>","","","","","","","","","","","","","","","","","","",""
"950","null","sub_response","html-keyboard-response","206","384899","0.0-1.0-7.0-3.0-2.27","10:07:47","5","","","","","","","<div style='text-align: center;'>
                            <span style=""color: green; font-size: 40px""><b>正确！+1 pts</b></span></div>
                            ","","learn","2","2","2","learn","9","9","[0, 1, 2, 3, 4, 5, 6, 7, 8, 9]","27","9","setsize","3S10A","animals","1","2","9","1",""
"null","null","fixation","html-keyboard-response","207","385400","0.0-1.0-7.0-3.0-0.28","10:07:47","5","","","","","","","fixation","","","","","","","","","","","","","","","","","","",""
"936","3","pic_response","html-keyboard-response","208","386337","0.0-1.0-7.0-3.0-1.28","10:07:47","5","","","","","","","<div>
            <img class='stim' src=""pictures/animals/0.jpg""></div><div class=""button_prompt"">
                    <b>请用数字键0-9回答</b>
                    </div>","","","","","","","","","","","","","","","","","","",""
"936","null","sub_response","html-keyboard-response","209","387338","0.0-1.0-7.0-3.0-2.28","10:07:47","5","","","","","","","<div style='text-align: center;'>
                            <span style=""color: green; font-size: 40px""><b>正确！+1 pts</b></span></div>
                            ","","learn","0","0","0","learn","2","2","[0, 1, 2, 3, 4, 5, 6, 7, 8, 9]","28","9","setsize","3S10A","animals","1","3","2","1",""
"null","null","fixation","html-keyboard-response","210","387839","0.0-1.0-7.0-3.0-0.29","10:07:47","5","","","","","","","fixation","","","","","","","","","","","","","","","","","","",""
"509","5","pic_response","html-keyboard-response","211","388348","0.0-1.0-7.0-3.0-1.29","10:07:47","5","","","","","","","<div>
            <img class='stim' src=""pictures/animals/1.jpg""></div><div class=""button_prompt"">
                    <b>请用数字键0-9回答</b>
                    </div>","","","","","","","","","","","","","","","","","","",""
"509","null","sub_response","html-keyboard-response","212","389350","0.0-1.0-7.0-3.0-2.29","10:07:47","5","","","","","","","<div style='text-align: center;'>
                            <span style=""color: red; font-size: 40px""><b>错误！+0 pts</b></span></div>
                            ","","learn","1","1","1","learn","6","6","[0, 1, 2, 3, 4, 5, 6, 7, 8, 9]","29","9","setsize","3S10A","animals","1","0","4","0",""
"null","null","fixation","html-keyboard-response","213","389851","0.0-1.0-7.0-3.0-0.30","10:07:47","5","","","","","","","fixation","","","","","","","","","","","","","","","","","","",""
"1220","3","pic_response","html-keyboard-response","214","391072","0.0-1.0-7.0-3.0-1.30","10:07:47","5","","","","","","","<div>
            <img class='stim' src=""pictures/animals/0.jpg""></div><div class=""button_prompt"">
                    <b>请用数字键0-9回答</b>
                    </div>","","","","","","","","","","","","","","","","","","",""
"1220","null","sub_response","html-keyboard-response","215","392072","0.0-1.0-7.0-3.0-2.30","10:07:47","5","","","","","","","<div style='text-align: center;'>
                            <span style=""color: green; font-size: 40px""><b>正确！+1 pts</b></span></div>
                            ","","learn","0","0","0","learn","2","2","[0, 1, 2, 3, 4, 5, 6, 7, 8, 9]","30","10","setsize","3S10A","animals","1","1","2","1",""
"null","null","fixation","html-keyboard-response","216","392573","0.0-1.0-7.0-3.0-0.31","10:07:47","5","","","","","","","fixation","","","","","","","","","","","","","","","","","","",""
"980","6","pic_response","html-keyboard-response","217","393554","0.0-1.0-7.0-3.0-1.31","10:07:47","5","","","","","","","<div>
            <img class='stim' src=""pictures/animals/1.jpg""></div><div class=""button_prompt"">
                    <b>请用数字键0-9回答</b>
                    </div>","","","","","","","","","","","","","","","","","","",""
"980","null","sub_response","html-keyboard-response","218","394555","0.0-1.0-7.0-3.0-2.31","10:07:47","5","","","","","","","<div style='text-align: center;'>
                            <span style=""color: red; font-size: 40px""><b>错误！+0 pts</b></span></div>
                            ","","learn","1","1","1","learn","6","6","[0, 1, 2, 3, 4, 5, 6, 7, 8, 9]","31","10","setsize","3S10A","animals","1","0","5","0",""
"null","null","fixation","html-keyboard-response","219","395056","0.0-1.0-7.0-3.0-0.32","10:07:47","5","","","","","","","fixation","","","","","","","","","","","","","","","","","","",""
"1477","0","pic_response","html-keyboard-response","220","396534","0.0-1.0-7.0-3.0-1.32","10:07:47","5","","","","","","","<div>
            <img class='stim' src=""pictures/animals/2.jpg""></div><div class=""button_prompt"">
                    <b>请用数字键0-9回答</b>
                    </div>","","","","","","","","","","","","","","","","","","",""
"1477","null","sub_response","html-keyboard-response","221","397535","0.0-1.0-7.0-3.0-2.32","10:07:47","5","","","","","","","<div style='text-align: center;'>
                            <span style=""color: green; font-size: 40px""><b>正确！+1 pts</b></span></div>
                            ","","learn","2","2","2","learn","9","9","[0, 1, 2, 3, 4, 5, 6, 7, 8, 9]","32","10","setsize","3S10A","animals","1","1","9","1",""
"null","null","fixation","html-keyboard-response","222","398036","0.0-1.0-7.0-3.0-0.33","10:07:47","5","","","","","","","fixation","","","","","","","","","","","","","","","","","","",""
"1620","0","pic_response","html-keyboard-response","223","399657","0.0-1.0-7.0-3.0-1.33","10:07:47","5","","","","","","","<div>
            <img class='stim' src=""pictures/animals/2.jpg""></div><div class=""button_prompt"">
                    <b>请用数字键0-9回答</b>
                    </div>","","","","","","","","","","","","","","","","","","",""
"1620","null","sub_response","html-keyboard-response","224","400659","0.0-1.0-7.0-3.0-2.33","10:07:47","5","","","","","","","<div style='text-align: center;'>
                            <span style=""color: green; font-size: 40px""><b>正确！+1 pts</b></span></div>
                            ","","learn","2","2","2","learn","9","9","[0, 1, 2, 3, 4, 5, 6, 7, 8, 9]","33","11","setsize","3S10A","animals","1","2","9","1",""
"null","null","fixation","html-keyboard-response","225","401160","0.0-1.0-7.0-3.0-0.34","10:07:47","5","","","","","","","fixation","","","","","","","","","","","","","","","","","","",""
"1439","7","pic_response","html-keyboard-response","226","402600","0.0-1.0-7.0-3.0-1.34","10:07:47","5","","","","","","","<div>
            <img class='stim' src=""pictures/animals/1.jpg""></div><div class=""button_prompt"">
                    <b>请用数字键0-9回答</b>
                    </div>","","","","","","","","","","","","","","","","","","",""
"1439","null","sub_response","html-keyboard-response","227","403602","0.0-1.0-7.0-3.0-2.34","10:07:47","5","","","","","","","<div style='text-align: center;'>
                            <span style=""color: green; font-size: 40px""><b>正确！+1 pts</b></span></div>
                            ","","learn","1","1","1","learn","6","6","[0, 1, 2, 3, 4, 5, 6, 7, 8, 9]","34","11","setsize","3S10A","animals","1","3","6","1",""
"null","null","fixation","html-keyboard-response","228","404102","0.0-1.0-7.0-3.0-0.35","10:07:47","5","","","","","","","fixation","","","","","","","","","","","","","","","","","","",""
"904","3","pic_response","html-keyboard-response","229","405007","0.0-1.0-7.0-3.0-1.35","10:07:47","5","","","","","","","<div>
            <img class='stim' src=""pictures/animals/0.jpg""></div><div class=""button_prompt"">
                    <b>请用数字键0-9回答</b>
                    </div>","","","","","","","","","","","","","","","","","","",""
"904","null","sub_response","html-keyboard-response","230","406008","0.0-1.0-7.0-3.0-2.35","10:07:47","5","","","","","","","<div style='text-align: center;'>
                            <span style=""color: green; font-size: 40px""><b>正确！+1 pts</b></span></div>
                            ","","learn","0","0","0","learn","2","2","[0, 1, 2, 3, 4, 5, 6, 7, 8, 9]","35","11","setsize","3S10A","animals","1","4","2","1",""
"null","null","fixation","html-keyboard-response","231","406509","0.0-1.0-7.0-3.0-0.36","10:07:47","5","","","","","","","fixation","","","","","","","","","","","","","","","","","","",""
"939","7","pic_response","html-keyboard-response","232","407449","0.0-1.0-7.0-3.0-1.36","10:07:47","5","","","","","","","<div>
            <img class='stim' src=""pictures/animals/1.jpg""></div><div class=""button_prompt"">
                    <b>请用数字键0-9回答</b>
                    </div>","","","","","","","","","","","","","","","","","","",""
"939","null","sub_response","html-keyboard-response","233","408450","0.0-1.0-7.0-3.0-2.36","10:07:47","5","","","","","","","<div style='text-align: center;'>
                            <span style=""color: green; font-size: 40px""><b>正确！+1 pts</b></span></div>
                            ","","learn","1","1","1","learn","6","6","[0, 1, 2, 3, 4, 5, 6, 7, 8, 9]","36","12","setsize","3S10A","animals","1","5","6","1",""
"null","null","fixation","html-keyboard-response","234","408951","0.0-1.0-7.0-3.0-0.37","10:07:47","5","","","","","","","fixation","","","","","","","","","","","","","","","","","","",""
"1033","3","pic_response","html-keyboard-response","235","409985","0.0-1.0-7.0-3.0-1.37","10:07:47","5","","","","","","","<div>
            <img class='stim' src=""pictures/animals/0.jpg""></div><div class=""button_prompt"">
                    <b>请用数字键0-9回答</b>
                    </div>","","","","","","","","","","","","","","","","","","",""
"1033","null","sub_response","html-keyboard-response","236","410986","0.0-1.0-7.0-3.0-2.37","10:07:47","5","","","","","","","<div style='text-align: center;'>
                            <span style=""color: green; font-size: 40px""><b>正确！+1 pts</b></span></div>
                            ","","learn","0","0","0","learn","2","2","[0, 1, 2, 3, 4, 5, 6, 7, 8, 9]","37","12","setsize","3S10A","animals","1","6","2","1",""
"null","null","fixation","html-keyboard-response","237","411487","0.0-1.0-7.0-3.0-0.38","10:07:47","5","","","","","","","fixation","","","","","","","","","","","","","","","","","","",""
"908","0","pic_response","html-keyboard-response","238","412396","0.0-1.0-7.0-3.0-1.38","10:07:47","5","","","","","","","<div>
            <img class='stim' src=""pictures/animals/2.jpg""></div><div class=""button_prompt"">
                    <b>请用数字键0-9回答</b>
                    </div>","","","","","","","","","","","","","","","","","","",""
"908","null","sub_response","html-keyboard-response","239","413398","0.0-1.0-7.0-3.0-2.38","10:07:47","5","","","","","","","<div style='text-align: center;'>
                            <span style=""color: green; font-size: 40px""><b>正确！+1 pts</b></span></div>
                            ","","learn","2","2","2","learn","9","9","[0, 1, 2, 3, 4, 5, 6, 7, 8, 9]","38","12","setsize","3S10A","animals","1","7","9","1",""
"null","null","fixation","html-keyboard-response","240","413898","0.0-1.0-7.0-3.0-0.39","10:07:47","5","","","","","","","fixation","","","","","","","","","","","","","","","","","","",""
"756","7","pic_response","html-keyboard-response","241","414655","0.0-1.0-7.0-3.0-1.39","10:07:47","5","","","","","","","<div>
            <img class='stim' src=""pictures/animals/1.jpg""></div><div class=""button_prompt"">
                    <b>请用数字键0-9回答</b>
                    </div>","","","","","","","","","","","","","","","","","","",""
"756","null","sub_response","html-keyboard-response","242","415656","0.0-1.0-7.0-3.0-2.39","10:07:47","5","","","","","","","<div style='text-align: center;'>
                            <span style=""color: green; font-size: 40px""><b>正确！+1 pts</b></span></div>
                            ","","learn","1","1","1","learn","6","6","[0, 1, 2, 3, 4, 5, 6, 7, 8, 9]","39","13","setsize","3S10A","animals","1","8","6","1",""
"null","null","fixation","html-keyboard-response","243","416157","0.0-1.0-7.0-3.0-0.40","10:07:47","5","","","","","","","fixation","","","","","","","","","","","","","","","","","","",""
"657","3","pic_response","html-keyboard-response","244","416816","0.0-1.0-7.0-3.0-1.40","10:07:47","5","","","","","","","<div>
            <img class='stim' src=""pictures/animals/0.jpg""></div><div class=""button_prompt"">
                    <b>请用数字键0-9回答</b>
                    </div>","","","","","","","","","","","","","","","","","","",""
"657","null","sub_response","html-keyboard-response","245","417817","0.0-1.0-7.0-3.0-2.40","10:07:47","5","","","","","","","<div style='text-align: center;'>
                            <span style=""color: green; font-size: 40px""><b>正确！+1 pts</b></span></div>
                            ","","learn","0","0","0","learn","2","2","[0, 1, 2, 3, 4, 5, 6, 7, 8, 9]","40","13","setsize","3S10A","animals","1","9","2","1",""
"null","null","fixation","html-keyboard-response","246","418325","0.0-1.0-7.0-3.0-0.41","10:07:47","5","","","","","","","fixation","","","","","","","","","","","","","","","","","","",""
"856","0","pic_response","html-keyboard-response","247","419182","0.0-1.0-7.0-3.0-1.41","10:07:47","5","","","","","","","<div>
            <img class='stim' src=""pictures/animals/2.jpg""></div><div class=""button_prompt"">
                    <b>请用数字键0-9回答</b>
                    </div>","","","","","","","","","","","","","","","","","","",""
"856","null","sub_response","html-keyboard-response","248","420183","0.0-1.0-7.0-3.0-2.41","10:07:47","5","","","","","","","<div style='text-align: center;'>
                            <span style=""color: green; font-size: 40px""><b>正确！+1 pts</b></span></div>
                            ","","learn","2","2","2","learn","9","9","[0, 1, 2, 3, 4, 5, 6, 7, 8, 9]","41","13","setsize","3S10A","animals","1","10","9","1",""
"null","null","fixation","html-keyboard-response","249","420684","0.0-1.0-7.0-3.0-0.42","10:07:47","5","","","","","","","fixation","","","","","","","","","","","","","","","","","","",""
"528","7","pic_response","html-keyboard-response","250","421214","0.0-1.0-7.0-3.0-1.42","10:07:47","5","","","","","","","<div>
            <img class='stim' src=""pictures/animals/1.jpg""></div><div class=""button_prompt"">
                    <b>请用数字键0-9回答</b>
                    </div>","","","","","","","","","","","","","","","","","","",""
"528","null","sub_response","html-keyboard-response","251","422215","0.0-1.0-7.0-3.0-2.42","10:07:47","5","","","","","","","<div style='text-align: center;'>
                            <span style=""color: green; font-size: 40px""><b>正确！+1 pts</b></span></div>
                            ","","learn","1","1","1","learn","6","6","[0, 1, 2, 3, 4, 5, 6, 7, 8, 9]","42","14","setsize","3S10A","animals","1","11","6","1",""
"null","null","fixation","html-keyboard-response","252","422716","0.0-1.0-7.0-3.0-0.43","10:07:47","5","","","","","","","fixation","","","","","","","","","","","","","","","","","","",""
"1054","0","pic_response","html-keyboard-response","253","423771","0.0-1.0-7.0-3.0-1.43","10:07:47","5","","","","","","","<div>
            <img class='stim' src=""pictures/animals/2.jpg""></div><div class=""button_prompt"">
                    <b>请用数字键0-9回答</b>
                    </div>","","","","","","","","","","","","","","","","","","",""
"1054","null","sub_response","html-keyboard-response","254","424772","0.0-1.0-7.0-3.0-2.43","10:07:47","5","","","","","","","<div style='text-align: center;'>
                            <span style=""color: green; font-size: 40px""><b>正确！+1 pts</b></span></div>
                            ","","learn","2","2","2","learn","9","9","[0, 1, 2, 3, 4, 5, 6, 7, 8, 9]","43","14","setsize","3S10A","animals","1","12","9","1",""
"null","null","fixation","html-keyboard-response","255","425273","0.0-1.0-7.0-3.0-0.44","10:07:47","5","","","","","","","fixation","","","","","","","","","","","","","","","","","","",""
"719","3","pic_response","html-keyboard-response","256","425993","0.0-1.0-7.0-3.0-1.44","10:07:47","5","","","","","","","<div>
            <img class='stim' src=""pictures/animals/0.jpg""></div><div class=""button_prompt"">
                    <b>请用数字键0-9回答</b>
                    </div>","","","","","","","","","","","","","","","","","","",""
"719","null","sub_response","html-keyboard-response","257","426994","0.0-1.0-7.0-3.0-2.44","10:07:47","5","","","","","","","<div style='text-align: center;'>
                            <span style=""color: green; font-size: 40px""><b>正确！+1 pts</b></span></div>
                            ","","learn","0","0","0","learn","2","2","[0, 1, 2, 3, 4, 5, 6, 7, 8, 9]","44","14","setsize","3S10A","animals","1","13","2","1",""
"null","null","fixation","html-keyboard-response","258","427495","0.0-1.0-7.0-3.0-0.45","10:07:47","5","","","","","","","fixation","","","","","","","","","","","","","","","","","","",""
"892","0","pic_response","html-keyboard-response","259","428388","0.0-1.0-7.0-3.0-1.45","10:07:47","5","","","","","","","<div>
            <img class='stim' src=""pictures/animals/2.jpg""></div><div class=""button_prompt"">
                    <b>请用数字键0-9回答</b>
                    </div>","","","","","","","","","","","","","","","","","","",""
"892","null","sub_response","html-keyboard-response","260","429389","0.0-1.0-7.0-3.0-2.45","10:07:47","5","","","","","","","<div style='text-align: center;'>
                            <span style=""color: green; font-size: 40px""><b>正确！+1 pts</b></span></div>
                            ","","learn","2","2","2","learn","9","9","[0, 1, 2, 3, 4, 5, 6, 7, 8, 9]","45","15","setsize","3S10A","animals","1","14","9","1",""
"14409"," ","","html-keyboard-response","261","443800","0.0-1.0-8.0","10:07:47","5","","","","","","","<div style=""font-size: 25px""><p>距下一个实验开始还有</p><div style=""font-size: 50px; color: blue""><p><span id=""clock"">1:00</span></div></p><p>按""空格""跳过休息</p></div>","","","","","","","","","","","","","","","","","","",""
"","","","preload","262","443937","0.0-1.0-9.0-0.0","10:07:47","5","true","false","[]","[]","[]","","","","","","","","","","","","","","","","","","","","",""
"3467"," ","","html-keyboard-response","263","447405","0.0-1.0-9.0-1.0","10:07:47","5","","","","","","","<div style='font-size: 32px; text-align: center;'
                    <p>请学习图片和数字之间的对应关系</p>
                    <p>我们将<span style='color: blue'><b> 告诉 </b></span>您选择的对错。请根据反馈学习。</p>
                    <p>请按""空格""继续实验。</p></div>","","","","","","","","","","","","","","","","","","",""
"3574"," ","inst","html-keyboard-response","264","450979","0.0-1.0-9.0-2.0","10:07:47","5","","","","","","","<img class='instruct_stim' src=""instruction/sports3.PNG""></div>","","","","","","","","","","","","","","","","","","",""
"null","null","fixation","html-keyboard-response","265","451481","0.0-1.0-9.0-3.0-0.0","10:07:47","5","","","","","","","fixation","","","","","","","","","","","","","","","","","","",""
"1383","1","pic_response","html-keyboard-response","266","452864","0.0-1.0-9.0-3.0-1.0","10:07:47","5","","","","","","","<div>
            <img class='stim' src=""pictures/sports/1.jpg""></div><div class=""button_prompt"">
                        <b>请用数字键1-3回答</b>
                        </div>","","","","","","","","","","","","","","","","","","",""
"1383","null","sub_response","html-keyboard-response","267","453865","0.0-1.0-9.0-3.0-2.0","10:07:47","5","","","","","","","<div style='text-align: center;'>
                            <span style=""color: green; font-size: 40px""><b>正确！+1 pts</b></span></div>
                            ","","learn","1","1","1","learn","0","0","[0, 1, 2]","0","0","setsize","3S3A","sports","2","15","0","1",""
"null","null","fixation","html-keyboard-response","268","454367","0.0-1.0-9.0-3.0-0.1","10:07:47","5","","","","","","","fixation","","","","","","","","","","","","","","","","","","",""
"1086","1","pic_response","html-keyboard-response","269","455454","0.0-1.0-9.0-3.0-1.1","10:07:47","5","","","","","","","<div>
            <img class='stim' src=""pictures/sports/2.jpg""></div><div class=""button_prompt"">
                        <b>请用数字键1-3回答</b>
                        </div>","","","","","","","","","","","","","","","","","","",""
"1086","null","sub_response","html-keyboard-response","270","456455","0.0-1.0-9.0-3.0-2.1","10:07:47","5","","","","","","","<div style='text-align: center;'>
                            <span style=""color: red; font-size: 40px""><b>错误！+0 pts</b></span></div>
                            ","","learn","2","2","2","learn","2","2","[0, 1, 2]","1","0","setsize","3S3A","sports","2","0","0","0",""
"null","null","fixation","html-keyboard-response","271","456956","0.0-1.0-9.0-3.0-0.2","10:07:47","5","","","","","","","fixation","","","","","","","","","","","","","","","","","","",""
"855","1","pic_response","html-keyboard-response","272","457812","0.0-1.0-9.0-3.0-1.2","10:07:47","5","","","","","","","<div>
            <img class='stim' src=""pictures/sports/0.jpg""></div><div class=""button_prompt"">
                        <b>请用数字键1-3回答</b>
                        </div>","","","","","","","","","","","","","","","","","","",""
"855","null","sub_response","html-keyboard-response","273","458813","0.0-1.0-9.0-3.0-2.2","10:07:47","5","","","","","","","<div style='text-align: center;'>
                            <span style=""color: green; font-size: 40px""><b>正确！+1 pts</b></span></div>
                            ","","learn","0","0","0","learn","0","0","[0, 1, 2]","2","0","setsize","3S3A","sports","2","1","0","1",""
"null","null","fixation","html-keyboard-response","274","459314","0.0-1.0-9.0-3.0-0.3","10:07:47","5","","","","","","","fixation","","","","","","","","","","","","","","","","","","",""
"934","1","pic_response","html-keyboard-response","275","460248","0.0-1.0-9.0-3.0-1.3","10:07:47","5","","","","","","","<div>
            <img class='stim' src=""pictures/sports/0.jpg""></div><div class=""button_prompt"">
                        <b>请用数字键1-3回答</b>
                        </div>","","","","","","","","","","","","","","","","","","",""
"934","null","sub_response","html-keyboard-response","276","461250","0.0-1.0-9.0-3.0-2.3","10:07:47","5","","","","","","","<div style='text-align: center;'>
                            <span style=""color: green; font-size: 40px""><b>正确！+1 pts</b></span></div>
                            ","","learn","0","0","0","learn","0","0","[0, 1, 2]","3","1","setsize","3S3A","sports","2","2","0","1",""
"null","null","fixation","html-keyboard-response","277","461751","0.0-1.0-9.0-3.0-0.4","10:07:47","5","","","","","","","fixation","","","","","","","","","","","","","","","","","","",""
"1165","1","pic_response","html-keyboard-response","278","462916","0.0-1.0-9.0-3.0-1.4","10:07:47","5","","","","","","","<div>
            <img class='stim' src=""pictures/sports/1.jpg""></div><div class=""button_prompt"">
                        <b>请用数字键1-3回答</b>
                        </div>","","","","","","","","","","","","","","","","","","",""
"1165","null","sub_response","html-keyboard-response","279","463918","0.0-1.0-9.0-3.0-2.4","10:07:47","5","","","","","","","<div style='text-align: center;'>
                            <span style=""color: green; font-size: 40px""><b>正确！+1 pts</b></span></div>
                            ","","learn","1","1","1","learn","0","0","[0, 1, 2]","4","1","setsize","3S3A","sports","2","3","0","1",""
"null","null","fixation","html-keyboard-response","280","464419","0.0-1.0-9.0-3.0-0.5","10:07:47","5","","","","","","","fixation","","","","","","","","","","","","","","","","","","",""
"583","2","pic_response","html-keyboard-response","281","465003","0.0-1.0-9.0-3.0-1.5","10:07:47","5","","","","","","","<div>
            <img class='stim' src=""pictures/sports/2.jpg""></div><div class=""button_prompt"">
                        <b>请用数字键1-3回答</b>
                        </div>","","","","","","","","","","","","","","","","","","",""
"583","null","sub_response","html-keyboard-response","282","466004","0.0-1.0-9.0-3.0-2.5","10:07:47","5","","","","","","","<div style='text-align: center;'>
                            <span style=""color: red; font-size: 40px""><b>错误！+0 pts</b></span></div>
                            ","","learn","2","2","2","learn","2","2","[0, 1, 2]","5","1","setsize","3S3A","sports","2","0","1","0",""
"null","null","fixation","html-keyboard-response","283","466505","0.0-1.0-9.0-3.0-0.6","10:07:47","5","","","","","","","fixation","","","","","","","","","","","","","","","","","","",""
"790","1","pic_response","html-keyboard-response","284","467297","0.0-1.0-9.0-3.0-1.6","10:07:47","5","","","","","","","<div>
            <img class='stim' src=""pictures/sports/1.jpg""></div><div class=""button_prompt"">
                        <b>请用数字键1-3回答</b>
                        </div>","","","","","","","","","","","","","","","","","","",""
"790","null","sub_response","html-keyboard-response","285","468298","0.0-1.0-9.0-3.0-2.6","10:07:47","5","","","","","","","<div style='text-align: center;'>
                            <span style=""color: green; font-size: 40px""><b>正确！+1 pts</b></span></div>
                            ","","learn","1","1","1","learn","0","0","[0, 1, 2]","6","2","setsize","3S3A","sports","2","1","0","1",""
"null","null","fixation","html-keyboard-response","286","468799","0.0-1.0-9.0-3.0-0.7","10:07:47","5","","","","","","","fixation","","","","","","","","","","","","","","","","","","",""
"777","3","pic_response","html-keyboard-response","287","469578","0.0-1.0-9.0-3.0-1.7","10:07:47","5","","","","","","","<div>
            <img class='stim' src=""pictures/sports/2.jpg""></div><div class=""button_prompt"">
                        <b>请用数字键1-3回答</b>
                        </div>","","","","","","","","","","","","","","","","","","",""
"777","null","sub_response","html-keyboard-response","288","470579","0.0-1.0-9.0-3.0-2.7","10:07:47","5","","","","","","","<div style='text-align: center;'>
                            <span style=""color: green; font-size: 40px""><b>正确！+1 pts</b></span></div>
                            ","","learn","2","2","2","learn","2","2","[0, 1, 2]","7","2","setsize","3S3A","sports","2","2","2","1",""
"null","null","fixation","html-keyboard-response","289","471080","0.0-1.0-9.0-3.0-0.8","10:07:47","5","","","","","","","fixation","","","","","","","","","","","","","","","","","","",""
"809","1","pic_response","html-keyboard-response","290","471890","0.0-1.0-9.0-3.0-1.8","10:07:47","5","","","","","","","<div>
            <img class='stim' src=""pictures/sports/0.jpg""></div><div class=""button_prompt"">
                        <b>请用数字键1-3回答</b>
                        </div>","","","","","","","","","","","","","","","","","","",""
"809","null","sub_response","html-keyboard-response","291","472892","0.0-1.0-9.0-3.0-2.8","10:07:47","5","","","","","","","<div style='text-align: center;'>
                            <span style=""color: green; font-size: 40px""><b>正确！+1 pts</b></span></div>
                            ","","learn","0","0","0","learn","0","0","[0, 1, 2]","8","2","setsize","3S3A","sports","2","3","0","1",""
"null","null","fixation","html-keyboard-response","292","473393","0.0-1.0-9.0-3.0-0.9","10:07:47","5","","","","","","","fixation","","","","","","","","","","","","","","","","","","",""
"779","3","pic_response","html-keyboard-response","293","474173","0.0-1.0-9.0-3.0-1.9","10:07:47","5","","","","","","","<div>
            <img class='stim' src=""pictures/sports/2.jpg""></div><div class=""button_prompt"">
                        <b>请用数字键1-3回答</b>
                        </div>","","","","","","","","","","","","","","","","","","",""
"779","null","sub_response","html-keyboard-response","294","475174","0.0-1.0-9.0-3.0-2.9","10:07:47","5","","","","","","","<div style='text-align: center;'>
                            <span style=""color: green; font-size: 40px""><b>正确！+1 pts</b></span></div>
                            ","","learn","2","2","2","learn","2","2","[0, 1, 2]","9","3","setsize","3S3A","sports","2","4","2","1",""
"null","null","fixation","html-keyboard-response","295","475675","0.0-1.0-9.0-3.0-0.10","10:07:47","5","","","","","","","fixation","","","","","","","","","","","","","","","","","","",""
"546","1","pic_response","html-keyboard-response","296","476222","0.0-1.0-9.0-3.0-1.10","10:07:47","5","","","","","","","<div>
            <img class='stim' src=""pictures/sports/1.jpg""></div><div class=""button_prompt"">
                        <b>请用数字键1-3回答</b>
                        </div>","","","","","","","","","","","","","","","","","","",""
"546","null","sub_response","html-keyboard-response","297","477222","0.0-1.0-9.0-3.0-2.10","10:07:47","5","","","","","","","<div style='text-align: center;'>
                            <span style=""color: green; font-size: 40px""><b>正确！+1 pts</b></span></div>
                            ","","learn","1","1","1","learn","0","0","[0, 1, 2]","10","3","setsize","3S3A","sports","2","5","0","1",""
"null","null","fixation","html-keyboard-response","298","477723","0.0-1.0-9.0-3.0-0.11","10:07:47","5","","","","","","","fixation","","","","","","","","","","","","","","","","","","",""
"1397","3","pic_response","html-keyboard-response","299","479127","0.0-1.0-9.0-3.0-1.11","10:07:47","5","","","","","","","<div>
            <img class='stim' src=""pictures/sports/0.jpg""></div><div class=""button_prompt"">
                        <b>请用数字键1-3回答</b>
                        </div>","","","","","","","","","","","","","","","","","","",""
"1397","null","sub_response","html-keyboard-response","300","480128","0.0-1.0-9.0-3.0-2.11","10:07:47","5","","","","","","","<div style='text-align: center;'>
                            <span style=""color: red; font-size: 40px""><b>错误！+0 pts</b></span></div>
                            ","","learn","0","0","0","learn","0","0","[0, 1, 2]","11","3","setsize","3S3A","sports","2","0","2","0",""
"null","null","fixation","html-keyboard-response","301","480629","0.0-1.0-9.0-3.0-0.12","10:07:47","5","","","","","","","fixation","","","","","","","","","","","","","","","","","","",""
"462","1","pic_response","html-keyboard-response","302","481092","0.0-1.0-9.0-3.0-1.12","10:07:47","5","","","","","","","<div>
            <img class='stim' src=""pictures/sports/1.jpg""></div><div class=""button_prompt"">
                        <b>请用数字键1-3回答</b>
                        </div>","","","","","","","","","","","","","","","","","","",""
"462","null","sub_response","html-keyboard-response","303","482093","0.0-1.0-9.0-3.0-2.12","10:07:47","5","","","","","","","<div style='text-align: center;'>
                            <span style=""color: green; font-size: 40px""><b>正确！+1 pts</b></span></div>
                            ","","learn","1","1","1","learn","0","0","[0, 1, 2]","12","4","setsize","3S3A","sports","2","1","0","1",""
"null","null","fixation","html-keyboard-response","304","482595","0.0-1.0-9.0-3.0-0.13","10:07:47","5","","","","","","","fixation","","","","","","","","","","","","","","","","","","",""
"812","1","pic_response","html-keyboard-response","305","483408","0.0-1.0-9.0-3.0-1.13","10:07:47","5","","","","","","","<div>
            <img class='stim' src=""pictures/sports/0.jpg""></div><div class=""button_prompt"">
                        <b>请用数字键1-3回答</b>
                        </div>","","","","","","","","","","","","","","","","","","",""
"812","null","sub_response","html-keyboard-response","306","484410","0.0-1.0-9.0-3.0-2.13","10:07:47","5","","","","","","","<div style='text-align: center;'>
                            <span style=""color: green; font-size: 40px""><b>正确！+1 pts</b></span></div>
                            ","","learn","0","0","0","learn","0","0","[0, 1, 2]","13","4","setsize","3S3A","sports","2","2","0","1",""
"null","null","fixation","html-keyboard-response","307","484911","0.0-1.0-9.0-3.0-0.14","10:07:47","5","","","","","","","fixation","","","","","","","","","","","","","","","","","","",""
"451","3","pic_response","html-keyboard-response","308","485363","0.0-1.0-9.0-3.0-1.14","10:07:47","5","","","","","","","<div>
            <img class='stim' src=""pictures/sports/2.jpg""></div><div class=""button_prompt"">
                        <b>请用数字键1-3回答</b>
                        </div>","","","","","","","","","","","","","","","","","","",""
"451","null","sub_response","html-keyboard-response","309","486365","0.0-1.0-9.0-3.0-2.14","10:07:47","5","","","","","","","<div style='text-align: center;'>
                            <span style=""color: green; font-size: 40px""><b>正确！+1 pts</b></span></div>
                            ","","learn","2","2","2","learn","2","2","[0, 1, 2]","14","4","setsize","3S3A","sports","2","3","2","1",""
"null","null","fixation","html-keyboard-response","310","486866","0.0-1.0-9.0-3.0-0.15","10:07:47","5","","","","","","","fixation","","","","","","","","","","","","","","","","","","",""
"616","1","pic_response","html-keyboard-response","311","487483","0.0-1.0-9.0-3.0-1.15","10:07:47","5","","","","","","","<div>
            <img class='stim' src=""pictures/sports/0.jpg""></div><div class=""button_prompt"">
                        <b>请用数字键1-3回答</b>
                        </div>","","","","","","","","","","","","","","","","","","",""
"616","null","sub_response","html-keyboard-response","312","488484","0.0-1.0-9.0-3.0-2.15","10:07:47","5","","","","","","","<div style='text-align: center;'>
                            <span style=""color: green; font-size: 40px""><b>正确！+1 pts</b></span></div>
                            ","","learn","0","0","0","learn","0","0","[0, 1, 2]","15","5","setsize","3S3A","sports","2","4","0","1",""
"null","null","fixation","html-keyboard-response","313","488985","0.0-1.0-9.0-3.0-0.16","10:07:47","5","","","","","","","fixation","","","","","","","","","","","","","","","","","","",""
"640","3","pic_response","html-keyboard-response","314","489626","0.0-1.0-9.0-3.0-1.16","10:07:47","5","","","","","","","<div>
            <img class='stim' src=""pictures/sports/2.jpg""></div><div class=""button_prompt"">
                        <b>请用数字键1-3回答</b>
                        </div>","","","","","","","","","","","","","","","","","","",""
"640","null","sub_response","html-keyboard-response","315","490627","0.0-1.0-9.0-3.0-2.16","10:07:47","5","","","","","","","<div style='text-align: center;'>
                            <span style=""color: green; font-size: 40px""><b>正确！+1 pts</b></span></div>
                            ","","learn","2","2","2","learn","2","2","[0, 1, 2]","16","5","setsize","3S3A","sports","2","5","2","1",""
"null","null","fixation","html-keyboard-response","316","491128","0.0-1.0-9.0-3.0-0.17","10:07:47","5","","","","","","","fixation","","","","","","","","","","","","","","","","","","",""
"524","1","pic_response","html-keyboard-response","317","491653","0.0-1.0-9.0-3.0-1.17","10:07:47","5","","","","","","","<div>
            <img class='stim' src=""pictures/sports/1.jpg""></div><div class=""button_prompt"">
                        <b>请用数字键1-3回答</b>
                        </div>","","","","","","","","","","","","","","","","","","",""
"524","null","sub_response","html-keyboard-response","318","492654","0.0-1.0-9.0-3.0-2.17","10:07:47","5","","","","","","","<div style='text-align: center;'>
                            <span style=""color: green; font-size: 40px""><b>正确！+1 pts</b></span></div>
                            ","","learn","1","1","1","learn","0","0","[0, 1, 2]","17","5","setsize","3S3A","sports","2","6","0","1",""
"null","null","fixation","html-keyboard-response","319","493155","0.0-1.0-9.0-3.0-0.18","10:07:47","5","","","","","","","fixation","","","","","","","","","","","","","","","","","","",""
"420","1","pic_response","html-keyboard-response","320","493575","0.0-1.0-9.0-3.0-1.18","10:07:47","5","","","","","","","<div>
            <img class='stim' src=""pictures/sports/1.jpg""></div><div class=""button_prompt"">
                        <b>请用数字键1-3回答</b>
                        </div>","","","","","","","","","","","","","","","","","","",""
"420","null","sub_response","html-keyboard-response","321","494577","0.0-1.0-9.0-3.0-2.18","10:07:47","5","","","","","","","<div style='text-align: center;'>
