"rt","response","screen_id","trial_type","trial_index","time_elapsed","internal_node_id","start_time","n_Prac","success","timeout","failed_images","failed_audio","failed_video","view_history","stimulus","question_order","stage","s","word","word_id","phase","a_cor","a_real","a_ava","trial","tps","task_type","block_typ","pic_typ","block_id","cum_r","a","r","plugin_name"
"14836","{""sub_id"":""1354"",""task_type"":""task1"",""name"":""碧瑶"",""gender"":""F""}","basic_info","survey-html-form","0","14838","0.0-0.0","20:34:54","2","","","","","","","","","","","","","","","","","","","","","","","","","",""
"","","","preload","1","14976","0.0-1.0-0.0","20:34:54","2","true","false","[]","[]","[]","","","","","","","","","","","","","","","","","","","","",""
"","","","preload","2","14993","0.0-1.0-1.0","20:34:54","2","true","false","[]","[]","[]","","","","","","","","","","","","","","","","","","","","",""
"","","","fullscreen","3","17198","0.0-1.0-2.0","20:34:54","2","true","","","","","","","","","","","","","","","","","","","","","","","","",""
"33102","","instruct","instructions","4","50302","0.0-1.0-3.0-0.0","20:34:54","2","","","","","","[{""page_index"":0,""viewing_time"":1461},{""page_index"":1,""viewing_time"":14656},{""page_index"":2,""viewing_time"":16984}]","","","","","","","","","","","","","","","","","","","",""
"28287","{""Q0"":"""",""task1"":""<span style='font-size: 24px'>学习图片和数字的对应关系</span>"",""task2"":""<span style='font-size: 24px'> 图片下方标注为可用的数字键（数字键1-3或0-9） </span>"",""task3"":""<span style='font-size: 24px'> 看到图片选出正确对应的数字 </span>""}","question","survey-multi-choice","5","78590","0.0-1.0-3.0-1.0","20:34:54","2","","","","","","","","[0,1,2,3]","","","","","","","","","","","","","","","","","",""
"2224"," ","inst_q","html-keyboard-response","6","80817","0.0-1.0-3.0-2.0","20:34:54","2","","","","","","","inst","","1","","","","","","","","","","","","","","","","",""
"","","","preload","7","80846","0.0-1.0-4.0-0.0","20:34:54","2","true","false","[]","[]","[]","","","","","","","","","","","","","","","","","","","","",""
"1759"," ","","html-keyboard-response","8","82606","0.0-1.0-4.0-1.0","20:34:54","2","","","","","","","<div style='font-size: 32px; text-align: center;'
                    <p>请学习图片和数字之间的对应关系</p>
                    <p>我们将<span style='color: blue'><b> 告诉 </b></span>您选择的对错。请根据反馈学习。</p>
                    <p>请按""空格""继续实验。</p></div>","","","","","","","","","","","","","","","","","","",""
"3697"," ","inst","html-keyboard-response","9","86305","0.0-1.0-4.0-2.0","20:34:54","2","","","","","","","<img class='instruct_stim' src=""instruction/prac3.PNG""></div>","","","","","","","","","","","","","","","","","","",""
"null","null","fixation","html-keyboard-response","10","86807","0.0-1.0-4.0-3.0-0.0","20:34:54","2","","","","","","","fixation","","","","","","","","","","","","","","","","","","",""
"1205","1","pic_response","html-keyboard-response","11","88014","0.0-1.0-4.0-3.0-1.0","20:34:54","2","","","","","","","<div>
            <img class='stim' src=""pictures/prac/0.jpg""></div><div class=""button_prompt"">
                        <b>请用数字键1-3回答</b>
                        </div>","","","","","","","","","","","","","","","","","","",""
"1205","null","sub_response","html-keyboard-response","12","89017","0.0-1.0-4.0-3.0-2.0","20:34:54","2","","","","","","","<div style='text-align: center;'>
                            <span style=""color: green; font-size: 40px""><b>正确！+1 pts</b></span></div>
                            ","","learn","0","0","0","learn","0","0","[0, 1, 2]","0","0","setsize","99","prac","0","1","0","1",""
"null","null","fixation","html-keyboard-response","13","89519","0.0-1.0-4.0-3.0-0.1","20:34:54","2","","","","","","","fixation","","","","","","","","","","","","","","","","","","",""
"781","2","pic_response","html-keyboard-response","14","90302","0.0-1.0-4.0-3.0-1.1","20:34:54","2","","","","","","","<div>
            <img class='stim' src=""pictures/prac/2.jpg""></div><div class=""button_prompt"">
                        <b>请用数字键1-3回答</b>
                        </div>","","","","","","","","","","","","","","","","","","",""
"781","null","sub_response","html-keyboard-response","15","91304","0.0-1.0-4.0-3.0-2.1","20:34:54","2","","","","","","","<div style='text-align: center;'>
                            <span style=""color: red; font-size: 40px""><b>错误！+0 pts</b></span></div>
                            ","","learn","2","2","2","learn","2","2","[0, 1, 2]","1","0","setsize","99","prac","0","0","1","0",""
"null","null","fixation","html-keyboard-response","16","91808","0.0-1.0-4.0-3.0-0.2","20:34:54","2","","","","","","","fixation","","","","","","","","","","","","","","","","","","",""
"539","3","pic_response","html-keyboard-response","17","92350","0.0-1.0-4.0-3.0-1.2","20:34:54","2","","","","","","","<div>
            <img class='stim' src=""pictures/prac/1.jpg""></div><div class=""button_prompt"">
                        <b>请用数字键1-3回答</b>
                        </div>","","","","","","","","","","","","","","","","","","",""
"539","null","sub_response","html-keyboard-response","18","93353","0.0-1.0-4.0-3.0-2.2","20:34:54","2","","","","","","","<div style='text-align: center;'>
                            <span style=""color: red; font-size: 40px""><b>错误！+0 pts</b></span></div>
                            ","","learn","1","1","1","learn","0","0","[0, 1, 2]","2","0","setsize","99","prac","0","0","2","0",""
"null","null","fixation","html-keyboard-response","19","93854","0.0-1.0-4.0-3.0-0.3","20:34:54","2","","","","","","","fixation","","","","","","","","","","","","","","","","","","",""
"583","1","pic_response","html-keyboard-response","20","94437","0.0-1.0-4.0-3.0-1.3","20:34:54","2","","","","","","","<div>
            <img class='stim' src=""pictures/prac/1.jpg""></div><div class=""button_prompt"">
                        <b>请用数字键1-3回答</b>
                        </div>","","","","","","","","","","","","","","","","","","",""
"583","null","sub_response","html-keyboard-response","21","95439","0.0-1.0-4.0-3.0-2.3","20:34:54","2","","","","","","","<div style='text-align: center;'>
                            <span style=""color: green; font-size: 40px""><b>正确！+1 pts</b></span></div>
                            ","","learn","1","1","1","learn","0","0","[0, 1, 2]","3","1","setsize","99","prac","0","1","0","1",""
"null","null","fixation","html-keyboard-response","22","95941","0.0-1.0-4.0-3.0-0.4","20:34:54","2","","","","","","","fixation","","","","","","","","","","","","","","","","","","",""
"935","1","pic_response","html-keyboard-response","23","96877","0.0-1.0-4.0-3.0-1.4","20:34:54","2","","","","","","","<div>
            <img class='stim' src=""pictures/prac/0.jpg""></div><div class=""button_prompt"">
                        <b>请用数字键1-3回答</b>
                        </div>","","","","","","","","","","","","","","","","","","",""
"935","null","sub_response","html-keyboard-response","24","97878","0.0-1.0-4.0-3.0-2.4","20:34:54","2","","","","","","","<div style='text-align: center;'>
                            <span style=""color: green; font-size: 40px""><b>正确！+1 pts</b></span></div>
                            ","","learn","0","0","0","learn","0","0","[0, 1, 2]","4","1","setsize","99","prac","0","2","0","1",""
"null","null","fixation","html-keyboard-response","25","98380","0.0-1.0-4.0-3.0-0.5","20:34:54","2","","","","","","","fixation","","","","","","","","","","","","","","","","","","",""
"754","3","pic_response","html-keyboard-response","26","99135","0.0-1.0-4.0-3.0-1.5","20:34:54","2","","","","","","","<div>
            <img class='stim' src=""pictures/prac/2.jpg""></div><div class=""button_prompt"">
                        <b>请用数字键1-3回答</b>
                        </div>","","","","","","","","","","","","","","","","","","",""
"754","null","sub_response","html-keyboard-response","27","100136","0.0-1.0-4.0-3.0-2.5","20:34:54","2","","","","","","","<div style='text-align: center;'>
                            <span style=""color: green; font-size: 40px""><b>正确！+1 pts</b></span></div>
                            ","","learn","2","2","2","learn","2","2","[0, 1, 2]","5","1","setsize","99","prac","0","3","2","1",""
"","","","preload","28","100149","0.0-1.0-4.1-0.1","20:34:54","2","true","false","[]","[]","[]","","","","","","","","","","","","","","","","","","","","",""
"673"," ","","html-keyboard-response","29","100823","0.0-1.0-4.1-1.1","20:34:54","2","","","","","","","<div style='font-size: 32px; text-align: center;'
                    <p>请学习图片和数字之间的对应关系</p>
                    <p>我们将<span style='color: blue'><b> 告诉 </b></span>您选择的对错。请根据反馈学习。</p>
                    <p>请按""空格""继续实验。</p></div>","","","","","","","","","","","","","","","","","","",""
"2366"," ","inst","html-keyboard-response","30","103190","0.0-1.0-4.1-2.1","20:34:54","2","","","","","","","<img class='instruct_stim' src=""instruction/prac3.PNG""></div>","","","","","","","","","","","","","","","","","","",""
"null","null","fixation","html-keyboard-response","31","103692","0.0-1.0-4.1-3.1-0.6","20:34:54","2","","","","","","","fixation","","","","","","","","","","","","","","","","","","",""
"920","1","pic_response","html-keyboard-response","32","104615","0.0-1.0-4.1-3.1-1.6","20:34:54","2","","","","","","","<div>
            <img class='stim' src=""pictures/prac/0.jpg""></div><div class=""button_prompt"">
                        <b>请用数字键1-3回答</b>
                        </div>","","","","","","","","","","","","","","","","","","",""
"920","null","sub_response","html-keyboard-response","33","105616","0.0-1.0-4.1-3.1-2.6","20:34:54","2","","","","","","","<div style='text-align: center;'>
                            <span style=""color: green; font-size: 40px""><b>正确！+1 pts</b></span></div>
                            ","","learn","0","0","0","learn","0","0","[0, 1, 2]","0","0","setsize","99","prac","0","4","0","1",""
"null","null","fixation","html-keyboard-response","34","106118","0.0-1.0-4.1-3.1-0.7","20:34:54","2","","","","","","","fixation","","","","","","","","","","","","","","","","","","",""
"1680","3","pic_response","html-keyboard-response","35","107798","0.0-1.0-4.1-3.1-1.7","20:34:54","2","","","","","","","<div>
            <img class='stim' src=""pictures/prac/2.jpg""></div><div class=""button_prompt"">
                        <b>请用数字键1-3回答</b>
                        </div>","","","","","","","","","","","","","","","","","","",""
"1680","null","sub_response","html-keyboard-response","36","108800","0.0-1.0-4.1-3.1-2.7","20:34:54","2","","","","","","","<div style='text-align: center;'>
                            <span style=""color: green; font-size: 40px""><b>正确！+1 pts</b></span></div>
                            ","","learn","2","2","2","learn","2","2","[0, 1, 2]","1","0","setsize","99","prac","0","5","2","1",""
"null","null","fixation","html-keyboard-response","37","109302","0.0-1.0-4.1-3.1-0.8","20:34:54","2","","","","","","","fixation","","","","","","","","","","","","","","","","","","",""
"1223","1","pic_response","html-keyboard-response","38","110527","0.0-1.0-4.1-3.1-1.8","20:34:54","2","","","","","","","<div>
            <img class='stim' src=""pictures/prac/1.jpg""></div><div class=""button_prompt"">
                        <b>请用数字键1-3回答</b>
                        </div>","","","","","","","","","","","","","","","","","","",""
"1223","null","sub_response","html-keyboard-response","39","111528","0.0-1.0-4.1-3.1-2.8","20:34:54","2","","","","","","","<div style='text-align: center;'>
                            <span style=""color: green; font-size: 40px""><b>正确！+1 pts</b></span></div>
                            ","","learn","1","1","1","learn","0","0","[0, 1, 2]","2","0","setsize","99","prac","0","6","0","1",""
"null","null","fixation","html-keyboard-response","40","112029","0.0-1.0-4.1-3.1-0.9","20:34:54","2","","","","","","","fixation","","","","","","","","","","","","","","","","","","",""
"1343","1","pic_response","html-keyboard-response","41","113373","0.0-1.0-4.1-3.1-1.9","20:34:54","2","","","","","","","<div>
            <img class='stim' src=""pictures/prac/1.jpg""></div><div class=""button_prompt"">
                        <b>请用数字键1-3回答</b>
                        </div>","","","","","","","","","","","","","","","","","","",""
"1343","null","sub_response","html-keyboard-response","42","114375","0.0-1.0-4.1-3.1-2.9","20:34:54","2","","","","","","","<div style='text-align: center;'>
                            <span style=""color: green; font-size: 40px""><b>正确！+1 pts</b></span></div>
                            ","","learn","1","1","1","learn","0","0","[0, 1, 2]","3","1","setsize","99","prac","0","7","0","1",""
"null","null","fixation","html-keyboard-response","43","114878","0.0-1.0-4.1-3.1-0.10","20:34:54","2","","","","","","","fixation","","","","","","","","","","","","","","","","","","",""
"816","1","pic_response","html-keyboard-response","44","115696","0.0-1.0-4.1-3.1-1.10","20:34:54","2","","","","","","","<div>
            <img class='stim' src=""pictures/prac/0.jpg""></div><div class=""button_prompt"">
                        <b>请用数字键1-3回答</b>
                        </div>","","","","","","","","","","","","","","","","","","",""
"816","null","sub_response","html-keyboard-response","45","116697","0.0-1.0-4.1-3.1-2.10","20:34:54","2","","","","","","","<div style='text-align: center;'>
                            <span style=""color: green; font-size: 40px""><b>正确！+1 pts</b></span></div>
                            ","","learn","0","0","0","learn","0","0","[0, 1, 2]","4","1","setsize","99","prac","0","8","0","1",""
"null","null","fixation","html-keyboard-response","46","117199","0.0-1.0-4.1-3.1-0.11","20:34:54","2","","","","","","","fixation","","","","","","","","","","","","","","","","","","",""
"704","3","pic_response","html-keyboard-response","47","117905","0.0-1.0-4.1-3.1-1.11","20:34:54","2","","","","","","","<div>
            <img class='stim' src=""pictures/prac/2.jpg""></div><div class=""button_prompt"">
                        <b>请用数字键1-3回答</b>
                        </div>","","","","","","","","","","","","","","","","","","",""
"704","null","sub_response","html-keyboard-response","48","118907","0.0-1.0-4.1-3.1-2.11","20:34:54","2","","","","","","","<div style='text-align: center;'>
                            <span style=""color: green; font-size: 40px""><b>正确！+1 pts</b></span></div>
                            ","","learn","2","2","2","learn","2","2","[0, 1, 2]","5","1","setsize","99","prac","0","9","2","1",""
"44300"," ","","html-keyboard-response","49","163210","0.0-1.0-5.0","20:34:54","2","","","","","","","<div style=""font-size: 25px""><p>距下一个实验开始还有</p><div style=""font-size: 50px; color: blue""><p><span id=""clock"">1:00</span></div></p><p>按""空格""跳过休息</p></div>","","","","","","","","","","","","","","","","","","",""
"3655"," ","","html-keyboard-response","50","166870","0.0-1.0-6.0","20:34:54","2","","","","","","","<div style='font-size: 32px; text-align: center;'
                    <p>请按""空格""继续正式实验。</p></div>","","","","","","","","","","","","","","","","","","",""
"","","","preload","51","166928","0.0-1.0-7.0-0.0","20:34:54","2","true","false","[]","[]","[]","","","","","","","","","","","","","","","","","","","","",""
"2229"," ","","html-keyboard-response","52","169158","0.0-1.0-7.0-1.0","20:34:54","2","","","","","","","<div style='font-size: 32px; text-align: center;'
                    <p>请学习图片和数字之间的对应关系</p>
                    <p>我们将<span style='color: blue'><b> 告诉 </b></span>您选择的对错。请根据反馈学习。</p>
                    <p>请按""空格""继续实验。</p></div>","","","","","","","","","","","","","","","","","","",""
"20926"," ","inst","html-keyboard-response","53","190085","0.0-1.0-7.0-2.0","20:34:54","2","","","","","","","<img class='instruct_stim' src=""instruction/furniture10.PNG""></div>","","","","","","","","","","","","","","","","","","",""
"null","null","fixation","html-keyboard-response","54","190586","0.0-1.0-7.0-3.0-0.0","20:34:54","2","","","","","","","fixation","","","","","","","","","","","","","","","","","","",""
"1654","2","pic_response","html-keyboard-response","55","192240","0.0-1.0-7.0-3.0-1.0","20:34:54","2","","","","","","","<div>
            <img class='stim' src=""pictures/furniture/5.jpg""></div><div class=""button_prompt"">
                        <b>请用数字键1-3回答</b>
                        </div>","","","","","","","","","","","","","","","","","","",""
"1654","null","sub_response","html-keyboard-response","56","193241","0.0-1.0-7.0-3.0-2.0","20:34:54","2","","","","","","","<div style='text-align: center;'>
                            <span style=""color: green; font-size: 40px""><b>正确！+1 pts</b></span></div>
                            ","","learn","5","5","5","learn","1","1","[0, 1, 2]","0","0","setsize","10S3A","furniture","1","10","1","1",""
"null","null","fixation","html-keyboard-response","57","193742","0.0-1.0-7.0-3.0-0.1","20:34:54","2","","","","","","","fixation","","","","","","","","","","","","","","","","","","",""
"976","1","pic_response","html-keyboard-response","58","194718","0.0-1.0-7.0-3.0-1.1","20:34:54","2","","","","","","","<div>
            <img class='stim' src=""pictures/furniture/4.jpg""></div><div class=""button_prompt"">
                        <b>请用数字键1-3回答</b>
                        </div>","","","","","","","","","","","","","","","","","","",""
"976","null","sub_response","html-keyboard-response","59","195720","0.0-1.0-7.0-3.0-2.1","20:34:54","2","","","","","","","<div style='text-align: center;'>
                            <span style=""color: red; font-size: 40px""><b>错误！+0 pts</b></span></div>
                            ","","learn","4","4","4","learn","1","1","[0, 1, 2]","1","0","setsize","10S3A","furniture","1","0","0","0",""
"null","null","fixation","html-keyboard-response","60","196223","0.0-1.0-7.0-3.0-0.2","20:34:54","2","","","","","","","fixation","","","","","","","","","","","","","","","","","","",""
"967","2","pic_response","html-keyboard-response","61","197192","0.0-1.0-7.0-3.0-1.2","20:34:54","2","","","","","","","<div>
            <img class='stim' src=""pictures/furniture/3.jpg""></div><div class=""button_prompt"">
                        <b>请用数字键1-3回答</b>
                        </div>","","","","","","","","","","","","","","","","","","",""
"967","null","sub_response","html-keyboard-response","62","198193","0.0-1.0-7.0-3.0-2.2","20:34:54","2","","","","","","","<div style='text-align: center;'>
                            <span style=""color: green; font-size: 40px""><b>正确！+1 pts</b></span></div>
                            ","","learn","3","3","3","learn","1","1","[0, 1, 2]","2","0","setsize","10S3A","furniture","1","1","1","1",""
"null","null","fixation","html-keyboard-response","63","198694","0.0-1.0-7.0-3.0-0.3","20:34:54","2","","","","","","","fixation","","","","","","","","","","","","","","","","","","",""
"873","3","pic_response","html-keyboard-response","64","199568","0.0-1.0-7.0-3.0-1.3","20:34:54","2","","","","","","","<div>
            <img class='stim' src=""pictures/furniture/9.jpg""></div><div class=""button_prompt"">
                        <b>请用数字键1-3回答</b>
                        </div>","","","","","","","","","","","","","","","","","","",""
"873","null","sub_response","html-keyboard-response","65","200570","0.0-1.0-7.0-3.0-2.3","20:34:54","2","","","","","","","<div style='text-align: center;'>
                            <span style=""color: green; font-size: 40px""><b>正确！+1 pts</b></span></div>
                            ","","learn","9","9","9","learn","2","2","[0, 1, 2]","3","0","setsize","10S3A","furniture","1","2","2","1",""
"null","null","fixation","html-keyboard-response","66","201072","0.0-1.0-7.0-3.0-0.4","20:34:54","2","","","","","","","fixation","","","","","","","","","","","","","","","","","","",""
"1278","3","pic_response","html-keyboard-response","67","202351","0.0-1.0-7.0-3.0-1.4","20:34:54","2","","","","","","","<div>
            <img class='stim' src=""pictures/furniture/2.jpg""></div><div class=""button_prompt"">
                        <b>请用数字键1-3回答</b>
                        </div>","","","","","","","","","","","","","","","","","","",""
"1278","null","sub_response","html-keyboard-response","68","203354","0.0-1.0-7.0-3.0-2.4","20:34:54","2","","","","","","","<div style='text-align: center;'>
                            <span style=""color: red; font-size: 40px""><b>错误！+0 pts</b></span></div>
                            ","","learn","2","2","2","learn","0","0","[0, 1, 2]","4","0","setsize","10S3A","furniture","1","0","2","0",""
"null","null","fixation","html-keyboard-response","69","203857","0.0-1.0-7.0-3.0-0.5","20:34:54","2","","","","","","","fixation","","","","","","","","","","","","","","","","","","",""
"1124","3","pic_response","html-keyboard-response","70","204982","0.0-1.0-7.0-3.0-1.5","20:34:54","2","","","","","","","<div>
            <img class='stim' src=""pictures/furniture/6.jpg""></div><div class=""button_prompt"">
                        <b>请用数字键1-3回答</b>
                        </div>","","","","","","","","","","","","","","","","","","",""
"1124","null","sub_response","html-keyboard-response","71","205985","0.0-1.0-7.0-3.0-2.5","20:34:54","2","","","","","","","<div style='text-align: center;'>
                            <span style=""color: green; font-size: 40px""><b>正确！+1 pts</b></span></div>
                            ","","learn","6","6","6","learn","2","2","[0, 1, 2]","5","0","setsize","10S3A","furniture","1","1","2","1",""
"null","null","fixation","html-keyboard-response","72","206487","0.0-1.0-7.0-3.0-0.6","20:34:54","2","","","","","","","fixation","","","","","","","","","","","","","","","","","","",""
"878","1","pic_response","html-keyboard-response","73","207366","0.0-1.0-7.0-3.0-1.6","20:34:54","2","","","","","","","<div>
            <img class='stim' src=""pictures/furniture/0.jpg""></div><div class=""button_prompt"">
                        <b>请用数字键1-3回答</b>
                        </div>","","","","","","","","","","","","","","","","","","",""
"878","null","sub_response","html-keyboard-response","74","208368","0.0-1.0-7.0-3.0-2.6","20:34:54","2","","","","","","","<div style='text-align: center;'>
                            <span style=""color: green; font-size: 40px""><b>正确！+1 pts</b></span></div>
                            ","","learn","0","0","0","learn","0","0","[0, 1, 2]","6","0","setsize","10S3A","furniture","1","2","0","1",""
"null","null","fixation","html-keyboard-response","75","208870","0.0-1.0-7.0-3.0-0.7","20:34:54","2","","","","","","","fixation","","","","","","","","","","","","","","","","","","",""
"671","3","pic_response","html-keyboard-response","76","209543","0.0-1.0-7.0-3.0-1.7","20:34:54","2","","","","","","","<div>
            <img class='stim' src=""pictures/furniture/8.jpg""></div><div class=""button_prompt"">
                        <b>请用数字键1-3回答</b>
                        </div>","","","","","","","","","","","","","","","","","","",""
"671","null","sub_response","html-keyboard-response","77","210544","0.0-1.0-7.0-3.0-2.7","20:34:54","2","","","","","","","<div style='text-align: center;'>
                            <span style=""color: green; font-size: 40px""><b>正确！+1 pts</b></span></div>
                            ","","learn","8","8","8","learn","2","2","[0, 1, 2]","7","0","setsize","10S3A","furniture","1","3","2","1",""
"null","null","fixation","html-keyboard-response","78","211046","0.0-1.0-7.0-3.0-0.8","20:34:54","2","","","","","","","fixation","","","","","","","","","","","","","","","","","","",""
"903","3","pic_response","html-keyboard-response","79","211950","0.0-1.0-7.0-3.0-1.8","20:34:54","2","","","","","","","<div>
            <img class='stim' src=""pictures/furniture/7.jpg""></div><div class=""button_prompt"">
                        <b>请用数字键1-3回答</b>
                        </div>","","","","","","","","","","","","","","","","","","",""
"903","null","sub_response","html-keyboard-response","80","212951","0.0-1.0-7.0-3.0-2.8","20:34:54","2","","","","","","","<div style='text-align: center;'>
                            <span style=""color: green; font-size: 40px""><b>正确！+1 pts</b></span></div>
                            ","","learn","7","7","7","learn","2","2","[0, 1, 2]","8","0","setsize","10S3A","furniture","1","4","2","1",""
"null","null","fixation","html-keyboard-response","81","213453","0.0-1.0-7.0-3.0-0.9","20:34:54","2","","","","","","","fixation","","","","","","","","","","","","","","","","","","",""
"840","1","pic_response","html-keyboard-response","82","214293","0.0-1.0-7.0-3.0-1.9","20:34:54","2","","","","","","","<div>
            <img class='stim' src=""pictures/furniture/1.jpg""></div><div class=""button_prompt"">
                        <b>请用数字键1-3回答</b>
                        </div>","","","","","","","","","","","","","","","","","","",""
"840","null","sub_response","html-keyboard-response","83","215295","0.0-1.0-7.0-3.0-2.9","20:34:54","2","","","","","","","<div style='text-align: center;'>
                            <span style=""color: green; font-size: 40px""><b>正确！+1 pts</b></span></div>
                            ","","learn","1","1","1","learn","0","0","[0, 1, 2]","9","0","setsize","10S3A","furniture","1","5","0","1",""
"null","null","fixation","html-keyboard-response","84","215796","0.0-1.0-7.0-3.0-0.10","20:34:54","2","","","","","","","fixation","","","","","","","","","","","","","","","","","","",""
"610","3","pic_response","html-keyboard-response","85","216407","0.0-1.0-7.0-3.0-1.10","20:34:54","2","","","","","","","<div>
            <img class='stim' src=""pictures/furniture/2.jpg""></div><div class=""button_prompt"">
                        <b>请用数字键1-3回答</b>
                        </div>","","","","","","","","","","","","","","","","","","",""
"610","null","sub_response","html-keyboard-response","86","217409","0.0-1.0-7.0-3.0-2.10","20:34:54","2","","","","","","","<div style='text-align: center;'>
                            <span style=""color: red; font-size: 40px""><b>错误！+0 pts</b></span></div>
                            ","","learn","2","2","2","learn","0","0","[0, 1, 2]","10","1","setsize","10S3A","furniture","1","0","2","0",""
"null","null","fixation","html-keyboard-response","87","217910","0.0-1.0-7.0-3.0-0.11","20:34:54","2","","","","","","","fixation","","","","","","","","","","","","","","","","","","",""
"688","2","pic_response","html-keyboard-response","88","218598","0.0-1.0-7.0-3.0-1.11","20:34:54","2","","","","","","","<div>
            <img class='stim' src=""pictures/furniture/4.jpg""></div><div class=""button_prompt"">
                        <b>请用数字键1-3回答</b>
                        </div>","","","","","","","","","","","","","","","","","","",""
"688","null","sub_response","html-keyboard-response","89","219600","0.0-1.0-7.0-3.0-2.11","20:34:54","2","","","","","","","<div style='text-align: center;'>
                            <span style=""color: green; font-size: 40px""><b>正确！+1 pts</b></span></div>
                            ","","learn","4","4","4","learn","1","1","[0, 1, 2]","11","1","setsize","10S3A","furniture","1","1","1","1",""
"null","null","fixation","html-keyboard-response","90","220103","0.0-1.0-7.0-3.0-0.12","20:34:54","2","","","","","","","fixation","","","","","","","","","","","","","","","","","","",""
"671","3","pic_response","html-keyboard-response","91","220775","0.0-1.0-7.0-3.0-1.12","20:34:54","2","","","","","","","<div>
            <img class='stim' src=""pictures/furniture/6.jpg""></div><div class=""button_prompt"">
                        <b>请用数字键1-3回答</b>
                        </div>","","","","","","","","","","","","","","","","","","",""
"671","null","sub_response","html-keyboard-response","92","221776","0.0-1.0-7.0-3.0-2.12","20:34:54","2","","","","","","","<div style='text-align: center;'>
                            <span style=""color: green; font-size: 40px""><b>正确！+1 pts</b></span></div>
                            ","","learn","6","6","6","learn","2","2","[0, 1, 2]","12","1","setsize","10S3A","furniture","1","2","2","1",""
"null","null","fixation","html-keyboard-response","93","222277","0.0-1.0-7.0-3.0-0.13","20:34:54","2","","","","","","","fixation","","","","","","","","","","","","","","","","","","",""
"967","2","pic_response","html-keyboard-response","94","223245","0.0-1.0-7.0-3.0-1.13","20:34:54","2","","","","","","","<div>
            <img class='stim' src=""pictures/furniture/3.jpg""></div><div class=""button_prompt"">
                        <b>请用数字键1-3回答</b>
                        </div>","","","","","","","","","","","","","","","","","","",""
"967","null","sub_response","html-keyboard-response","95","224246","0.0-1.0-7.0-3.0-2.13","20:34:54","2","","","","","","","<div style='text-align: center;'>
                            <span style=""color: green; font-size: 40px""><b>正确！+1 pts</b></span></div>
                            ","","learn","3","3","3","learn","1","1","[0, 1, 2]","13","1","setsize","10S3A","furniture","1","3","1","1",""
"null","null","fixation","html-keyboard-response","96","224746","0.0-1.0-7.0-3.0-0.14","20:34:54","2","","","","","","","fixation","","","","","","","","","","","","","","","","","","",""
"1307","1","pic_response","html-keyboard-response","97","226054","0.0-1.0-7.0-3.0-1.14","20:34:54","2","","","","","","","<div>
            <img class='stim' src=""pictures/furniture/1.jpg""></div><div class=""button_prompt"">
                        <b>请用数字键1-3回答</b>
                        </div>","","","","","","","","","","","","","","","","","","",""
"1307","null","sub_response","html-keyboard-response","98","227056","0.0-1.0-7.0-3.0-2.14","20:34:54","2","","","","","","","<div style='text-align: center;'>
                            <span style=""color: green; font-size: 40px""><b>正确！+1 pts</b></span></div>
                            ","","learn","1","1","1","learn","0","0","[0, 1, 2]","14","1","setsize","10S3A","furniture","1","4","0","1",""
"null","null","fixation","html-keyboard-response","99","227557","0.0-1.0-7.0-3.0-0.15","20:34:54","2","","","","","","","fixation","","","","","","","","","","","","","","","","","","",""
"1607","3","pic_response","html-keyboard-response","100","229166","0.0-1.0-7.0-3.0-1.15","20:34:54","2","","","","","","","<div>
            <img class='stim' src=""pictures/furniture/8.jpg""></div><div class=""button_prompt"">
                        <b>请用数字键1-3回答</b>
                        </div>","","","","","","","","","","","","","","","","","","",""
"1607","null","sub_response","html-keyboard-response","101","230168","0.0-1.0-7.0-3.0-2.15","20:34:54","2","","","","","","","<div style='text-align: center;'>
                            <span style=""color: green; font-size: 40px""><b>正确！+1 pts</b></span></div>
                            ","","learn","8","8","8","learn","2","2","[0, 1, 2]","15","1","setsize","10S3A","furniture","1","5","2","1",""
"null","null","fixation","html-keyboard-response","102","230669","0.0-1.0-7.0-3.0-0.16","20:34:54","2","","","","","","","fixation","","","","","","","","","","","","","","","","","","",""
"837","2","pic_response","html-keyboard-response","103","231509","0.0-1.0-7.0-3.0-1.16","20:34:54","2","","","","","","","<div>
            <img class='stim' src=""pictures/furniture/5.jpg""></div><div class=""button_prompt"">
                        <b>请用数字键1-3回答</b>
                        </div>","","","","","","","","","","","","","","","","","","",""
"837","null","sub_response","html-keyboard-response","104","232510","0.0-1.0-7.0-3.0-2.16","20:34:54","2","","","","","","","<div style='text-align: center;'>
                            <span style=""color: green; font-size: 40px""><b>正确！+1 pts</b></span></div>
                            ","","learn","5","5","5","learn","1","1","[0, 1, 2]","16","1","setsize","10S3A","furniture","1","6","1","1",""
"null","null","fixation","html-keyboard-response","105","233011","0.0-1.0-7.0-3.0-0.17","20:34:54","2","","","","","","","fixation","","","","","","","","","","","","","","","","","","",""
"1161","3","pic_response","html-keyboard-response","106","234173","0.0-1.0-7.0-3.0-1.17","20:34:54","2","","","","","","","<div>
            <img class='stim' src=""pictures/furniture/9.jpg""></div><div class=""button_prompt"">
                        <b>请用数字键1-3回答</b>
                        </div>","","","","","","","","","","","","","","","","","","",""
"1161","null","sub_response","html-keyboard-response","107","235174","0.0-1.0-7.0-3.0-2.17","20:34:54","2","","","","","","","<div style='text-align: center;'>
                            <span style=""color: green; font-size: 40px""><b>正确！+1 pts</b></span></div>
                            ","","learn","9","9","9","learn","2","2","[0, 1, 2]","17","1","setsize","10S3A","furniture","1","7","2","1",""
"null","null","fixation","html-keyboard-response","108","235675","0.0-1.0-7.0-3.0-0.18","20:34:54","2","","","","","","","fixation","","","","","","","","","","","","","","","","","","",""
"753","3","pic_response","html-keyboard-response","109","236429","0.0-1.0-7.0-3.0-1.18","20:34:54","2","","","","","","","<div>
            <img class='stim' src=""pictures/furniture/7.jpg""></div><div class=""button_prompt"">
                        <b>请用数字键1-3回答</b>
                        </div>","","","","","","","","","","","","","","","","","","",""
"753","null","sub_response","html-keyboard-response","110","237430","0.0-1.0-7.0-3.0-2.18","20:34:54","2","","","","","","","<div style='text-align: center;'>
                            <span style=""color: green; font-size: 40px""><b>正确！+1 pts</b></span></div>
                            ","","learn","7","7","7","learn","2","2","[0, 1, 2]","18","1","setsize","10S3A","furniture","1","8","2","1",""
"null","null","fixation","html-keyboard-response","111","237932","0.0-1.0-7.0-3.0-0.19","20:34:54","2","","","","","","","fixation","","","","","","","","","","","","","","","","","","",""
"841","1","pic_response","html-keyboard-response","112","238774","0.0-1.0-7.0-3.0-1.19","20:34:54","2","","","","","","","<div>
            <img class='stim' src=""pictures/furniture/0.jpg""></div><div class=""button_prompt"">
                        <b>请用数字键1-3回答</b>
                        </div>","","","","","","","","","","","","","","","","","","",""
"841","null","sub_response","html-keyboard-response","113","239775","0.0-1.0-7.0-3.0-2.19","20:34:54","2","","","","","","","<div style='text-align: center;'>
                            <span style=""color: green; font-size: 40px""><b>正确！+1 pts</b></span></div>
                            ","","learn","0","0","0","learn","0","0","[0, 1, 2]","19","1","setsize","10S3A","furniture","1","9","0","1",""
"null","null","fixation","html-keyboard-response","114","240277","0.0-1.0-7.0-3.0-0.20","20:34:54","2","","","","","","","fixation","","","","","","","","","","","","","","","","","","",""
"671","2","pic_response","html-keyboard-response","115","240949","0.0-1.0-7.0-3.0-1.20","20:34:54","2","","","","","","","<div>
            <img class='stim' src=""pictures/furniture/3.jpg""></div><div class=""button_prompt"">
                        <b>请用数字键1-3回答</b>
                        </div>","","","","","","","","","","","","","","","","","","",""
"671","null","sub_response","html-keyboard-response","116","241951","0.0-1.0-7.0-3.0-2.20","20:34:54","2","","","","","","","<div style='text-align: center;'>
                            <span style=""color: green; font-size: 40px""><b>正确！+1 pts</b></span></div>
                            ","","learn","3","3","3","learn","1","1","[0, 1, 2]","20","2","setsize","10S3A","furniture","1","10","1","1",""
"null","null","fixation","html-keyboard-response","117","242453","0.0-1.0-7.0-3.0-0.21","20:34:54","2","","","","","","","fixation","","","","","","","","","","","","","","","","","","",""
"1664","1","pic_response","html-keyboard-response","118","244117","0.0-1.0-7.0-3.0-1.21","20:34:54","2","","","","","","","<div>
            <img class='stim' src=""pictures/furniture/0.jpg""></div><div class=""button_prompt"">
                        <b>请用数字键1-3回答</b>
                        </div>","","","","","","","","","","","","","","","","","","",""
"1664","null","sub_response","html-keyboard-response","119","245118","0.0-1.0-7.0-3.0-2.21","20:34:54","2","","","","","","","<div style='text-align: center;'>
                            <span style=""color: green; font-size: 40px""><b>正确！+1 pts</b></span></div>
                            ","","learn","0","0","0","learn","0","0","[0, 1, 2]","21","2","setsize","10S3A","furniture","1","11","0","1",""
"null","null","fixation","html-keyboard-response","120","245619","0.0-1.0-7.0-3.0-0.22","20:34:54","2","","","","","","","fixation","","","","","","","","","","","","","","","","","","",""
"931","2","pic_response","html-keyboard-response","121","246551","0.0-1.0-7.0-3.0-1.22","20:34:54","2","","","","","","","<div>
            <img class='stim' src=""pictures/furniture/4.jpg""></div><div class=""button_prompt"">
                        <b>请用数字键1-3回答</b>
                        </div>","","","","","","","","","","","","","","","","","","",""
"931","null","sub_response","html-keyboard-response","122","247553","0.0-1.0-7.0-3.0-2.22","20:34:54","2","","","","","","","<div style='text-align: center;'>
                            <span style=""color: green; font-size: 40px""><b>正确！+1 pts</b></span></div>
                            ","","learn","4","4","4","learn","1","1","[0, 1, 2]","22","2","setsize","10S3A","furniture","1","12","1","1",""
"null","null","fixation","html-keyboard-response","123","248057","0.0-1.0-7.0-3.0-0.23","20:34:54","2","","","","","","","fixation","","","","","","","","","","","","","","","","","","",""
"589","3","pic_response","html-keyboard-response","124","248647","0.0-1.0-7.0-3.0-1.23","20:34:54","2","","","","","","","<div>
            <img class='stim' src=""pictures/furniture/8.jpg""></div><div class=""button_prompt"">
                        <b>请用数字键1-3回答</b>
                        </div>","","","","","","","","","","","","","","","","","","",""
"589","null","sub_response","html-keyboard-response","125","249649","0.0-1.0-7.0-3.0-2.23","20:34:54","2","","","","","","","<div style='text-align: center;'>
                            <span style=""color: green; font-size: 40px""><b>正确！+1 pts</b></span></div>
                            ","","learn","8","8","8","learn","2","2","[0, 1, 2]","23","2","setsize","10S3A","furniture","1","13","2","1",""
"null","null","fixation","html-keyboard-response","126","250150","0.0-1.0-7.0-3.0-0.24","20:34:54","2","","","","","","","fixation","","","","","","","","","","","","","","","","","","",""
"535","3","pic_response","html-keyboard-response","127","250686","0.0-1.0-7.0-3.0-1.24","20:34:54","2","","","","","","","<div>
            <img class='stim' src=""pictures/furniture/7.jpg""></div><div class=""button_prompt"">
                        <b>请用数字键1-3回答</b>
                        </div>","","","","","","","","","","","","","","","","","","",""
"535","null","sub_response","html-keyboard-response","128","251689","0.0-1.0-7.0-3.0-2.24","20:34:54","2","","","","","","","<div style='text-align: center;'>
                            <span style=""color: green; font-size: 40px""><b>正确！+1 pts</b></span></div>
                            ","","learn","7","7","7","learn","2","2","[0, 1, 2]","24","2","setsize","10S3A","furniture","1","14","2","1",""
"null","null","fixation","html-keyboard-response","129","252191","0.0-1.0-7.0-3.0-0.25","20:34:54","2","","","","","","","fixation","","","","","","","","","","","","","","","","","","",""
"982","2","pic_response","html-keyboard-response","130","253175","0.0-1.0-7.0-3.0-1.25","20:34:54","2","","","","","","","<div>
            <img class='stim' src=""pictures/furniture/5.jpg""></div><div class=""button_prompt"">
                        <b>请用数字键1-3回答</b>
                        </div>","","","","","","","","","","","","","","","","","","",""
"982","null","sub_response","html-keyboard-response","131","254175","0.0-1.0-7.0-3.0-2.25","20:34:54","2","","","","","","","<div style='text-align: center;'>
                            <span style=""color: green; font-size: 40px""><b>正确！+1 pts</b></span></div>
                            ","","learn","5","5","5","learn","1","1","[0, 1, 2]","25","2","setsize","10S3A","furniture","1","15","1","1",""
"null","null","fixation","html-keyboard-response","132","254677","0.0-1.0-7.0-3.0-0.26","20:34:54","2","","","","","","","fixation","","","","","","","","","","","","","","","","","","",""
"975","1","pic_response","html-keyboard-response","133","255654","0.0-1.0-7.0-3.0-1.26","20:34:54","2","","","","","","","<div>
            <img class='stim' src=""pictures/furniture/1.jpg""></div><div class=""button_prompt"">
                        <b>请用数字键1-3回答</b>
                        </div>","","","","","","","","","","","","","","","","","","",""
"975","null","sub_response","html-keyboard-response","134","256654","0.0-1.0-7.0-3.0-2.26","20:34:54","2","","","","","","","<div style='text-align: center;'>
                            <span style=""color: green; font-size: 40px""><b>正确！+1 pts</b></span></div>
                            ","","learn","1","1","1","learn","0","0","[0, 1, 2]","26","2","setsize","10S3A","furniture","1","16","0","1",""
"null","null","fixation","html-keyboard-response","135","257155","0.0-1.0-7.0-3.0-0.27","20:34:54","2","","","","","","","fixation","","","","","","","","","","","","","","","","","","",""
"753","3","pic_response","html-keyboard-response","136","257910","0.0-1.0-7.0-3.0-1.27","20:34:54","2","","","","","","","<div>
            <img class='stim' src=""pictures/furniture/9.jpg""></div><div class=""button_prompt"">
                        <b>请用数字键1-3回答</b>
                        </div>","","","","","","","","","","","","","","","","","","",""
"753","null","sub_response","html-keyboard-response","137","258912","0.0-1.0-7.0-3.0-2.27","20:34:54","2","","","","","","","<div style='text-align: center;'>
                            <span style=""color: green; font-size: 40px""><b>正确！+1 pts</b></span></div>
                            ","","learn","9","9","9","learn","2","2","[0, 1, 2]","27","2","setsize","10S3A","furniture","1","17","2","1",""
"null","null","fixation","html-keyboard-response","138","259414","0.0-1.0-7.0-3.0-0.28","20:34:54","2","","","","","","","fixation","","","","","","","","","","","","","","","","","","",""
"614","3","pic_response","html-keyboard-response","139","260029","0.0-1.0-7.0-3.0-1.28","20:34:54","2","","","","","","","<div>
            <img class='stim' src=""pictures/furniture/6.jpg""></div><div class=""button_prompt"">
                        <b>请用数字键1-3回答</b>
                        </div>","","","","","","","","","","","","","","","","","","",""
"614","null","sub_response","html-keyboard-response","140","261030","0.0-1.0-7.0-3.0-2.28","20:34:54","2","","","","","","","<div style='text-align: center;'>
                            <span style=""color: green; font-size: 40px""><b>正确！+1 pts</b></span></div>
                            ","","learn","6","6","6","learn","2","2","[0, 1, 2]","28","2","setsize","10S3A","furniture","1","18","2","1",""
"null","null","fixation","html-keyboard-response","141","261531","0.0-1.0-7.0-3.0-0.29","20:34:54","2","","","","","","","fixation","","","","","","","","","","","","","","","","","","",""
"1856","3","pic_response","html-keyboard-response","142","263389","0.0-1.0-7.0-3.0-1.29","20:34:54","2","","","","","","","<div>
            <img class='stim' src=""pictures/furniture/2.jpg""></div><div class=""button_prompt"">
                        <b>请用数字键1-3回答</b>
                        </div>","","","","","","","","","","","","","","","","","","",""
"1856","null","sub_response","html-keyboard-response","143","264389","0.0-1.0-7.0-3.0-2.29","20:34:54","2","","","","","","","<div style='text-align: center;'>
                            <span style=""color: red; font-size: 40px""><b>错误！+0 pts</b></span></div>
                            ","","learn","2","2","2","learn","0","0","[0, 1, 2]","29","2","setsize","10S3A","furniture","1","0","2","0",""
"null","null","fixation","html-keyboard-response","144","264890","0.0-1.0-7.0-3.0-0.30","20:34:54","2","","","","","","","fixation","","","","","","","","","","","","","","","","","","",""
"939","3","pic_response","html-keyboard-response","145","265829","0.0-1.0-7.0-3.0-1.30","20:34:54","2","","","","","","","<div>
            <img class='stim' src=""pictures/furniture/6.jpg""></div><div class=""button_prompt"">
                        <b>请用数字键1-3回答</b>
                        </div>","","","","","","","","","","","","","","","","","","",""
"939","null","sub_response","html-keyboard-response","146","266830","0.0-1.0-7.0-3.0-2.30","20:34:54","2","","","","","","","<div style='text-align: center;'>
                            <span style=""color: green; font-size: 40px""><b>正确！+1 pts</b></span></div>
                            ","","learn","6","6","6","learn","2","2","[0, 1, 2]","30","3","setsize","10S3A","furniture","1","1","2","1",""
"null","null","fixation","html-keyboard-response","147","267332","0.0-1.0-7.0-3.0-0.31","20:34:54","2","","","","","","","fixation","","","","","","","","","","","","","","","","","","",""
"1227","3","pic_response","html-keyboard-response","148","268560","0.0-1.0-7.0-3.0-1.31","20:34:54","2","","","","","","","<div>
            <img class='stim' src=""pictures/furniture/7.jpg""></div><div class=""button_prompt"">
                        <b>请用数字键1-3回答</b>
                        </div>","","","","","","","","","","","","","","","","","","",""
"1227","null","sub_response","html-keyboard-response","149","269561","0.0-1.0-7.0-3.0-2.31","20:34:54","2","","","","","","","<div style='text-align: center;'>
                            <span style=""color: green; font-size: 40px""><b>正确！+1 pts</b></span></div>
                            ","","learn","7","7","7","learn","2","2","[0, 1, 2]","31","3","setsize","10S3A","furniture","1","2","2","1",""
"null","null","fixation","html-keyboard-response","150","270063","0.0-1.0-7.0-3.0-0.32","20:34:54","2","","","","","","","fixation","","","","","","","","","","","","","","","","","","",""
"1181","3","pic_response","html-keyboard-response","151","271245","0.0-1.0-7.0-3.0-1.32","20:34:54","2","","","","","","","<div>
            <img class='stim' src=""pictures/furniture/8.jpg""></div><div class=""button_prompt"">
                        <b>请用数字键1-3回答</b>
                        </div>","","","","","","","","","","","","","","","","","","",""
"1181","null","sub_response","html-keyboard-response","152","272246","0.0-1.0-7.0-3.0-2.32","20:34:54","2","","","","","","","<div style='text-align: center;'>
                            <span style=""color: green; font-size: 40px""><b>正确！+1 pts</b></span></div>
                            ","","learn","8","8","8","learn","2","2","[0, 1, 2]","32","3","setsize","10S3A","furniture","1","3","2","1",""
"null","null","fixation","html-keyboard-response","153","272748","0.0-1.0-7.0-3.0-0.33","20:34:54","2","","","","","","","fixation","","","","","","","","","","","","","","","","","","",""
"1128","2","pic_response","html-keyboard-response","154","273877","0.0-1.0-7.0-3.0-1.33","20:34:54","2","","","","","","","<div>
            <img class='stim' src=""pictures/furniture/5.jpg""></div><div class=""button_prompt"">
                        <b>请用数字键1-3回答</b>
                        </div>","","","","","","","","","","","","","","","","","","",""
"1128","null","sub_response","html-keyboard-response","155","274879","0.0-1.0-7.0-3.0-2.33","20:34:54","2","","","","","","","<div style='text-align: center;'>
                            <span style=""color: green; font-size: 40px""><b>正确！+1 pts</b></span></div>
                            ","","learn","5","5","5","learn","1","1","[0, 1, 2]","33","3","setsize","10S3A","furniture","1","4","1","1",""
"null","null","fixation","html-keyboard-response","156","275380","0.0-1.0-7.0-3.0-0.34","20:34:54","2","","","","","","","fixation","","","","","","","","","","","","","","","","","","",""
"1025","2","pic_response","html-keyboard-response","157","276405","0.0-1.0-7.0-3.0-1.34","20:34:54","2","","","","","","","<div>
            <img class='stim' src=""pictures/furniture/3.jpg""></div><div class=""button_prompt"">
                        <b>请用数字键1-3回答</b>
                        </div>","","","","","","","","","","","","","","","","","","",""
"1025","null","sub_response","html-keyboard-response","158","277406","0.0-1.0-7.0-3.0-2.34","20:34:54","2","","","","","","","<div style='text-align: center;'>
                            <span style=""color: green; font-size: 40px""><b>正确！+1 pts</b></span></div>
                            ","","learn","3","3","3","learn","1","1","[0, 1, 2]","34","3","setsize","10S3A","furniture","1","5","1","1",""
"null","null","fixation","html-keyboard-response","159","277908","0.0-1.0-7.0-3.0-0.35","20:34:54","2","","","","","","","fixation","","","","","","","","","","","","","","","","","","",""
"648","3","pic_response","html-keyboard-response","160","278557","0.0-1.0-7.0-3.0-1.35","20:34:54","2","","","","","","","<div>
            <img class='stim' src=""pictures/furniture/2.jpg""></div><div class=""button_prompt"">
                        <b>请用数字键1-3回答</b>
                        </div>","","","","","","","","","","","","","","","","","","",""
"648","null","sub_response","html-keyboard-response","161","279558","0.0-1.0-7.0-3.0-2.35","20:34:54","2","","","","","","","<div style='text-align: center;'>
                            <span style=""color: red; font-size: 40px""><b>错误！+0 pts</b></span></div>
                            ","","learn","2","2","2","learn","0","0","[0, 1, 2]","35","3","setsize","10S3A","furniture","1","0","2","0",""
"null","null","fixation","html-keyboard-response","162","280060","0.0-1.0-7.0-3.0-0.36","20:34:54","2","","","","","","","fixation","","","","","","","","","","","","","","","","","","",""
"752","1","pic_response","html-keyboard-response","163","280813","0.0-1.0-7.0-3.0-1.36","20:34:54","2","","","","","","","<div>
            <img class='stim' src=""pictures/furniture/1.jpg""></div><div class=""button_prompt"">
                        <b>请用数字键1-3回答</b>
                        </div>","","","","","","","","","","","","","","","","","","",""
"752","null","sub_response","html-keyboard-response","164","281813","0.0-1.0-7.0-3.0-2.36","20:34:54","2","","","","","","","<div style='text-align: center;'>
                            <span style=""color: green; font-size: 40px""><b>正确！+1 pts</b></span></div>
                            ","","learn","1","1","1","learn","0","0","[0, 1, 2]","36","3","setsize","10S3A","furniture","1","1","0","1",""
"null","null","fixation","html-keyboard-response","165","282317","0.0-1.0-7.0-3.0-0.37","20:34:54","2","","","","","","","fixation","","","","","","","","","","","","","","","","","","",""
"863","2","pic_response","html-keyboard-response","166","283181","0.0-1.0-7.0-3.0-1.37","20:34:54","2","","","","","","","<div>
            <img class='stim' src=""pictures/furniture/4.jpg""></div><div class=""button_prompt"">
                        <b>请用数字键1-3回答</b>
                        </div>","","","","","","","","","","","","","","","","","","",""
"863","null","sub_response","html-keyboard-response","167","284182","0.0-1.0-7.0-3.0-2.37","20:34:54","2","","","","","","","<div style='text-align: center;'>
                            <span style=""color: green; font-size: 40px""><b>正确！+1 pts</b></span></div>
                            ","","learn","4","4","4","learn","1","1","[0, 1, 2]","37","3","setsize","10S3A","furniture","1","2","1","1",""
"null","null","fixation","html-keyboard-response","168","284684","0.0-1.0-7.0-3.0-0.38","20:34:54","2","","","","","","","fixation","","","","","","","","","","","","","","","","","","",""
"969","1","pic_response","html-keyboard-response","169","285654","0.0-1.0-7.0-3.0-1.38","20:34:54","2","","","","","","","<div>
            <img class='stim' src=""pictures/furniture/0.jpg""></div><div class=""button_prompt"">
                        <b>请用数字键1-3回答</b>
                        </div>","","","","","","","","","","","","","","","","","","",""
"969","null","sub_response","html-keyboard-response","170","286655","0.0-1.0-7.0-3.0-2.38","20:34:54","2","","","","","","","<div style='text-align: center;'>
                            <span style=""color: green; font-size: 40px""><b>正确！+1 pts</b></span></div>
                            ","","learn","0","0","0","learn","0","0","[0, 1, 2]","38","3","setsize","10S3A","furniture","1","3","0","1",""
"null","null","fixation","html-keyboard-response","171","287157","0.0-1.0-7.0-3.0-0.39","20:34:54","2","","","","","","","fixation","","","","","","","","","","","","","","","","","","",""
"647","3","pic_response","html-keyboard-response","172","287805","0.0-1.0-7.0-3.0-1.39","20:34:54","2","","","","","","","<div>
            <img class='stim' src=""pictures/furniture/9.jpg""></div><div class=""button_prompt"">
                        <b>请用数字键1-3回答</b>
                        </div>","","","","","","","","","","","","","","","","","","",""
"647","null","sub_response","html-keyboard-response","173","288806","0.0-1.0-7.0-3.0-2.39","20:34:54","2","","","","","","","<div style='text-align: center;'>
                            <span style=""color: green; font-size: 40px""><b>正确！+1 pts</b></span></div>
                            ","","learn","9","9","9","learn","2","2","[0, 1, 2]","39","3","setsize","10S3A","furniture","1","4","2","1",""
"null","null","fixation","html-keyboard-response","174","289307","0.0-1.0-7.0-3.0-0.40","20:34:54","2","","","","","","","fixation","","","","","","","","","","","","","","","","","","",""
"705","3","pic_response","html-keyboard-response","175","290014","0.0-1.0-7.0-3.0-1.40","20:34:54","2","","","","","","","<div>
            <img class='stim' src=""pictures/furniture/2.jpg""></div><div class=""button_prompt"">
                        <b>请用数字键1-3回答</b>
                        </div>","","","","","","","","","","","","","","","","","","",""
"705","null","sub_response","html-keyboard-response","176","291016","0.0-1.0-7.0-3.0-2.40","20:34:54","2","","","","","","","<div style='text-align: center;'>
                            <span style=""color: red; font-size: 40px""><b>错误！+0 pts</b></span></div>
                            ","","learn","2","2","2","learn","0","0","[0, 1, 2]","40","4","setsize","10S3A","furniture","1","0","2","0",""
"null","null","fixation","html-keyboard-response","177","291517","0.0-1.0-7.0-3.0-0.41","20:34:54","2","","","","","","","fixation","","","","","","","","","","","","","","","","","","",""
"815","1","pic_response","html-keyboard-response","178","292333","0.0-1.0-7.0-3.0-1.41","20:34:54","2","","","","","","","<div>
            <img class='stim' src=""pictures/furniture/0.jpg""></div><div class=""button_prompt"">
                        <b>请用数字键1-3回答</b>
                        </div>","","","","","","","","","","","","","","","","","","",""
"815","null","sub_response","html-keyboard-response","179","293337","0.0-1.0-7.0-3.0-2.41","20:34:54","2","","","","","","","<div style='text-align: center;'>
                            <span style=""color: green; font-size: 40px""><b>正确！+1 pts</b></span></div>
                            ","","learn","0","0","0","learn","0","0","[0, 1, 2]","41","4","setsize","10S3A","furniture","1","1","0","1",""
"null","null","fixation","html-keyboard-response","180","293839","0.0-1.0-7.0-3.0-0.42","20:34:54","2","","","","","","","fixation","","","","","","","","","","","","","","","","","","",""
"893","3","pic_response","html-keyboard-response","181","294733","0.0-1.0-7.0-3.0-1.42","20:34:54","2","","","","","","","<div>
            <img class='stim' src=""pictures/furniture/6.jpg""></div><div class=""button_prompt"">
                        <b>请用数字键1-3回答</b>
                        </div>","","","","","","","","","","","","","","","","","","",""
"893","null","sub_response","html-keyboard-response","182","295735","0.0-1.0-7.0-3.0-2.42","20:34:54","2","","","","","","","<div style='text-align: center;'>
                            <span style=""color: green; font-size: 40px""><b>正确！+1 pts</b></span></div>
                            ","","learn","6","6","6","learn","2","2","[0, 1, 2]","42","4","setsize","10S3A","furniture","1","2","2","1",""
"null","null","fixation","html-keyboard-response","183","296238","0.0-1.0-7.0-3.0-0.43","20:34:54","2","","","","","","","fixation","","","","","","","","","","","","","","","","","","",""
"806","3","pic_response","html-keyboard-response","184","297045","0.0-1.0-7.0-3.0-1.43","20:34:54","2","","","","","","","<div>
            <img class='stim' src=""pictures/furniture/8.jpg""></div><div class=""button_prompt"">
                        <b>请用数字键1-3回答</b>
                        </div>","","","","","","","","","","","","","","","","","","",""
"806","null","sub_response","html-keyboard-response","185","298047","0.0-1.0-7.0-3.0-2.43","20:34:54","2","","","","","","","<div style='text-align: center;'>
                            <span style=""color: green; font-size: 40px""><b>正确！+1 pts</b></span></div>
                            ","","learn","8","8","8","learn","2","2","[0, 1, 2]","43","4","setsize","10S3A","furniture","1","3","2","1",""
"null","null","fixation","html-keyboard-response","186","298548","0.0-1.0-7.0-3.0-0.44","20:34:54","2","","","","","","","fixation","","","","","","","","","","","","","","","","","","",""
"1289","3","pic_response","html-keyboard-response","187","299838","0.0-1.0-7.0-3.0-1.44","20:34:54","2","","","","","","","<div>
            <img class='stim' src=""pictures/furniture/9.jpg""></div><div class=""button_prompt"">
                        <b>请用数字键1-3回答</b>
                        </div>","","","","","","","","","","","","","","","","","","",""
"1289","null","sub_response","html-keyboard-response","188","300839","0.0-1.0-7.0-3.0-2.44","20:34:54","2","","","","","","","<div style='text-align: center;'>
                            <span style=""color: green; font-size: 40px""><b>正确！+1 pts</b></span></div>
                            ","","learn","9","9","9","learn","2","2","[0, 1, 2]","44","4","setsize","10S3A","furniture","1","4","2","1",""
"null","null","fixation","html-keyboard-response","189","301340","0.0-1.0-7.0-3.0-0.45","20:34:54","2","","","","","","","fixation","","","","","","","","","","","","","","","","","","",""
"1176","3","pic_response","html-keyboard-response","190","302518","0.0-1.0-7.0-3.0-1.45","20:34:54","2","","","","","","","<div>
            <img class='stim' src=""pictures/furniture/7.jpg""></div><div class=""button_prompt"">
                        <b>请用数字键1-3回答</b>
                        </div>","","","","","","","","","","","","","","","","","","",""
"1176","null","sub_response","html-keyboard-response","191","303521","0.0-1.0-7.0-3.0-2.45","20:34:54","2","","","","","","","<div style='text-align: center;'>
                            <span style=""color: green; font-size: 40px""><b>正确！+1 pts</b></span></div>
                            ","","learn","7","7","7","learn","2","2","[0, 1, 2]","45","4","setsize","10S3A","furniture","1","5","2","1",""
"null","null","fixation","html-keyboard-response","192","304022","0.0-1.0-7.0-3.0-0.46","20:34:54","2","","","","","","","fixation","","","","","","","","","","","","","","","","","","",""
"644","2","pic_response","html-keyboard-response","193","304669","0.0-1.0-7.0-3.0-1.46","20:34:54","2","","","","","","","<div>
            <img class='stim' src=""pictures/furniture/4.jpg""></div><div class=""button_prompt"">
                        <b>请用数字键1-3回答</b>
                        </div>","","","","","","","","","","","","","","","","","","",""
"644","null","sub_response","html-keyboard-response","194","305671","0.0-1.0-7.0-3.0-2.46","20:34:54","2","","","","","","","<div style='text-align: center;'>
                            <span style=""color: green; font-size: 40px""><b>正确！+1 pts</b></span></div>
                            ","","learn","4","4","4","learn","1","1","[0, 1, 2]","46","4","setsize","10S3A","furniture","1","6","1","1",""
"null","null","fixation","html-keyboard-response","195","306172","0.0-1.0-7.0-3.0-0.47","20:34:54","2","","","","","","","fixation","","","","","","","","","","","","","","","","","","",""
"729","2","pic_response","html-keyboard-response","196","306902","0.0-1.0-7.0-3.0-1.47","20:34:54","2","","","","","","","<div>
            <img class='stim' src=""pictures/furniture/5.jpg""></div><div class=""button_prompt"">
                        <b>请用数字键1-3回答</b>
                        </div>","","","","","","","","","","","","","","","","","","",""
"729","null","sub_response","html-keyboard-response","197","307904","0.0-1.0-7.0-3.0-2.47","20:34:54","2","","","","","","","<div style='text-align: center;'>
                            <span style=""color: green; font-size: 40px""><b>正确！+1 pts</b></span></div>
                            ","","learn","5","5","5","learn","1","1","[0, 1, 2]","47","4","setsize","10S3A","furniture","1","7","1","1",""
"null","null","fixation","html-keyboard-response","198","308406","0.0-1.0-7.0-3.0-0.48","20:34:54","2","","","","","","","fixation","","","","","","","","","","","","","","","","","","",""
"783","1","pic_response","html-keyboard-response","199","309189","0.0-1.0-7.0-3.0-1.48","20:34:54","2","","","","","","","<div>
            <img class='stim' src=""pictures/furniture/1.jpg""></div><div class=""button_prompt"">
                        <b>请用数字键1-3回答</b>
                        </div>","","","","","","","","","","","","","","","","","","",""
"783","null","sub_response","html-keyboard-response","200","310191","0.0-1.0-7.0-3.0-2.48","20:34:54","2","","","","","","","<div style='text-align: center;'>
                            <span style=""color: green; font-size: 40px""><b>正确！+1 pts</b></span></div>
                            ","","learn","1","1","1","learn","0","0","[0, 1, 2]","48","4","setsize","10S3A","furniture","1","8","0","1",""
"null","null","fixation","html-keyboard-response","201","310692","0.0-1.0-7.0-3.0-0.49","20:34:54","2","","","","","","","fixation","","","","","","","","","","","","","","","","","","",""
"808","2","pic_response","html-keyboard-response","202","311502","0.0-1.0-7.0-3.0-1.49","20:34:54","2","","","","","","","<div>
            <img class='stim' src=""pictures/furniture/3.jpg""></div><div class=""button_prompt"">
                        <b>请用数字键1-3回答</b>
                        </div>","","","","","","","","","","","","","","","","","","",""
"808","null","sub_response","html-keyboard-response","203","312504","0.0-1.0-7.0-3.0-2.49","20:34:54","2","","","","","","","<div style='text-align: center;'>
                            <span style=""color: green; font-size: 40px""><b>正确！+1 pts</b></span></div>
                            ","","learn","3","3","3","learn","1","1","[0, 1, 2]","49","4","setsize","10S3A","furniture","1","9","1","1",""
"null","null","fixation","html-keyboard-response","204","313006","0.0-1.0-7.0-3.0-0.50","20:34:54","2","","","","","","","fixation","","","","","","","","","","","","","","","","","","",""
"886","2","pic_response","html-keyboard-response","205","313893","0.0-1.0-7.0-3.0-1.50","20:34:54","2","","","","","","","<div>
            <img class='stim' src=""pictures/furniture/4.jpg""></div><div class=""button_prompt"">
                        <b>请用数字键1-3回答</b>
                        </div>","","","","","","","","","","","","","","","","","","",""
"886","null","sub_response","html-keyboard-response","206","314894","0.0-1.0-7.0-3.0-2.50","20:34:54","2","","","","","","","<div style='text-align: center;'>
                            <span style=""color: green; font-size: 40px""><b>正确！+1 pts</b></span></div>
                            ","","learn","4","4","4","learn","1","1","[0, 1, 2]","50","5","setsize","10S3A","furniture","1","10","1","1",""
"null","null","fixation","html-keyboard-response","207","315396","0.0-1.0-7.0-3.0-0.51","20:34:54","2","","","","","","","fixation","","","","","","","","","","","","","","","","","","",""
"1663","3","pic_response","html-keyboard-response","208","317062","0.0-1.0-7.0-3.0-1.51","20:34:54","2","","","","","","","<div>
            <img class='stim' src=""pictures/furniture/2.jpg""></div><div class=""button_prompt"">
                        <b>请用数字键1-3回答</b>
                        </div>","","","","","","","","","","","","","","","","","","",""
"1663","null","sub_response","html-keyboard-response","209","318063","0.0-1.0-7.0-3.0-2.51","20:34:54","2","","","","","","","<div style='text-align: center;'>
                            <span style=""color: red; font-size: 40px""><b>错误！+0 pts</b></span></div>
                            ","","learn","2","2","2","learn","0","0","[0, 1, 2]","51","5","setsize","10S3A","furniture","1","0","2","0",""
"null","null","fixation","html-keyboard-response","210","318564","0.0-1.0-7.0-3.0-0.52","20:34:54","2","","","","","","","fixation","","","","","","","","","","","","","","","","","","",""
"1216","3","pic_response","html-keyboard-response","211","319782","0.0-1.0-7.0-3.0-1.52","20:34:54","2","","","","","","","<div>
            <img class='stim' src=""pictures/furniture/8.jpg""></div><div class=""button_prompt"">
                        <b>请用数字键1-3回答</b>
                        </div>","","","","","","","","","","","","","","","","","","",""
"1216","null","sub_response","html-keyboard-response","212","320784","0.0-1.0-7.0-3.0-2.52","20:34:54","2","","","","","","","<div style='text-align: center;'>
                            <span style=""color: green; font-size: 40px""><b>正确！+1 pts</b></span></div>
                            ","","learn","8","8","8","learn","2","2","[0, 1, 2]","52","5","setsize","10S3A","furniture","1","1","2","1",""
"null","null","fixation","html-keyboard-response","213","321287","0.0-1.0-7.0-3.0-0.53","20:34:54","2","","","","","","","fixation","","","","","","","","","","","","","","","","","","",""
"784","1","pic_response","html-keyboard-response","214","322072","0.0-1.0-7.0-3.0-1.53","20:34:54","2","","","","","","","<div>
            <img class='stim' src=""pictures/furniture/0.jpg""></div><div class=""button_prompt"">
                        <b>请用数字键1-3回答</b>
                        </div>","","","","","","","","","","","","","","","","","","",""
"784","null","sub_response","html-keyboard-response","215","323074","0.0-1.0-7.0-3.0-2.53","20:34:54","2","","","","","","","<div style='text-align: center;'>
                            <span style=""color: green; font-size: 40px""><b>正确！+1 pts</b></span></div>
                            ","","learn","0","0","0","learn","0","0","[0, 1, 2]","53","5","setsize","10S3A","furniture","1","2","0","1",""
"null","null","fixation","html-keyboard-response","216","323576","0.0-1.0-7.0-3.0-0.54","20:34:54","2","","","","","","","fixation","","","","","","","","","","","","","","","","","","",""
"981","3","pic_response","html-keyboard-response","217","324558","0.0-1.0-7.0-3.0-1.54","20:34:54","2","","","","","","","<div>
            <img class='stim' src=""pictures/furniture/6.jpg""></div><div class=""button_prompt"">
                        <b>请用数字键1-3回答</b>
                        </div>","","","","","","","","","","","","","","","","","","",""
"981","null","sub_response","html-keyboard-response","218","325558","0.0-1.0-7.0-3.0-2.54","20:34:54","2","","","","","","","<div style='text-align: center;'>
                            <span style=""color: green; font-size: 40px""><b>正确！+1 pts</b></span></div>
                            ","","learn","6","6","6","learn","2","2","[0, 1, 2]","54","5","setsize","10S3A","furniture","1","3","2","1",""
"null","null","fixation","html-keyboard-response","219","326059","0.0-1.0-7.0-3.0-0.55","20:34:54","2","","","","","","","fixation","","","","","","","","","","","","","","","","","","",""
"881","3","pic_response","html-keyboard-response","220","326941","0.0-1.0-7.0-3.0-1.55","20:34:54","2","","","","","","","<div>
            <img class='stim' src=""pictures/furniture/9.jpg""></div><div class=""button_prompt"">
                        <b>请用数字键1-3回答</b>
                        </div>","","","","","","","","","","","","","","","","","","",""
"881","null","sub_response","html-keyboard-response","221","327942","0.0-1.0-7.0-3.0-2.55","20:34:54","2","","","","","","","<div style='text-align: center;'>
                            <span style=""color: green; font-size: 40px""><b>正确！+1 pts</b></span></div>
                            ","","learn","9","9","9","learn","2","2","[0, 1, 2]","55","5","setsize","10S3A","furniture","1","4","2","1",""
"null","null","fixation","html-keyboard-response","222","328444","0.0-1.0-7.0-3.0-0.56","20:34:54","2","","","","","","","fixation","","","","","","","","","","","","","","","","","","",""
"768","1","pic_response","html-keyboard-response","223","329213","0.0-1.0-7.0-3.0-1.56","20:34:54","2","","","","","","","<div>
            <img class='stim' src=""pictures/furniture/1.jpg""></div><div class=""button_prompt"">
                        <b>请用数字键1-3回答</b>
                        </div>","","","","","","","","","","","","","","","","","","",""
"768","null","sub_response","html-keyboard-response","224","330215","0.0-1.0-7.0-3.0-2.56","20:34:54","2","","","","","","","<div style='text-align: center;'>
                            <span style=""color: green; font-size: 40px""><b>正确！+1 pts</b></span></div>
                            ","","learn","1","1","1","learn","0","0","[0, 1, 2]","56","5","setsize","10S3A","furniture","1","5","0","1",""
"null","null","fixation","html-keyboard-response","225","330716","0.0-1.0-7.0-3.0-0.57","20:34:54","2","","","","","","","fixation","","","","","","","","","","","","","","","","","","",""
"904","2","pic_response","html-keyboard-response","226","331623","0.0-1.0-7.0-3.0-1.57","20:34:54","2","","","","","","","<div>
            <img class='stim' src=""pictures/furniture/3.jpg""></div><div class=""button_prompt"">
                        <b>请用数字键1-3回答</b>
                        </div>","","","","","","","","","","","","","","","","","","",""
"904","null","sub_response","html-keyboard-response","227","332624","0.0-1.0-7.0-3.0-2.57","20:34:54","2","","","","","","","<div style='text-align: center;'>
                            <span style=""color: green; font-size: 40px""><b>正确！+1 pts</b></span></div>
                            ","","learn","3","3","3","learn","1","1","[0, 1, 2]","57","5","setsize","10S3A","furniture","1","6","1","1",""
"null","null","fixation","html-keyboard-response","228","333125","0.0-1.0-7.0-3.0-0.58","20:34:54","2","","","","","","","fixation","","","","","","","","","","","","","","","","","","",""
"816","3","pic_response","html-keyboard-response","229","333942","0.0-1.0-7.0-3.0-1.58","20:34:54","2","","","","","","","<div>
            <img class='stim' src=""pictures/furniture/7.jpg""></div><div class=""button_prompt"">
                        <b>请用数字键1-3回答</b>
                        </div>","","","","","","","","","","","","","","","","","","",""
"816","null","sub_response","html-keyboard-response","230","334943","0.0-1.0-7.0-3.0-2.58","20:34:54","2","","","","","","","<div style='text-align: center;'>
                            <span style=""color: green; font-size: 40px""><b>正确！+1 pts</b></span></div>
                            ","","learn","7","7","7","learn","2","2","[0, 1, 2]","58","5","setsize","10S3A","furniture","1","7","2","1",""
"null","null","fixation","html-keyboard-response","231","335445","0.0-1.0-7.0-3.0-0.59","20:34:54","2","","","","","","","fixation","","","","","","","","","","","","","","","","","","",""
"727","2","pic_response","html-keyboard-response","232","336174","0.0-1.0-7.0-3.0-1.59","20:34:54","2","","","","","","","<div>
            <img class='stim' src=""pictures/furniture/5.jpg""></div><div class=""button_prompt"">
                        <b>请用数字键1-3回答</b>
                        </div>","","","","","","","","","","","","","","","","","","",""
"727","null","sub_response","html-keyboard-response","233","337177","0.0-1.0-7.0-3.0-2.59","20:34:54","2","","","","","","","<div style='text-align: center;'>
                            <span style=""color: green; font-size: 40px""><b>正确！+1 pts</b></span></div>
                            ","","learn","5","5","5","learn","1","1","[0, 1, 2]","59","5","setsize","10S3A","furniture","1","8","1","1",""
"null","null","fixation","html-keyboard-response","234","337679","0.0-1.0-7.0-3.0-0.60","20:34:54","2","","","","","","","fixation","","","","","","","","","","","","","","","","","","",""
"716","3","pic_response","html-keyboard-response","235","338397","0.0-1.0-7.0-3.0-1.60","20:34:54","2","","","","","","","<div>
            <img class='stim' src=""pictures/furniture/8.jpg""></div><div class=""button_prompt"">
                        <b>请用数字键1-3回答</b>
                        </div>","","","","","","","","","","","","","","","","","","",""
"716","null","sub_response","html-keyboard-response","236","339398","0.0-1.0-7.0-3.0-2.60","20:34:54","2","","","","","","","<div style='text-align: center;'>
                            <span style=""color: green; font-size: 40px""><b>正确！+1 pts</b></span></div>
                            ","","learn","8","8","8","learn","2","2","[0, 1, 2]","60","6","setsize","10S3A","furniture","1","9","2","1",""
"null","null","fixation","html-keyboard-response","237","339899","0.0-1.0-7.0-3.0-0.61","20:34:54","2","","","","","","","fixation","","","","","","","","","","","","","","","","","","",""
"816","1","pic_response","html-keyboard-response","238","340718","0.0-1.0-7.0-3.0-1.61","20:34:54","2","","","","","","","<div>
            <img class='stim' src=""pictures/furniture/1.jpg""></div><div class=""button_prompt"">
                        <b>请用数字键1-3回答</b>
                        </div>","","","","","","","","","","","","","","","","","","",""
"816","null","sub_response","html-keyboard-response","239","341719","0.0-1.0-7.0-3.0-2.61","20:34:54","2","","","","","","","<div style='text-align: center;'>
                            <span style=""color: green; font-size: 40px""><b>正确！+1 pts</b></span></div>
                            ","","learn","1","1","1","learn","0","0","[0, 1, 2]","61","6","setsize","10S3A","furniture","1","10","0","1",""
"null","null","fixation","html-keyboard-response","240","342221","0.0-1.0-7.0-3.0-0.62","20:34:54","2","","","","","","","fixation","","","","","","","","","","","","","","","","","","",""
"629","3","pic_response","html-keyboard-response","241","342854","0.0-1.0-7.0-3.0-1.62","20:34:54","2","","","","","","","<div>
            <img class='stim' src=""pictures/furniture/7.jpg""></div><div class=""button_prompt"">
                        <b>请用数字键1-3回答</b>
                        </div>","","","","","","","","","","","","","","","","","","",""
"629","null","sub_response","html-keyboard-response","242","343858","0.0-1.0-7.0-3.0-2.62","20:34:54","2","","","","","","","<div style='text-align: center;'>
                            <span style=""color: green; font-size: 40px""><b>正确！+1 pts</b></span></div>
                            ","","learn","7","7","7","learn","2","2","[0, 1, 2]","62","6","setsize","10S3A","furniture","1","11","2","1",""
"null","null","fixation","html-keyboard-response","243","344360","0.0-1.0-7.0-3.0-0.63","20:34:54","2","","","","","","","fixation","","","","","","","","","","","","","","","","","","",""
"1732","2","pic_response","html-keyboard-response","244","346094","0.0-1.0-7.0-3.0-1.63","20:34:54","2","","","","","","","<div>
            <img class='stim' src=""pictures/furniture/4.jpg""></div><div class=""button_prompt"">
                        <b>请用数字键1-3回答</b>
                        </div>","","","","","","","","","","","","","","","","","","",""
"1732","null","sub_response","html-keyboard-response","245","347095","0.0-1.0-7.0-3.0-2.63","20:34:54","2","","","","","","","<div style='text-align: center;'>
                            <span style=""color: green; font-size: 40px""><b>正确！+1 pts</b></span></div>
                            ","","learn","4","4","4","learn","1","1","[0, 1, 2]","63","6","setsize","10S3A","furniture","1","12","1","1",""
"null","null","fixation","html-keyboard-response","246","347597","0.0-1.0-7.0-3.0-0.64","20:34:54","2","","","","","","","fixation","","","","","","","","","","","","","","","","","","",""
"1425","1","pic_response","html-keyboard-response","247","349022","0.0-1.0-7.0-3.0-1.64","20:34:54","2","","","","","","","<div>
            <img class='stim' src=""pictures/furniture/0.jpg""></div><div class=""button_prompt"">
                        <b>请用数字键1-3回答</b>
                        </div>","","","","","","","","","","","","","","","","","","",""
"1425","null","sub_response","html-keyboard-response","248","350026","0.0-1.0-7.0-3.0-2.64","20:34:54","2","","","","","","","<div style='text-align: center;'>
                            <span style=""color: green; font-size: 40px""><b>正确！+1 pts</b></span></div>
                            ","","learn","0","0","0","learn","0","0","[0, 1, 2]","64","6","setsize","10S3A","furniture","1","13","0","1",""
"null","null","fixation","html-keyboard-response","249","350527","0.0-1.0-7.0-3.0-0.65","20:34:54","2","","","","","","","fixation","","","","","","","","","","","","","","","","","","",""
"662","3","pic_response","html-keyboard-response","250","351190","0.0-1.0-7.0-3.0-1.65","20:34:54","2","","","","","","","<div>
            <img class='stim' src=""pictures/furniture/9.jpg""></div><div class=""button_prompt"">
                        <b>请用数字键1-3回答</b>
                        </div>","","","","","","","","","","","","","","","","","","",""
"662","null","sub_response","html-keyboard-response","251","352192","0.0-1.0-7.0-3.0-2.65","20:34:54","2","","","","","","","<div style='text-align: center;'>
                            <span style=""color: green; font-size: 40px""><b>正确！+1 pts</b></span></div>
                            ","","learn","9","9","9","learn","2","2","[0, 1, 2]","65","6","setsize","10S3A","furniture","1","14","2","1",""
"null","null","fixation","html-keyboard-response","252","352695","0.0-1.0-7.0-3.0-0.66","20:34:54","2","","","","","","","fixation","","","","","","","","","","","","","","","","","","",""
"966","1","pic_response","html-keyboard-response","253","353662","0.0-1.0-7.0-3.0-1.66","20:34:54","2","","","","","","","<div>
            <img class='stim' src=""pictures/furniture/2.jpg""></div><div class=""button_prompt"">
                        <b>请用数字键1-3回答</b>
                        </div>","","","","","","","","","","","","","","","","","","",""
"966","null","sub_response","html-keyboard-response","254","354664","0.0-1.0-7.0-3.0-2.66","20:34:54","2","","","","","","","<div style='text-align: center;'>
                            <span style=""color: green; font-size: 40px""><b>正确！+1 pts</b></span></div>
                            ","","learn","2","2","2","learn","0","0","[0, 1, 2]","66","6","setsize","10S3A","furniture","1","15","0","1",""
"null","null","fixation","html-keyboard-response","255","355166","0.0-1.0-7.0-3.0-0.67","20:34:54","2","","","","","","","fixation","","","","","","","","","","","","","","","","","","",""
"606","3","pic_response","html-keyboard-response","256","355774","0.0-1.0-7.0-3.0-1.67","20:34:54","2","","","","","","","<div>
            <img class='stim' src=""pictures/furniture/6.jpg""></div><div class=""button_prompt"">
                        <b>请用数字键1-3回答</b>
                        </div>","","","","","","","","","","","","","","","","","","",""
"606","null","sub_response","html-keyboard-response","257","356777","0.0-1.0-7.0-3.0-2.67","20:34:54","2","","","","","","","<div style='text-align: center;'>
                            <span style=""color: green; font-size: 40px""><b>正确！+1 pts</b></span></div>
                            ","","learn","6","6","6","learn","2","2","[0, 1, 2]","67","6","setsize","10S3A","furniture","1","16","2","1",""
"null","null","fixation","html-keyboard-response","258","357280","0.0-1.0-7.0-3.0-0.68","20:34:54","2","","","","","","","fixation","","","","","","","","","","","","","","","","","","",""
"1029","2","pic_response","html-keyboard-response","259","358310","0.0-1.0-7.0-3.0-1.68","20:34:54","2","","","","","","","<div>
            <img class='stim' src=""pictures/furniture/3.jpg""></div><div class=""button_prompt"">
                        <b>请用数字键1-3回答</b>
                        </div>","","","","","","","","","","","","","","","","","","",""
"1029","null","sub_response","html-keyboard-response","260","359311","0.0-1.0-7.0-3.0-2.68","20:34:54","2","","","","","","","<div style='text-align: center;'>
                            <span style=""color: green; font-size: 40px""><b>正确！+1 pts</b></span></div>
                            ","","learn","3","3","3","learn","1","1","[0, 1, 2]","68","6","setsize","10S3A","furniture","1","17","1","1",""
"null","null","fixation","html-keyboard-response","261","359812","0.0-1.0-7.0-3.0-0.69","20:34:54","2","","","","","","","fixation","","","","","","","","","","","","","","","","","","",""
"1705","2","pic_response","html-keyboard-response","262","361518","0.0-1.0-7.0-3.0-1.69","20:34:54","2","","","","","","","<div>
            <img class='stim' src=""pictures/furniture/5.jpg""></div><div class=""button_prompt"">
                        <b>请用数字键1-3回答</b>
                        </div>","","","","","","","","","","","","","","","","","","",""
"1705","null","sub_response","html-keyboard-response","263","362520","0.0-1.0-7.0-3.0-2.69","20:34:54","2","","","","","","","<div style='text-align: center;'>
                            <span style=""color: green; font-size: 40px""><b>正确！+1 pts</b></span></div>
                            ","","learn","5","5","5","learn","1","1","[0, 1, 2]","69","6","setsize","10S3A","furniture","1","18","1","1",""
"null","null","fixation","html-keyboard-response","264","363022","0.0-1.0-7.0-3.0-0.70","20:34:54","2","","","","","","","fixation","","","","","","","","","","","","","","","","","","",""
"672","2","pic_response","html-keyboard-response","265","363695","0.0-1.0-7.0-3.0-1.70","20:34:54","2","","","","","","","<div>
            <img class='stim' src=""pictures/furniture/5.jpg""></div><div class=""button_prompt"">
                        <b>请用数字键1-3回答</b>
                        </div>","","","","","","","","","","","","","","","","","","",""
"672","null","sub_response","html-keyboard-response","266","364695","0.0-1.0-7.0-3.0-2.70","20:34:54","2","","","","","","","<div style='text-align: center;'>
                            <span style=""color: green; font-size: 40px""><b>正确！+1 pts</b></span></div>
                            ","","learn","5","5","5","learn","1","1","[0, 1, 2]","70","7","setsize","10S3A","furniture","1","19","1","1",""
"null","null","fixation","html-keyboard-response","267","365197","0.0-1.0-7.0-3.0-0.71","20:34:54","2","","","","","","","fixation","","","","","","","","","","","","","","","","","","",""
"601","3","pic_response","html-keyboard-response","268","365799","0.0-1.0-7.0-3.0-1.71","20:34:54","2","","","","","","","<div>
            <img class='stim' src=""pictures/furniture/7.jpg""></div><div class=""button_prompt"">
                        <b>请用数字键1-3回答</b>
                        </div>","","","","","","","","","","","","","","","","","","",""
"601","null","sub_response","html-keyboard-response","269","366801","0.0-1.0-7.0-3.0-2.71","20:34:54","2","","","","","","","<div style='text-align: center;'>
                            <span style=""color: green; font-size: 40px""><b>正确！+1 pts</b></span></div>
                            ","","learn","7","7","7","learn","2","2","[0, 1, 2]","71","7","setsize","10S3A","furniture","1","20","2","1",""
"null","null","fixation","html-keyboard-response","270","367304","0.0-1.0-7.0-3.0-0.72","20:34:54","2","","","","","","","fixation","","","","","","","","","","","","","","","","","","",""
"2117","1","pic_response","html-keyboard-response","271","369422","0.0-1.0-7.0-3.0-1.72","20:34:54","2","","","","","","","<div>
            <img class='stim' src=""pictures/furniture/0.jpg""></div><div class=""button_prompt"">
                        <b>请用数字键1-3回答</b>
                        </div>","","","","","","","","","","","","","","","","","","",""
"2117","null","sub_response","html-keyboard-response","272","370424","0.0-1.0-7.0-3.0-2.72","20:34:54","2","","","","","","","<div style='text-align: center;'>
                            <span style=""color: green; font-size: 40px""><b>正确！+1 pts</b></span></div>
                            ","","learn","0","0","0","learn","0","0","[0, 1, 2]","72","7","setsize","10S3A","furniture","1","21","0","1",""
"null","null","fixation","html-keyboard-response","273","370926","0.0-1.0-7.0-3.0-0.73","20:34:54","2","","","","","","","fixation","","","","","","","","","","","","","","","","","","",""
"822","3","pic_response","html-keyboard-response","274","371749","0.0-1.0-7.0-3.0-1.73","20:34:54","2","","","","","","","<div>
            <img class='stim' src=""pictures/furniture/6.jpg""></div><div class=""button_prompt"">
                        <b>请用数字键1-3回答</b>
                        </div>","","","","","","","","","","","","","","","","","","",""
"822","null","sub_response","html-keyboard-response","275","372751","0.0-1.0-7.0-3.0-2.73","20:34:54","2","","","","","","","<div style='text-align: center;'>
                            <span style=""color: green; font-size: 40px""><b>正确！+1 pts</b></span></div>
                            ","","learn","6","6","6","learn","2","2","[0, 1, 2]","73","7","setsize","10S3A","furniture","1","22","2","1",""
"null","null","fixation","html-keyboard-response","276","373253","0.0-1.0-7.0-3.0-0.74","20:34:54","2","","","","","","","fixation","","","","","","","","","","","","","","","","","","",""
"759","2","pic_response","html-keyboard-response","277","374014","0.0-1.0-7.0-3.0-1.74","20:34:54","2","","","","","","","<div>
            <img class='stim' src=""pictures/furniture/3.jpg""></div><div class=""button_prompt"">
                        <b>请用数字键1-3回答</b>
                        </div>","","","","","","","","","","","","","","","","","","",""
"759","null","sub_response","html-keyboard-response","278","375016","0.0-1.0-7.0-3.0-2.74","20:34:54","2","","","","","","","<div style='text-align: center;'>
                            <span style=""color: green; font-size: 40px""><b>正确！+1 pts</b></span></div>
                            ","","learn","3","3","3","learn","1","1","[0, 1, 2]","74","7","setsize","10S3A","furniture","1","23","1","1",""
"null","null","fixation","html-keyboard-response","279","375521","0.0-1.0-7.0-3.0-0.75","20:34:54","2","","","","","","","fixation","","","","","","","","","","","","","","","","","","",""
"618","3","pic_response","html-keyboard-response","280","376141","0.0-1.0-7.0-3.0-1.75","20:34:54","2","","","","","","","<div>
            <img class='stim' src=""pictures/furniture/9.jpg""></div><div class=""button_prompt"">
                        <b>请用数字键1-3回答</b>
                        </div>","","","","","","","","","","","","","","","","","","",""
"618","null","sub_response","html-keyboard-response","281","377142","0.0-1.0-7.0-3.0-2.75","20:34:54","2","","","","","","","<div style='text-align: center;'>
                            <span style=""color: green; font-size: 40px""><b>正确！+1 pts</b></span></div>
                            ","","learn","9","9","9","learn","2","2","[0, 1, 2]","75","7","setsize","10S3A","furniture","1","24","2","1",""
"null","null","fixation","html-keyboard-response","282","377645","0.0-1.0-7.0-3.0-0.76","20:34:54","2","","","","","","","fixation","","","","","","","","","","","","","","","","","","",""
"1544","1","pic_response","html-keyboard-response","283","379190","0.0-1.0-7.0-3.0-1.76","20:34:54","2","","","","","","","<div>
            <img class='stim' src=""pictures/furniture/2.jpg""></div><div class=""button_prompt"">
                        <b>请用数字键1-3回答</b>
                        </div>","","","","","","","","","","","","","","","","","","",""
"1544","null","sub_response","html-keyboard-response","284","380193","0.0-1.0-7.0-3.0-2.76","20:34:54","2","","","","","","","<div style='text-align: center;'>
                            <span style=""color: green; font-size: 40px""><b>正确！+1 pts</b></span></div>
                            ","","learn","2","2","2","learn","0","0","[0, 1, 2]","76","7","setsize","10S3A","furniture","1","25","0","1",""
"null","null","fixation","html-keyboard-response","285","380695","0.0-1.0-7.0-3.0-0.77","20:34:54","2","","","","","","","fixation","","","","","","","","","","","","","","","","","","",""
"655","2","pic_response","html-keyboard-response","286","381351","0.0-1.0-7.0-3.0-1.77","20:34:54","2","","","","","","","<div>
            <img class='stim' src=""pictures/furniture/4.jpg""></div><div class=""button_prompt"">
                        <b>请用数字键1-3回答</b>
                        </div>","","","","","","","","","","","","","","","","","","",""
"655","null","sub_response","html-keyboard-response","287","382353","0.0-1.0-7.0-3.0-2.77","20:34:54","2","","","","","","","<div style='text-align: center;'>
                            <span style=""color: green; font-size: 40px""><b>正确！+1 pts</b></span></div>
                            ","","learn","4","4","4","learn","1","1","[0, 1, 2]","77","7","setsize","10S3A","furniture","1","26","1","1",""
"null","null","fixation","html-keyboard-response","288","382854","0.0-1.0-7.0-3.0-0.78","20:34:54","2","","","","","","","fixation","","","","","","","","","","","","","","","","","","",""
"1263","1","pic_response","html-keyboard-response","289","384118","0.0-1.0-7.0-3.0-1.78","20:34:54","2","","","","","","","<div>
            <img class='stim' src=""pictures/furniture/1.jpg""></div><div class=""button_prompt"">
                        <b>请用数字键1-3回答</b>
                        </div>","","","","","","","","","","","","","","","","","","",""
"1263","null","sub_response","html-keyboard-response","290","385119","0.0-1.0-7.0-3.0-2.78","20:34:54","2","","","","","","","<div style='text-align: center;'>
                            <span style=""color: green; font-size: 40px""><b>正确！+1 pts</b></span></div>
                            ","","learn","1","1","1","learn","0","0","[0, 1, 2]","78","7","setsize","10S3A","furniture","1","27","0","1",""
"null","null","fixation","html-keyboard-response","291","385621","0.0-1.0-7.0-3.0-0.79","20:34:54","2","","","","","","","fixation","","","","","","","","","","","","","","","","","","",""
"935","3","pic_response","html-keyboard-response","292","386557","0.0-1.0-7.0-3.0-1.79","20:34:54","2","","","","","","","<div>
            <img class='stim' src=""pictures/furniture/8.jpg""></div><div class=""button_prompt"">
                        <b>请用数字键1-3回答</b>
                        </div>","","","","","","","","","","","","","","","","","","",""
"935","null","sub_response","html-keyboard-response","293","387559","0.0-1.0-7.0-3.0-2.79","20:34:54","2","","","","","","","<div style='text-align: center;'>
                            <span style=""color: green; font-size: 40px""><b>正确！+1 pts</b></span></div>
                            ","","learn","8","8","8","learn","2","2","[0, 1, 2]","79","7","setsize","10S3A","furniture","1","28","2","1",""
"null","null","fixation","html-keyboard-response","294","388060","0.0-1.0-7.0-3.0-0.80","20:34:54","2","","","","","","","fixation","","","","","","","","","","","","","","","","","","",""
"604","3","pic_response","html-keyboard-response","295","388664","0.0-1.0-7.0-3.0-1.80","20:34:54","2","","","","","","","<div>
            <img class='stim' src=""pictures/furniture/8.jpg""></div><div class=""button_prompt"">
                        <b>请用数字键1-3回答</b>
                        </div>","","","","","","","","","","","","","","","","","","",""
"604","null","sub_response","html-keyboard-response","296","389666","0.0-1.0-7.0-3.0-2.80","20:34:54","2","","","","","","","<div style='text-align: center;'>
                            <span style=""color: green; font-size: 40px""><b>正确！+1 pts</b></span></div>
                            ","","learn","8","8","8","learn","2","2","[0, 1, 2]","80","8","setsize","10S3A","furniture","1","29","2","1",""
"null","null","fixation","html-keyboard-response","297","390168","0.0-1.0-7.0-3.0-0.81","20:34:54","2","","","","","","","fixation","","","","","","","","","","","","","","","","","","",""
"705","2","pic_response","html-keyboard-response","298","390874","0.0-1.0-7.0-3.0-1.81","20:34:54","2","","","","","","","<div>
            <img class='stim' src=""pictures/furniture/3.jpg""></div><div class=""button_prompt"">
                        <b>请用数字键1-3回答</b>
                        </div>","","","","","","","","","","","","","","","","","","",""
"705","null","sub_response","html-keyboard-response","299","391875","0.0-1.0-7.0-3.0-2.81","20:34:54","2","","","","","","","<div style='text-align: center;'>
                            <span style=""color: green; font-size: 40px""><b>正确！+1 pts</b></span></div>
                            ","","learn","3","3","3","learn","1","1","[0, 1, 2]","81","8","setsize","10S3A","furniture","1","30","1","1",""
"null","null","fixation","html-keyboard-response","300","392377","0.0-1.0-7.0-3.0-0.82","20:34:54","2","","","","","","","fixation","","","","","","","","","","","","","","","","","","",""
"718","3","pic_response","html-keyboard-response","301","393095","0.0-1.0-7.0-3.0-1.82","20:34:54","2","","","","","","","<div>
            <img class='stim' src=""pictures/furniture/6.jpg""></div><div class=""button_prompt"">
                        <b>请用数字键1-3回答</b>
                        </div>","","","","","","","","","","","","","","","","","","",""
"718","null","sub_response","html-keyboard-response","302","394097","0.0-1.0-7.0-3.0-2.82","20:34:54","2","","","","","","","<div style='text-align: center;'>
                            <span style=""color: green; font-size: 40px""><b>正确！+1 pts</b></span></div>
                            ","","learn","6","6","6","learn","2","2","[0, 1, 2]","82","8","setsize","10S3A","furniture","1","31","2","1",""
"null","null","fixation","html-keyboard-response","303","394599","0.0-1.0-7.0-3.0-0.83","20:34:54","2","","","","","","","fixation","","","","","","","","","","","","","","","","","","",""
"765","3","pic_response","html-keyboard-response","304","395367","0.0-1.0-7.0-3.0-1.83","20:34:54","2","","","","","","","<div>
            <img class='stim' src=""pictures/furniture/7.jpg""></div><div class=""button_prompt"">
                        <b>请用数字键1-3回答</b>
                        </div>","","","","","","","","","","","","","","","","","","",""
"765","null","sub_response","html-keyboard-response","305","396369","0.0-1.0-7.0-3.0-2.83","20:34:54","2","","","","","","","<div style='text-align: center;'>
                            <span style=""color: green; font-size: 40px""><b>正确！+1 pts</b></span></div>
                            ","","learn","7","7","7","learn","2","2","[0, 1, 2]","83","8","setsize","10S3A","furniture","1","32","2","1",""
"null","null","fixation","html-keyboard-response","306","396870","0.0-1.0-7.0-3.0-0.84","20:34:54","2","","","","","","","fixation","","","","","","","","","","","","","","","","","","",""
"975","2","pic_response","html-keyboard-response","307","397846","0.0-1.0-7.0-3.0-1.84","20:34:54","2","","","","","","","<div>
            <img class='stim' src=""pictures/furniture/5.jpg""></div><div class=""button_prompt"">
                        <b>请用数字键1-3回答</b>
                        </div>","","","","","","","","","","","","","","","","","","",""
"975","null","sub_response","html-keyboard-response","308","398847","0.0-1.0-7.0-3.0-2.84","20:34:54","2","","","","","","","<div style='text-align: center;'>
                            <span style=""color: green; font-size: 40px""><b>正确！+1 pts</b></span></div>
                            ","","learn","5","5","5","learn","1","1","[0, 1, 2]","84","8","setsize","10S3A","furniture","1","33","1","1",""
"null","null","fixation","html-keyboard-response","309","399349","0.0-1.0-7.0-3.0-0.85","20:34:54","2","","","","","","","fixation","","","","","","","","","","","","","","","","","","",""
"727","1","pic_response","html-keyboard-response","310","400079","0.0-1.0-7.0-3.0-1.85","20:34:54","2","","","","","","","<div>
            <img class='stim' src=""pictures/furniture/0.jpg""></div><div class=""button_prompt"">
                        <b>请用数字键1-3回答</b>
                        </div>","","","","","","","","","","","","","","","","","","",""
"727","null","sub_response","html-keyboard-response","311","401080","0.0-1.0-7.0-3.0-2.85","20:34:54","2","","","","","","","<div style='text-align: center;'>
                            <span style=""color: green; font-size: 40px""><b>正确！+1 pts</b></span></div>
                            ","","learn","0","0","0","learn","0","0","[0, 1, 2]","85","8","setsize","10S3A","furniture","1","34","0","1",""
"null","null","fixation","html-keyboard-response","312","401581","0.0-1.0-7.0-3.0-0.86","20:34:54","2","","","","","","","fixation","","","","","","","","","","","","","","","","","","",""
"929","3","pic_response","html-keyboard-response","313","402512","0.0-1.0-7.0-3.0-1.86","20:34:54","2","","","","","","","<div>
            <img class='stim' src=""pictures/furniture/9.jpg""></div><div class=""button_prompt"">
                        <b>请用数字键1-3回答</b>
                        </div>","","","","","","","","","","","","","","","","","","",""
"929","null","sub_response","html-keyboard-response","314","403514","0.0-1.0-7.0-3.0-2.86","20:34:54","2","","","","","","","<div style='text-align: center;'>
                            <span style=""color: green; font-size: 40px""><b>正确！+1 pts</b></span></div>
                            ","","learn","9","9","9","learn","2","2","[0, 1, 2]","86","8","setsize","10S3A","furniture","1","35","2","1",""
"null","null","fixation","html-keyboard-response","315","404016","0.0-1.0-7.0-3.0-0.87","20:34:54","2","","","","","","","fixation","","","","","","","","","","","","","","","","","","",""
"745","1","pic_response","html-keyboard-response","316","404761","0.0-1.0-7.0-3.0-1.87","20:34:54","2","","","","","","","<div>
            <img class='stim' src=""pictures/furniture/1.jpg""></div><div class=""button_prompt"">
                        <b>请用数字键1-3回答</b>
                        </div>","","","","","","","","","","","","","","","","","","",""
"745","null","sub_response","html-keyboard-response","317","405762","0.0-1.0-7.0-3.0-2.87","20:34:54","2","","","","","","","<div style='text-align: center;'>
                            <span style=""color: green; font-size: 40px""><b>正确！+1 pts</b></span></div>
                            ","","learn","1","1","1","learn","0","0","[0, 1, 2]","87","8","setsize","10S3A","furniture","1","36","0","1",""
"null","null","fixation","html-keyboard-response","318","406264","0.0-1.0-7.0-3.0-0.88","20:34:54","2","","","","","","","fixation","","","","","","","","","","","","","","","","","","",""
