"rt","response","screen_id","trial_type","trial_index","time_elapsed","internal_node_id","start_time","n_Prac","success","timeout","failed_images","failed_audio","failed_video","view_history","stimulus","question_order","stage","s","word","word_id","phase","a_cor","a_real","a_ava","trial","tps","task_type","block_typ","pic_typ","block_id","cum_r","a","r","plugin_name"
"93655","{""sub_id"":""01"",""task_type"":""task1"",""name"":""陈超"",""gender"":""F""}","basic_info","survey-html-form","0","93658","0.0-0.0","09:40:10","3","","","","","","","","","","","","","","","","","","","","","","","","","",""
"","","","preload","1","94915","0.0-1.0-0.0","09:40:10","3","true","false","[]","[]","[]","","","","","","","","","","","","","","","","","","","","",""
"","","","preload","2","95100","0.0-1.0-1.0","09:40:10","3","true","false","[]","[]","[]","","","","","","","","","","","","","","","","","","","","",""
"","","","fullscreen","3","97881","0.0-1.0-2.0","09:40:10","3","true","","","","","","","","","","","","","","","","","","","","","","","","",""
"58297","","instruct","instructions","4","156180","0.0-1.0-3.0-0.0","09:40:10","3","","","","","","[{""page_index"":0,""viewing_time"":28718},{""page_index"":1,""viewing_time"":17069},{""page_index"":2,""viewing_time"":12510}]","","","","","","","","","","","","","","","","","","","",""
"13465","{""Q0"":"""",""task1"":""<span style='font-size: 24px'>学习图片和数字的对应关系</span>"",""task2"":""<span style='font-size: 24px'> 数字键1-3 </span>"",""task3"":""<span style='font-size: 24px'> 看到图片选出正确对应的数字 </span>""}","question","survey-multi-choice","5","169647","0.0-1.0-3.0-1.0","09:40:10","3","","","","","","","","[0,1,2,3]","","","","","","","","","","","","","","","","","",""
"4498"," ","inst_q","html-keyboard-response","6","174147","0.0-1.0-3.0-2.0","09:40:10","3","","","","","","","inst","","1","","","","","","","","","","","","","","","","",""
"12478","","instruct","instructions","7","186626","0.0-1.0-3.1-0.1","09:40:10","3","","","","","","[{""page_index"":0,""viewing_time"":3799},{""page_index"":1,""viewing_time"":6212},{""page_index"":2,""viewing_time"":2467}]","","","","","","","","","","","","","","","","","","","",""
"12236","{""Q0"":"""",""task1"":""<span style='font-size: 24px'>学习图片和数字的对应关系</span>"",""task2"":""<span style='font-size: 24px'> 图片下方标注为可用的数字键（数字键1-3或0-9） </span>"",""task3"":""<span style='font-size: 24px'> 看到图片选出正确对应的数字 </span>""}","question","survey-multi-choice","8","198863","0.0-1.0-3.1-1.1","09:40:10","3","","","","","","","","[0,1,2,3]","","","","","","","","","","","","","","","","","",""
"2503"," ","inst_q","html-keyboard-response","9","201367","0.0-1.0-3.1-2.1","09:40:10","3","","","","","","","inst","","1","","","","","","","","","","","","","","","","",""
"","","","preload","10","201502","0.0-1.0-4.0-0.0","09:40:10","3","true","false","[]","[]","[]","","","","","","","","","","","","","","","","","","","","",""
"7540"," ","","html-keyboard-response","11","209042","0.0-1.0-4.0-1.0","09:40:10","3","","","","","","","<div style='font-size: 32px; text-align: center;'
                    <p>请学习图片和数字之间的对应关系</p>
                    <p>我们将<span style='color: blue'><b> 告诉 </b></span>您选择的对错。请根据反馈学习。</p>
                    <p>请按""空格""继续实验。</p></div>","","","","","","","","","","","","","","","","","","",""
"11420"," ","inst","html-keyboard-response","12","220463","0.0-1.0-4.0-2.0","09:40:10","3","","","","","","","<img class='instruct_stim' src=""instruction/prac3.PNG""></div>","","","","","","","","","","","","","","","","","","",""
"null","null","fixation","html-keyboard-response","13","220968","0.0-1.0-4.0-3.0-0.0","09:40:10","3","","","","","","","fixation","","","","","","","","","","","","","","","","","","",""
"1712","2","pic_response","html-keyboard-response","14","222682","0.0-1.0-4.0-3.0-1.0","09:40:10","3","","","","","","","<div>
            <img class='stim' src=""pictures/prac/1.jpg""></div><div class=""button_prompt"">
                        <b>请用数字键1-3回答</b>
                        </div>","","","","","","","","","","","","","","","","","","",""
"1712","null","sub_response","html-keyboard-response","15","223688","0.0-1.0-4.0-3.0-2.0","09:40:10","3","","","","","","","<div style='text-align: center;'>
                            <span style=""color: red; font-size: 40px""><b>错误！+0 pts</b></span></div>
                            ","","learn","1","1","1","learn","0","0","[0, 1, 2]","0","0","setsize","99","prac","0","0","1","0",""
"null","null","fixation","html-keyboard-response","16","224203","0.0-1.0-4.0-3.0-0.1","09:40:10","3","","","","","","","fixation","","","","","","","","","","","","","","","","","","",""
"1469","3","pic_response","html-keyboard-response","17","225672","0.0-1.0-4.0-3.0-1.1","09:40:10","3","","","","","","","<div>
            <img class='stim' src=""pictures/prac/0.jpg""></div><div class=""button_prompt"">
                        <b>请用数字键1-3回答</b>
                        </div>","","","","","","","","","","","","","","","","","","",""
"1469","null","sub_response","html-keyboard-response","18","226679","0.0-1.0-4.0-3.0-2.1","09:40:10","3","","","","","","","<div style='text-align: center;'>
                            <span style=""color: red; font-size: 40px""><b>错误！+0 pts</b></span></div>
                            ","","learn","0","0","0","learn","0","0","[0, 1, 2]","1","0","setsize","99","prac","0","0","2","0",""
"null","null","fixation","html-keyboard-response","19","227182","0.0-1.0-4.0-3.0-0.2","09:40:10","3","","","","","","","fixation","","","","","","","","","","","","","","","","","","",""
"1211","1","pic_response","html-keyboard-response","20","228394","0.0-1.0-4.0-3.0-1.2","09:40:10","3","","","","","","","<div>
            <img class='stim' src=""pictures/prac/2.jpg""></div><div class=""button_prompt"">
                        <b>请用数字键1-3回答</b>
                        </div>","","","","","","","","","","","","","","","","","","",""
"1211","null","sub_response","html-keyboard-response","21","229402","0.0-1.0-4.0-3.0-2.2","09:40:10","3","","","","","","","<div style='text-align: center;'>
                            <span style=""color: red; font-size: 40px""><b>错误！+0 pts</b></span></div>
                            ","","learn","2","2","2","learn","2","2","[0, 1, 2]","2","0","setsize","99","prac","0","0","0","0",""
"null","null","fixation","html-keyboard-response","22","229911","0.0-1.0-4.0-3.0-0.3","09:40:10","3","","","","","","","fixation","","","","","","","","","","","","","","","","","","",""
"763","1","pic_response","html-keyboard-response","23","230675","0.0-1.0-4.0-3.0-1.3","09:40:10","3","","","","","","","<div>
            <img class='stim' src=""pictures/prac/1.jpg""></div><div class=""button_prompt"">
                        <b>请用数字键1-3回答</b>
                        </div>","","","","","","","","","","","","","","","","","","",""
"763","null","sub_response","html-keyboard-response","24","231679","0.0-1.0-4.0-3.0-2.3","09:40:10","3","","","","","","","<div style='text-align: center;'>
                            <span style=""color: green; font-size: 40px""><b>正确！+1 pts</b></span></div>
                            ","","learn","1","1","1","learn","0","0","[0, 1, 2]","3","1","setsize","99","prac","0","1","0","1",""
"null","null","fixation","html-keyboard-response","25","232182","0.0-1.0-4.0-3.0-0.4","09:40:10","3","","","","","","","fixation","","","","","","","","","","","","","","","","","","",""
"703","1","pic_response","html-keyboard-response","26","232885","0.0-1.0-4.0-3.0-1.4","09:40:10","3","","","","","","","<div>
            <img class='stim' src=""pictures/prac/0.jpg""></div><div class=""button_prompt"">
                        <b>请用数字键1-3回答</b>
                        </div>","","","","","","","","","","","","","","","","","","",""
"703","null","sub_response","html-keyboard-response","27","233887","0.0-1.0-4.0-3.0-2.4","09:40:10","3","","","","","","","<div style='text-align: center;'>
                            <span style=""color: green; font-size: 40px""><b>正确！+1 pts</b></span></div>
                            ","","learn","0","0","0","learn","0","0","[0, 1, 2]","4","1","setsize","99","prac","0","2","0","1",""
"null","null","fixation","html-keyboard-response","28","234393","0.0-1.0-4.0-3.0-0.5","09:40:10","3","","","","","","","fixation","","","","","","","","","","","","","","","","","","",""
"760","1","pic_response","html-keyboard-response","29","235154","0.0-1.0-4.0-3.0-1.5","09:40:10","3","","","","","","","<div>
            <img class='stim' src=""pictures/prac/2.jpg""></div><div class=""button_prompt"">
                        <b>请用数字键1-3回答</b>
                        </div>","","","","","","","","","","","","","","","","","","",""
"760","null","sub_response","html-keyboard-response","30","236156","0.0-1.0-4.0-3.0-2.5","09:40:10","3","","","","","","","<div style='text-align: center;'>
                            <span style=""color: red; font-size: 40px""><b>错误！+0 pts</b></span></div>
                            ","","learn","2","2","2","learn","2","2","[0, 1, 2]","5","1","setsize","99","prac","0","0","0","0",""
"","","","preload","31","236160","0.0-1.0-4.1-0.1","09:40:10","3","true","false","[]","[]","[]","","","","","","","","","","","","","","","","","","","","",""
"3738"," ","","html-keyboard-response","32","239898","0.0-1.0-4.1-1.1","09:40:10","3","","","","","","","<div style='font-size: 32px; text-align: center;'
                    <p>请学习图片和数字之间的对应关系</p>
                    <p>我们将<span style='color: blue'><b> 告诉 </b></span>您选择的对错。请根据反馈学习。</p>
                    <p>请按""空格""继续实验。</p></div>","","","","","","","","","","","","","","","","","","",""
"6120"," ","inst","html-keyboard-response","33","246020","0.0-1.0-4.1-2.1","09:40:10","3","","","","","","","<img class='instruct_stim' src=""instruction/prac3.PNG""></div>","","","","","","","","","","","","","","","","","","",""
"null","null","fixation","html-keyboard-response","34","246521","0.0-1.0-4.1-3.1-0.6","09:40:10","3","","","","","","","fixation","","","","","","","","","","","","","","","","","","",""
"1115","2","pic_response","html-keyboard-response","35","247636","0.0-1.0-4.1-3.1-1.6","09:40:10","3","","","","","","","<div>
            <img class='stim' src=""pictures/prac/1.jpg""></div><div class=""button_prompt"">
                        <b>请用数字键1-3回答</b>
                        </div>","","","","","","","","","","","","","","","","","","",""
"1115","null","sub_response","html-keyboard-response","36","248641","0.0-1.0-4.1-3.1-2.6","09:40:10","3","","","","","","","<div style='text-align: center;'>
                            <span style=""color: red; font-size: 40px""><b>错误！+0 pts</b></span></div>
                            ","","learn","1","1","1","learn","0","0","[0, 1, 2]","0","0","setsize","99","prac","0","0","1","0",""
"null","null","fixation","html-keyboard-response","37","249145","0.0-1.0-4.1-3.1-0.7","09:40:10","3","","","","","","","fixation","","","","","","","","","","","","","","","","","","",""
"665","1","pic_response","html-keyboard-response","38","249811","0.0-1.0-4.1-3.1-1.7","09:40:10","3","","","","","","","<div>
            <img class='stim' src=""pictures/prac/0.jpg""></div><div class=""button_prompt"">
                        <b>请用数字键1-3回答</b>
                        </div>","","","","","","","","","","","","","","","","","","",""
"665","null","sub_response","html-keyboard-response","39","250827","0.0-1.0-4.1-3.1-2.7","09:40:10","3","","","","","","","<div style='text-align: center;'>
                            <span style=""color: green; font-size: 40px""><b>正确！+1 pts</b></span></div>
                            ","","learn","0","0","0","learn","0","0","[0, 1, 2]","1","0","setsize","99","prac","0","1","0","1",""
"null","null","fixation","html-keyboard-response","40","251333","0.0-1.0-4.1-3.1-0.8","09:40:10","3","","","","","","","fixation","","","","","","","","","","","","","","","","","","",""
"851","1","pic_response","html-keyboard-response","41","252185","0.0-1.0-4.1-3.1-1.8","09:40:10","3","","","","","","","<div>
            <img class='stim' src=""pictures/prac/2.jpg""></div><div class=""button_prompt"">
                        <b>请用数字键1-3回答</b>
                        </div>","","","","","","","","","","","","","","","","","","",""
"851","null","sub_response","html-keyboard-response","42","253191","0.0-1.0-4.1-3.1-2.8","09:40:10","3","","","","","","","<div style='text-align: center;'>
                            <span style=""color: red; font-size: 40px""><b>错误！+0 pts</b></span></div>
                            ","","learn","2","2","2","learn","2","2","[0, 1, 2]","2","0","setsize","99","prac","0","0","0","0",""
"null","null","fixation","html-keyboard-response","43","253694","0.0-1.0-4.1-3.1-0.9","09:40:10","3","","","","","","","fixation","","","","","","","","","","","","","","","","","","",""
"1221","2","pic_response","html-keyboard-response","44","254916","0.0-1.0-4.1-3.1-1.9","09:40:10","3","","","","","","","<div>
            <img class='stim' src=""pictures/prac/1.jpg""></div><div class=""button_prompt"">
                        <b>请用数字键1-3回答</b>
                        </div>","","","","","","","","","","","","","","","","","","",""
"1221","null","sub_response","html-keyboard-response","45","255917","0.0-1.0-4.1-3.1-2.9","09:40:10","3","","","","","","","<div style='text-align: center;'>
                            <span style=""color: red; font-size: 40px""><b>错误！+0 pts</b></span></div>
                            ","","learn","1","1","1","learn","0","0","[0, 1, 2]","3","1","setsize","99","prac","0","0","1","0",""
"null","null","fixation","html-keyboard-response","46","256429","0.0-1.0-4.1-3.1-0.10","09:40:10","3","","","","","","","fixation","","","","","","","","","","","","","","","","","","",""
"1710","1","pic_response","html-keyboard-response","47","258140","0.0-1.0-4.1-3.1-1.10","09:40:10","3","","","","","","","<div>
            <img class='stim' src=""pictures/prac/0.jpg""></div><div class=""button_prompt"">
                        <b>请用数字键1-3回答</b>
                        </div>","","","","","","","","","","","","","","","","","","",""
"1710","null","sub_response","html-keyboard-response","48","259144","0.0-1.0-4.1-3.1-2.10","09:40:10","3","","","","","","","<div style='text-align: center;'>
                            <span style=""color: green; font-size: 40px""><b>正确！+1 pts</b></span></div>
                            ","","learn","0","0","0","learn","0","0","[0, 1, 2]","4","1","setsize","99","prac","0","1","0","1",""
"null","null","fixation","html-keyboard-response","49","259649","0.0-1.0-4.1-3.1-0.11","09:40:10","3","","","","","","","fixation","","","","","","","","","","","","","","","","","","",""
"1294","3","pic_response","html-keyboard-response","50","260944","0.0-1.0-4.1-3.1-1.11","09:40:10","3","","","","","","","<div>
            <img class='stim' src=""pictures/prac/2.jpg""></div><div class=""button_prompt"">
                        <b>请用数字键1-3回答</b>
                        </div>","","","","","","","","","","","","","","","","","","",""
"1294","null","sub_response","html-keyboard-response","51","261948","0.0-1.0-4.1-3.1-2.11","09:40:10","3","","","","","","","<div style='text-align: center;'>
                            <span style=""color: green; font-size: 40px""><b>正确！+1 pts</b></span></div>
                            ","","learn","2","2","2","learn","2","2","[0, 1, 2]","5","1","setsize","99","prac","0","2","2","1",""
"","","","preload","52","261951","0.0-1.0-4.2-0.2","09:40:10","3","true","false","[]","[]","[]","","","","","","","","","","","","","","","","","","","","",""
"1453"," ","","html-keyboard-response","53","263405","0.0-1.0-4.2-1.2","09:40:10","3","","","","","","","<div style='font-size: 32px; text-align: center;'
                    <p>请学习图片和数字之间的对应关系</p>
                    <p>我们将<span style='color: blue'><b> 告诉 </b></span>您选择的对错。请根据反馈学习。</p>
                    <p>请按""空格""继续实验。</p></div>","","","","","","","","","","","","","","","","","","",""
"1166"," ","inst","html-keyboard-response","54","264572","0.0-1.0-4.2-2.2","09:40:10","3","","","","","","","<img class='instruct_stim' src=""instruction/prac3.PNG""></div>","","","","","","","","","","","","","","","","","","",""
"null","null","fixation","html-keyboard-response","55","265079","0.0-1.0-4.2-3.2-0.12","09:40:10","3","","","","","","","fixation","","","","","","","","","","","","","","","","","","",""
"1330","3","pic_response","html-keyboard-response","56","266411","0.0-1.0-4.2-3.2-1.12","09:40:10","3","","","","","","","<div>
            <img class='stim' src=""pictures/prac/1.jpg""></div><div class=""button_prompt"">
                        <b>请用数字键1-3回答</b>
                        </div>","","","","","","","","","","","","","","","","","","",""
"1330","null","sub_response","html-keyboard-response","57","267414","0.0-1.0-4.2-3.2-2.12","09:40:10","3","","","","","","","<div style='text-align: center;'>
                            <span style=""color: red; font-size: 40px""><b>错误！+0 pts</b></span></div>
                            ","","learn","1","1","1","learn","0","0","[0, 1, 2]","0","0","setsize","99","prac","0","0","2","0",""
"null","null","fixation","html-keyboard-response","58","267915","0.0-1.0-4.2-3.2-0.13","09:40:10","3","","","","","","","fixation","","","","","","","","","","","","","","","","","","",""
"872","1","pic_response","html-keyboard-response","59","268788","0.0-1.0-4.2-3.2-1.13","09:40:10","3","","","","","","","<div>
            <img class='stim' src=""pictures/prac/0.jpg""></div><div class=""button_prompt"">
                        <b>请用数字键1-3回答</b>
                        </div>","","","","","","","","","","","","","","","","","","",""
"872","null","sub_response","html-keyboard-response","60","269793","0.0-1.0-4.2-3.2-2.13","09:40:10","3","","","","","","","<div style='text-align: center;'>
                            <span style=""color: green; font-size: 40px""><b>正确！+1 pts</b></span></div>
                            ","","learn","0","0","0","learn","0","0","[0, 1, 2]","1","0","setsize","99","prac","0","1","0","1",""
"null","null","fixation","html-keyboard-response","61","270305","0.0-1.0-4.2-3.2-0.14","09:40:10","3","","","","","","","fixation","","","","","","","","","","","","","","","","","","",""
"1248","3","pic_response","html-keyboard-response","62","271554","0.0-1.0-4.2-3.2-1.14","09:40:10","3","","","","","","","<div>
            <img class='stim' src=""pictures/prac/2.jpg""></div><div class=""button_prompt"">
                        <b>请用数字键1-3回答</b>
                        </div>","","","","","","","","","","","","","","","","","","",""
"1248","null","sub_response","html-keyboard-response","63","272558","0.0-1.0-4.2-3.2-2.14","09:40:10","3","","","","","","","<div style='text-align: center;'>
                            <span style=""color: green; font-size: 40px""><b>正确！+1 pts</b></span></div>
                            ","","learn","2","2","2","learn","2","2","[0, 1, 2]","2","0","setsize","99","prac","0","2","2","1",""
"null","null","fixation","html-keyboard-response","64","273071","0.0-1.0-4.2-3.2-0.15","09:40:10","3","","","","","","","fixation","","","","","","","","","","","","","","","","","","",""
"1207","1","pic_response","html-keyboard-response","65","274279","0.0-1.0-4.2-3.2-1.15","09:40:10","3","","","","","","","<div>
            <img class='stim' src=""pictures/prac/1.jpg""></div><div class=""button_prompt"">
                        <b>请用数字键1-3回答</b>
                        </div>","","","","","","","","","","","","","","","","","","",""
"1207","null","sub_response","html-keyboard-response","66","275287","0.0-1.0-4.2-3.2-2.15","09:40:10","3","","","","","","","<div style='text-align: center;'>
                            <span style=""color: green; font-size: 40px""><b>正确！+1 pts</b></span></div>
                            ","","learn","1","1","1","learn","0","0","[0, 1, 2]","3","1","setsize","99","prac","0","3","0","1",""
"null","null","fixation","html-keyboard-response","67","275792","0.0-1.0-4.2-3.2-0.16","09:40:10","3","","","","","","","fixation","","","","","","","","","","","","","","","","","","",""
"775","1","pic_response","html-keyboard-response","68","276568","0.0-1.0-4.2-3.2-1.16","09:40:10","3","","","","","","","<div>
            <img class='stim' src=""pictures/prac/0.jpg""></div><div class=""button_prompt"">
                        <b>请用数字键1-3回答</b>
                        </div>","","","","","","","","","","","","","","","","","","",""
"775","null","sub_response","html-keyboard-response","69","277574","0.0-1.0-4.2-3.2-2.16","09:40:10","3","","","","","","","<div style='text-align: center;'>
                            <span style=""color: green; font-size: 40px""><b>正确！+1 pts</b></span></div>
                            ","","learn","0","0","0","learn","0","0","[0, 1, 2]","4","1","setsize","99","prac","0","4","0","1",""
"null","null","fixation","html-keyboard-response","70","278079","0.0-1.0-4.2-3.2-0.17","09:40:10","3","","","","","","","fixation","","","","","","","","","","","","","","","","","","",""
"892","3","pic_response","html-keyboard-response","71","278971","0.0-1.0-4.2-3.2-1.17","09:40:10","3","","","","","","","<div>
            <img class='stim' src=""pictures/prac/2.jpg""></div><div class=""button_prompt"">
                        <b>请用数字键1-3回答</b>
                        </div>","","","","","","","","","","","","","","","","","","",""
"892","null","sub_response","html-keyboard-response","72","279976","0.0-1.0-4.2-3.2-2.17","09:40:10","3","","","","","","","<div style='text-align: center;'>
                            <span style=""color: green; font-size: 40px""><b>正确！+1 pts</b></span></div>
                            ","","learn","2","2","2","learn","2","2","[0, 1, 2]","5","1","setsize","99","prac","0","5","2","1",""
"3651"," ","","html-keyboard-response","73","283628","0.0-1.0-5.0","09:40:10","3","","","","","","","<div style=""font-size: 25px""><p>距下一个实验开始还有</p><div style=""font-size: 50px; color: blue""><p><span id=""clock"">1:00</span></div></p><p>按""空格""跳过休息</p></div>","","","","","","","","","","","","","","","","","","",""
"1172"," ","","html-keyboard-response","74","284801","0.0-1.0-6.0","09:40:10","3","","","","","","","<div style='font-size: 32px; text-align: center;'
                    <p>请按""空格""继续正式实验。</p></div>","","","","","","","","","","","","","","","","","","",""
"","","","preload","75","285131","0.0-1.0-7.0-0.0","09:40:10","3","true","false","[]","[]","[]","","","","","","","","","","","","","","","","","","","","",""
"2103"," ","","html-keyboard-response","76","287236","0.0-1.0-7.0-1.0","09:40:10","3","","","","","","","<div style='font-size: 32px; text-align: center;'
                    <p>请学习图片和数字之间的对应关系</p>
                    <p>我们将<span style='color: blue'><b> 告诉 </b></span>您选择的对错。请根据反馈学习。</p>
                    <p>请按""空格""继续实验。</p></div>","","","","","","","","","","","","","","","","","","",""
"7688"," ","inst","html-keyboard-response","77","294924","0.0-1.0-7.0-2.0","09:40:10","3","","","","","","","<img class='instruct_stim' src=""instruction/furniture3.PNG""></div>","","","","","","","","","","","","","","","","","","",""
"null","null","fixation","html-keyboard-response","78","295437","0.0-1.0-7.0-3.0-0.0","09:40:10","3","","","","","","","fixation","","","","","","","","","","","","","","","","","","",""
"1043","2","pic_response","html-keyboard-response","79","296481","0.0-1.0-7.0-3.0-1.0","09:40:10","3","","","","","","","<div>
            <img class='stim' src=""pictures/furniture/0.jpg""></div><div class=""button_prompt"">
                        <b>请用数字键1-3回答</b>
                        </div>","","","","","","","","","","","","","","","","","","",""
"1043","null","sub_response","html-keyboard-response","80","297488","0.0-1.0-7.0-3.0-2.0","09:40:10","3","","","","","","","<div style='text-align: center;'>
                            <span style=""color: red; font-size: 40px""><b>错误！+0 pts</b></span></div>
                            ","","learn","0","0","0","learn","0","0","[0, 1, 2]","0","0","setsize","3S3A","furniture","1","0","1","0",""
"null","null","fixation","html-keyboard-response","81","297992","0.0-1.0-7.0-3.0-0.1","09:40:10","3","","","","","","","fixation","","","","","","","","","","","","","","","","","","",""
"923","2","pic_response","html-keyboard-response","82","298916","0.0-1.0-7.0-3.0-1.1","09:40:10","3","","","","","","","<div>
            <img class='stim' src=""pictures/furniture/1.jpg""></div><div class=""button_prompt"">
                        <b>请用数字键1-3回答</b>
                        </div>","","","","","","","","","","","","","","","","","","",""
"923","null","sub_response","html-keyboard-response","83","299921","0.0-1.0-7.0-3.0-2.1","09:40:10","3","","","","","","","<div style='text-align: center;'>
                            <span style=""color: red; font-size: 40px""><b>错误！+0 pts</b></span></div>
                            ","","learn","1","1","1","learn","0","0","[0, 1, 2]","1","0","setsize","3S3A","furniture","1","0","1","0",""
"null","null","fixation","html-keyboard-response","84","300426","0.0-1.0-7.0-3.0-0.2","09:40:10","3","","","","","","","fixation","","","","","","","","","","","","","","","","","","",""
"791","2","pic_response","html-keyboard-response","85","301218","0.0-1.0-7.0-3.0-1.2","09:40:10","3","","","","","","","<div>
            <img class='stim' src=""pictures/furniture/2.jpg""></div><div class=""button_prompt"">
                        <b>请用数字键1-3回答</b>
                        </div>","","","","","","","","","","","","","","","","","","",""
"791","null","sub_response","html-keyboard-response","86","302219","0.0-1.0-7.0-3.0-2.2","09:40:10","3","","","","","","","<div style='text-align: center;'>
                            <span style=""color: red; font-size: 40px""><b>错误！+0 pts</b></span></div>
                            ","","learn","2","2","2","learn","2","2","[0, 1, 2]","2","0","setsize","3S3A","furniture","1","0","1","0",""
"null","null","fixation","html-keyboard-response","87","302725","0.0-1.0-7.0-3.0-0.3","09:40:10","3","","","","","","","fixation","","","","","","","","","","","","","","","","","","",""
"1265","3","pic_response","html-keyboard-response","88","303990","0.0-1.0-7.0-3.0-1.3","09:40:10","3","","","","","","","<div>
            <img class='stim' src=""pictures/furniture/2.jpg""></div><div class=""button_prompt"">
                        <b>请用数字键1-3回答</b>
                        </div>","","","","","","","","","","","","","","","","","","",""
"1265","null","sub_response","html-keyboard-response","89","304993","0.0-1.0-7.0-3.0-2.3","09:40:10","3","","","","","","","<div style='text-align: center;'>
                            <span style=""color: green; font-size: 40px""><b>正确！+1 pts</b></span></div>
                            ","","learn","2","2","2","learn","2","2","[0, 1, 2]","3","1","setsize","3S3A","furniture","1","1","2","1",""
"null","null","fixation","html-keyboard-response","90","305495","0.0-1.0-7.0-3.0-0.4","09:40:10","3","","","","","","","fixation","","","","","","","","","","","","","","","","","","",""
"1295","3","pic_response","html-keyboard-response","91","306790","0.0-1.0-7.0-3.0-1.4","09:40:10","3","","","","","","","<div>
            <img class='stim' src=""pictures/furniture/0.jpg""></div><div class=""button_prompt"">
                        <b>请用数字键1-3回答</b>
                        </div>","","","","","","","","","","","","","","","","","","",""
"1295","null","sub_response","html-keyboard-response","92","307794","0.0-1.0-7.0-3.0-2.4","09:40:10","3","","","","","","","<div style='text-align: center;'>
                            <span style=""color: red; font-size: 40px""><b>错误！+0 pts</b></span></div>
                            ","","learn","0","0","0","learn","0","0","[0, 1, 2]","4","1","setsize","3S3A","furniture","1","0","2","0",""
"null","null","fixation","html-keyboard-response","93","308295","0.0-1.0-7.0-3.0-0.5","09:40:10","3","","","","","","","fixation","","","","","","","","","","","","","","","","","","",""
"1684","3","pic_response","html-keyboard-response","94","309980","0.0-1.0-7.0-3.0-1.5","09:40:10","3","","","","","","","<div>
            <img class='stim' src=""pictures/furniture/1.jpg""></div><div class=""button_prompt"">
                        <b>请用数字键1-3回答</b>
                        </div>","","","","","","","","","","","","","","","","","","",""
"1684","null","sub_response","html-keyboard-response","95","310985","0.0-1.0-7.0-3.0-2.5","09:40:10","3","","","","","","","<div style='text-align: center;'>
                            <span style=""color: red; font-size: 40px""><b>错误！+0 pts</b></span></div>
                            ","","learn","1","1","1","learn","0","0","[0, 1, 2]","5","1","setsize","3S3A","furniture","1","0","2","0",""
"null","null","fixation","html-keyboard-response","96","311492","0.0-1.0-7.0-3.0-0.6","09:40:10","3","","","","","","","fixation","","","","","","","","","","","","","","","","","","",""
"857","1","pic_response","html-keyboard-response","97","312350","0.0-1.0-7.0-3.0-1.6","09:40:10","3","","","","","","","<div>
            <img class='stim' src=""pictures/furniture/0.jpg""></div><div class=""button_prompt"">
                        <b>请用数字键1-3回答</b>
                        </div>","","","","","","","","","","","","","","","","","","",""
"857","null","sub_response","html-keyboard-response","98","313351","0.0-1.0-7.0-3.0-2.6","09:40:10","3","","","","","","","<div style='text-align: center;'>
                            <span style=""color: green; font-size: 40px""><b>正确！+1 pts</b></span></div>
                            ","","learn","0","0","0","learn","0","0","[0, 1, 2]","6","2","setsize","3S3A","furniture","1","1","0","1",""
"null","null","fixation","html-keyboard-response","99","313854","0.0-1.0-7.0-3.0-0.7","09:40:10","3","","","","","","","fixation","","","","","","","","","","","","","","","","","","",""
"448","1","pic_response","html-keyboard-response","100","314304","0.0-1.0-7.0-3.0-1.7","09:40:10","3","","","","","","","<div>
            <img class='stim' src=""pictures/furniture/1.jpg""></div><div class=""button_prompt"">
                        <b>请用数字键1-3回答</b>
                        </div>","","","","","","","","","","","","","","","","","","",""
"448","null","sub_response","html-keyboard-response","101","315306","0.0-1.0-7.0-3.0-2.7","09:40:10","3","","","","","","","<div style='text-align: center;'>
                            <span style=""color: green; font-size: 40px""><b>正确！+1 pts</b></span></div>
                            ","","learn","1","1","1","learn","0","0","[0, 1, 2]","7","2","setsize","3S3A","furniture","1","2","0","1",""
"null","null","fixation","html-keyboard-response","102","315808","0.0-1.0-7.0-3.0-0.8","09:40:10","3","","","","","","","fixation","","","","","","","","","","","","","","","","","","",""
"1062","3","pic_response","html-keyboard-response","103","316871","0.0-1.0-7.0-3.0-1.8","09:40:10","3","","","","","","","<div>
            <img class='stim' src=""pictures/furniture/2.jpg""></div><div class=""button_prompt"">
                        <b>请用数字键1-3回答</b>
                        </div>","","","","","","","","","","","","","","","","","","",""
"1062","null","sub_response","html-keyboard-response","104","317876","0.0-1.0-7.0-3.0-2.8","09:40:10","3","","","","","","","<div style='text-align: center;'>
                            <span style=""color: green; font-size: 40px""><b>正确！+1 pts</b></span></div>
                            ","","learn","2","2","2","learn","2","2","[0, 1, 2]","8","2","setsize","3S3A","furniture","1","3","2","1",""
"null","null","fixation","html-keyboard-response","105","318391","0.0-1.0-7.0-3.0-0.9","09:40:10","3","","","","","","","fixation","","","","","","","","","","","","","","","","","","",""
"1394","1","pic_response","html-keyboard-response","106","319786","0.0-1.0-7.0-3.0-1.9","09:40:10","3","","","","","","","<div>
            <img class='stim' src=""pictures/furniture/0.jpg""></div><div class=""button_prompt"">
                        <b>请用数字键1-3回答</b>
                        </div>","","","","","","","","","","","","","","","","","","",""
"1394","null","sub_response","html-keyboard-response","107","320797","0.0-1.0-7.0-3.0-2.9","09:40:10","3","","","","","","","<div style='text-align: center;'>
                            <span style=""color: green; font-size: 40px""><b>正确！+1 pts</b></span></div>
                            ","","learn","0","0","0","learn","0","0","[0, 1, 2]","9","3","setsize","3S3A","furniture","1","4","0","1",""
"null","null","fixation","html-keyboard-response","108","321300","0.0-1.0-7.0-3.0-0.10","09:40:10","3","","","","","","","fixation","","","","","","","","","","","","","","","","","","",""
"825","1","pic_response","html-keyboard-response","109","322126","0.0-1.0-7.0-3.0-1.10","09:40:10","3","","","","","","","<div>
            <img class='stim' src=""pictures/furniture/1.jpg""></div><div class=""button_prompt"">
                        <b>请用数字键1-3回答</b>
                        </div>","","","","","","","","","","","","","","","","","","",""
"825","null","sub_response","html-keyboard-response","110","323141","0.0-1.0-7.0-3.0-2.10","09:40:10","3","","","","","","","<div style='text-align: center;'>
                            <span style=""color: green; font-size: 40px""><b>正确！+1 pts</b></span></div>
                            ","","learn","1","1","1","learn","0","0","[0, 1, 2]","10","3","setsize","3S3A","furniture","1","5","0","1",""
"null","null","fixation","html-keyboard-response","111","323654","0.0-1.0-7.0-3.0-0.11","09:40:10","3","","","","","","","fixation","","","","","","","","","","","","","","","","","","",""
"931","3","pic_response","html-keyboard-response","112","324586","0.0-1.0-7.0-3.0-1.11","09:40:10","3","","","","","","","<div>
            <img class='stim' src=""pictures/furniture/2.jpg""></div><div class=""button_prompt"">
                        <b>请用数字键1-3回答</b>
                        </div>","","","","","","","","","","","","","","","","","","",""
"931","null","sub_response","html-keyboard-response","113","325593","0.0-1.0-7.0-3.0-2.11","09:40:10","3","","","","","","","<div style='text-align: center;'>
                            <span style=""color: green; font-size: 40px""><b>正确！+1 pts</b></span></div>
                            ","","learn","2","2","2","learn","2","2","[0, 1, 2]","11","3","setsize","3S3A","furniture","1","6","2","1",""
"null","null","fixation","html-keyboard-response","114","326102","0.0-1.0-7.0-3.0-0.12","09:40:10","3","","","","","","","fixation","","","","","","","","","","","","","","","","","","",""
"747","1","pic_response","html-keyboard-response","115","326851","0.0-1.0-7.0-3.0-1.12","09:40:10","3","","","","","","","<div>
            <img class='stim' src=""pictures/furniture/1.jpg""></div><div class=""button_prompt"">
                        <b>请用数字键1-3回答</b>
                        </div>","","","","","","","","","","","","","","","","","","",""
"747","null","sub_response","html-keyboard-response","116","327858","0.0-1.0-7.0-3.0-2.12","09:40:10","3","","","","","","","<div style='text-align: center;'>
                            <span style=""color: green; font-size: 40px""><b>正确！+1 pts</b></span></div>
                            ","","learn","1","1","1","learn","0","0","[0, 1, 2]","12","4","setsize","3S3A","furniture","1","7","0","1",""
"null","null","fixation","html-keyboard-response","117","328359","0.0-1.0-7.0-3.0-0.13","09:40:10","3","","","","","","","fixation","","","","","","","","","","","","","","","","","","",""
"807","3","pic_response","html-keyboard-response","118","329167","0.0-1.0-7.0-3.0-1.13","09:40:10","3","","","","","","","<div>
            <img class='stim' src=""pictures/furniture/2.jpg""></div><div class=""button_prompt"">
                        <b>请用数字键1-3回答</b>
                        </div>","","","","","","","","","","","","","","","","","","",""
"807","null","sub_response","html-keyboard-response","119","330173","0.0-1.0-7.0-3.0-2.13","09:40:10","3","","","","","","","<div style='text-align: center;'>
                            <span style=""color: green; font-size: 40px""><b>正确！+1 pts</b></span></div>
                            ","","learn","2","2","2","learn","2","2","[0, 1, 2]","13","4","setsize","3S3A","furniture","1","8","2","1",""
"null","null","fixation","html-keyboard-response","120","330676","0.0-1.0-7.0-3.0-0.14","09:40:10","3","","","","","","","fixation","","","","","","","","","","","","","","","","","","",""
"969","1","pic_response","html-keyboard-response","121","331646","0.0-1.0-7.0-3.0-1.14","09:40:10","3","","","","","","","<div>
            <img class='stim' src=""pictures/furniture/0.jpg""></div><div class=""button_prompt"">
                        <b>请用数字键1-3回答</b>
                        </div>","","","","","","","","","","","","","","","","","","",""
"969","null","sub_response","html-keyboard-response","122","332649","0.0-1.0-7.0-3.0-2.14","09:40:10","3","","","","","","","<div style='text-align: center;'>
                            <span style=""color: green; font-size: 40px""><b>正确！+1 pts</b></span></div>
                            ","","learn","0","0","0","learn","0","0","[0, 1, 2]","14","4","setsize","3S3A","furniture","1","9","0","1",""
"null","null","fixation","html-keyboard-response","123","333158","0.0-1.0-7.0-3.0-0.15","09:40:10","3","","","","","","","fixation","","","","","","","","","","","","","","","","","","",""
"746","1","pic_response","html-keyboard-response","124","333905","0.0-1.0-7.0-3.0-1.15","09:40:10","3","","","","","","","<div>
            <img class='stim' src=""pictures/furniture/0.jpg""></div><div class=""button_prompt"">
                        <b>请用数字键1-3回答</b>
                        </div>","","","","","","","","","","","","","","","","","","",""
"746","null","sub_response","html-keyboard-response","125","334908","0.0-1.0-7.0-3.0-2.15","09:40:10","3","","","","","","","<div style='text-align: center;'>
                            <span style=""color: green; font-size: 40px""><b>正确！+1 pts</b></span></div>
                            ","","learn","0","0","0","learn","0","0","[0, 1, 2]","15","5","setsize","3S3A","furniture","1","10","0","1",""
"null","null","fixation","html-keyboard-response","126","335412","0.0-1.0-7.0-3.0-0.16","09:40:10","3","","","","","","","fixation","","","","","","","","","","","","","","","","","","",""
"658","3","pic_response","html-keyboard-response","127","336071","0.0-1.0-7.0-3.0-1.16","09:40:10","3","","","","","","","<div>
            <img class='stim' src=""pictures/furniture/2.jpg""></div><div class=""button_prompt"">
                        <b>请用数字键1-3回答</b>
                        </div>","","","","","","","","","","","","","","","","","","",""
"658","null","sub_response","html-keyboard-response","128","337079","0.0-1.0-7.0-3.0-2.16","09:40:10","3","","","","","","","<div style='text-align: center;'>
                            <span style=""color: green; font-size: 40px""><b>正确！+1 pts</b></span></div>
                            ","","learn","2","2","2","learn","2","2","[0, 1, 2]","16","5","setsize","3S3A","furniture","1","11","2","1",""
"null","null","fixation","html-keyboard-response","129","337585","0.0-1.0-7.0-3.0-0.17","09:40:10","3","","","","","","","fixation","","","","","","","","","","","","","","","","","","",""
"675","1","pic_response","html-keyboard-response","130","338260","0.0-1.0-7.0-3.0-1.17","09:40:10","3","","","","","","","<div>
            <img class='stim' src=""pictures/furniture/1.jpg""></div><div class=""button_prompt"">
                        <b>请用数字键1-3回答</b>
                        </div>","","","","","","","","","","","","","","","","","","",""
"675","null","sub_response","html-keyboard-response","131","339262","0.0-1.0-7.0-3.0-2.17","09:40:10","3","","","","","","","<div style='text-align: center;'>
                            <span style=""color: green; font-size: 40px""><b>正确！+1 pts</b></span></div>
                            ","","learn","1","1","1","learn","0","0","[0, 1, 2]","17","5","setsize","3S3A","furniture","1","12","0","1",""
"null","null","fixation","html-keyboard-response","132","339765","0.0-1.0-7.0-3.0-0.18","09:40:10","3","","","","","","","fixation","","","","","","","","","","","","","","","","","","",""
"972","1","pic_response","html-keyboard-response","133","340738","0.0-1.0-7.0-3.0-1.18","09:40:10","3","","","","","","","<div>
            <img class='stim' src=""pictures/furniture/0.jpg""></div><div class=""button_prompt"">
                        <b>请用数字键1-3回答</b>
                        </div>","","","","","","","","","","","","","","","","","","",""
"972","null","sub_response","html-keyboard-response","134","341743","0.0-1.0-7.0-3.0-2.18","09:40:10","3","","","","","","","<div style='text-align: center;'>
                            <span style=""color: green; font-size: 40px""><b>正确！+1 pts</b></span></div>
                            ","","learn","0","0","0","learn","0","0","[0, 1, 2]","18","6","setsize","3S3A","furniture","1","13","0","1",""
"null","null","fixation","html-keyboard-response","135","342258","0.0-1.0-7.0-3.0-0.19","09:40:10","3","","","","","","","fixation","","","","","","","","","","","","","","","","","","",""
"731","3","pic_response","html-keyboard-response","136","342989","0.0-1.0-7.0-3.0-1.19","09:40:10","3","","","","","","","<div>
            <img class='stim' src=""pictures/furniture/2.jpg""></div><div class=""button_prompt"">
                        <b>请用数字键1-3回答</b>
                        </div>","","","","","","","","","","","","","","","","","","",""
"731","null","sub_response","html-keyboard-response","137","343996","0.0-1.0-7.0-3.0-2.19","09:40:10","3","","","","","","","<div style='text-align: center;'>
                            <span style=""color: green; font-size: 40px""><b>正确！+1 pts</b></span></div>
                            ","","learn","2","2","2","learn","2","2","[0, 1, 2]","19","6","setsize","3S3A","furniture","1","14","2","1",""
"null","null","fixation","html-keyboard-response","138","344503","0.0-1.0-7.0-3.0-0.20","09:40:10","3","","","","","","","fixation","","","","","","","","","","","","","","","","","","",""
"630","1","pic_response","html-keyboard-response","139","345134","0.0-1.0-7.0-3.0-1.20","09:40:10","3","","","","","","","<div>
            <img class='stim' src=""pictures/furniture/1.jpg""></div><div class=""button_prompt"">
                        <b>请用数字键1-3回答</b>
                        </div>","","","","","","","","","","","","","","","","","","",""
"630","null","sub_response","html-keyboard-response","140","346136","0.0-1.0-7.0-3.0-2.20","09:40:10","3","","","","","","","<div style='text-align: center;'>
                            <span style=""color: green; font-size: 40px""><b>正确！+1 pts</b></span></div>
                            ","","learn","1","1","1","learn","0","0","[0, 1, 2]","20","6","setsize","3S3A","furniture","1","15","0","1",""
"null","null","fixation","html-keyboard-response","141","346640","0.0-1.0-7.0-3.0-0.21","09:40:10","3","","","","","","","fixation","","","","","","","","","","","","","","","","","","",""
"824","1","pic_response","html-keyboard-response","142","347465","0.0-1.0-7.0-3.0-1.21","09:40:10","3","","","","","","","<div>
            <img class='stim' src=""pictures/furniture/1.jpg""></div><div class=""button_prompt"">
                        <b>请用数字键1-3回答</b>
                        </div>","","","","","","","","","","","","","","","","","","",""
"824","null","sub_response","html-keyboard-response","143","348476","0.0-1.0-7.0-3.0-2.21","09:40:10","3","","","","","","","<div style='text-align: center;'>
                            <span style=""color: green; font-size: 40px""><b>正确！+1 pts</b></span></div>
                            ","","learn","1","1","1","learn","0","0","[0, 1, 2]","21","7","setsize","3S3A","furniture","1","16","0","1",""
"null","null","fixation","html-keyboard-response","144","348980","0.0-1.0-7.0-3.0-0.22","09:40:10","3","","","","","","","fixation","","","","","","","","","","","","","","","","","","",""
"738","3","pic_response","html-keyboard-response","145","349719","0.0-1.0-7.0-3.0-1.22","09:40:10","3","","","","","","","<div>
            <img class='stim' src=""pictures/furniture/2.jpg""></div><div class=""button_prompt"">
                        <b>请用数字键1-3回答</b>
                        </div>","","","","","","","","","","","","","","","","","","",""
"738","null","sub_response","html-keyboard-response","146","350729","0.0-1.0-7.0-3.0-2.22","09:40:10","3","","","","","","","<div style='text-align: center;'>
                            <span style=""color: green; font-size: 40px""><b>正确！+1 pts</b></span></div>
                            ","","learn","2","2","2","learn","2","2","[0, 1, 2]","22","7","setsize","3S3A","furniture","1","17","2","1",""
"null","null","fixation","html-keyboard-response","147","351233","0.0-1.0-7.0-3.0-0.23","09:40:10","3","","","","","","","fixation","","","","","","","","","","","","","","","","","","",""
"717","1","pic_response","html-keyboard-response","148","351950","0.0-1.0-7.0-3.0-1.23","09:40:10","3","","","","","","","<div>
            <img class='stim' src=""pictures/furniture/0.jpg""></div><div class=""button_prompt"">
                        <b>请用数字键1-3回答</b>
                        </div>","","","","","","","","","","","","","","","","","","",""
"717","null","sub_response","html-keyboard-response","149","352965","0.0-1.0-7.0-3.0-2.23","09:40:10","3","","","","","","","<div style='text-align: center;'>
                            <span style=""color: green; font-size: 40px""><b>正确！+1 pts</b></span></div>
                            ","","learn","0","0","0","learn","0","0","[0, 1, 2]","23","7","setsize","3S3A","furniture","1","18","0","1",""
"null","null","fixation","html-keyboard-response","150","353468","0.0-1.0-7.0-3.0-0.24","09:40:10","3","","","","","","","fixation","","","","","","","","","","","","","","","","","","",""
"1005","1","pic_response","html-keyboard-response","151","354475","0.0-1.0-7.0-3.0-1.24","09:40:10","3","","","","","","","<div>
            <img class='stim' src=""pictures/furniture/0.jpg""></div><div class=""button_prompt"">
                        <b>请用数字键1-3回答</b>
                        </div>","","","","","","","","","","","","","","","","","","",""
"1005","null","sub_response","html-keyboard-response","152","355477","0.0-1.0-7.0-3.0-2.24","09:40:10","3","","","","","","","<div style='text-align: center;'>
                            <span style=""color: green; font-size: 40px""><b>正确！+1 pts</b></span></div>
                            ","","learn","0","0","0","learn","0","0","[0, 1, 2]","24","8","setsize","3S3A","furniture","1","19","0","1",""
"null","null","fixation","html-keyboard-response","153","355989","0.0-1.0-7.0-3.0-0.25","09:40:10","3","","","","","","","fixation","","","","","","","","","","","","","","","","","","",""
"774","1","pic_response","html-keyboard-response","154","356765","0.0-1.0-7.0-3.0-1.25","09:40:10","3","","","","","","","<div>
            <img class='stim' src=""pictures/furniture/1.jpg""></div><div class=""button_prompt"">
                        <b>请用数字键1-3回答</b>
                        </div>","","","","","","","","","","","","","","","","","","",""
"774","null","sub_response","html-keyboard-response","155","357766","0.0-1.0-7.0-3.0-2.25","09:40:10","3","","","","","","","<div style='text-align: center;'>
                            <span style=""color: green; font-size: 40px""><b>正确！+1 pts</b></span></div>
                            ","","learn","1","1","1","learn","0","0","[0, 1, 2]","25","8","setsize","3S3A","furniture","1","20","0","1",""
"null","null","fixation","html-keyboard-response","156","358269","0.0-1.0-7.0-3.0-0.26","09:40:10","3","","","","","","","fixation","","","","","","","","","","","","","","","","","","",""
"754","3","pic_response","html-keyboard-response","157","359023","0.0-1.0-7.0-3.0-1.26","09:40:10","3","","","","","","","<div>
            <img class='stim' src=""pictures/furniture/2.jpg""></div><div class=""button_prompt"">
                        <b>请用数字键1-3回答</b>
                        </div>","","","","","","","","","","","","","","","","","","",""
"754","null","sub_response","html-keyboard-response","158","360031","0.0-1.0-7.0-3.0-2.26","09:40:10","3","","","","","","","<div style='text-align: center;'>
                            <span style=""color: green; font-size: 40px""><b>正确！+1 pts</b></span></div>
                            ","","learn","2","2","2","learn","2","2","[0, 1, 2]","26","8","setsize","3S3A","furniture","1","21","2","1",""
"null","null","fixation","html-keyboard-response","159","360533","0.0-1.0-7.0-3.0-0.27","09:40:10","3","","","","","","","fixation","","","","","","","","","","","","","","","","","","",""
"497","3","pic_response","html-keyboard-response","160","361031","0.0-1.0-7.0-3.0-1.27","09:40:10","3","","","","","","","<div>
            <img class='stim' src=""pictures/furniture/2.jpg""></div><div class=""button_prompt"">
                        <b>请用数字键1-3回答</b>
                        </div>","","","","","","","","","","","","","","","","","","",""
"497","null","sub_response","html-keyboard-response","161","362035","0.0-1.0-7.0-3.0-2.27","09:40:10","3","","","","","","","<div style='text-align: center;'>
                            <span style=""color: green; font-size: 40px""><b>正确！+1 pts</b></span></div>
                            ","","learn","2","2","2","learn","2","2","[0, 1, 2]","27","9","setsize","3S3A","furniture","1","22","2","1",""
"null","null","fixation","html-keyboard-response","162","362536","0.0-1.0-7.0-3.0-0.28","09:40:10","3","","","","","","","fixation","","","","","","","","","","","","","","","","","","",""
"898","1","pic_response","html-keyboard-response","163","363435","0.0-1.0-7.0-3.0-1.28","09:40:10","3","","","","","","","<div>
            <img class='stim' src=""pictures/furniture/0.jpg""></div><div class=""button_prompt"">
                        <b>请用数字键1-3回答</b>
                        </div>","","","","","","","","","","","","","","","","","","",""
"898","null","sub_response","html-keyboard-response","164","364436","0.0-1.0-7.0-3.0-2.28","09:40:10","3","","","","","","","<div style='text-align: center;'>
                            <span style=""color: green; font-size: 40px""><b>正确！+1 pts</b></span></div>
                            ","","learn","0","0","0","learn","0","0","[0, 1, 2]","28","9","setsize","3S3A","furniture","1","23","0","1",""
"null","null","fixation","html-keyboard-response","165","364944","0.0-1.0-7.0-3.0-0.29","09:40:10","3","","","","","","","fixation","","","","","","","","","","","","","","","","","","",""
"587","1","pic_response","html-keyboard-response","166","365531","0.0-1.0-7.0-3.0-1.29","09:40:10","3","","","","","","","<div>
            <img class='stim' src=""pictures/furniture/1.jpg""></div><div class=""button_prompt"">
                        <b>请用数字键1-3回答</b>
                        </div>","","","","","","","","","","","","","","","","","","",""
"587","null","sub_response","html-keyboard-response","167","366535","0.0-1.0-7.0-3.0-2.29","09:40:10","3","","","","","","","<div style='text-align: center;'>
                            <span style=""color: green; font-size: 40px""><b>正确！+1 pts</b></span></div>
                            ","","learn","1","1","1","learn","0","0","[0, 1, 2]","29","9","setsize","3S3A","furniture","1","24","0","1",""
"null","null","fixation","html-keyboard-response","168","367038","0.0-1.0-7.0-3.0-0.30","09:40:10","3","","","","","","","fixation","","","","","","","","","","","","","","","","","","",""
"953","1","pic_response","html-keyboard-response","169","367992","0.0-1.0-7.0-3.0-1.30","09:40:10","3","","","","","","","<div>
            <img class='stim' src=""pictures/furniture/1.jpg""></div><div class=""button_prompt"">
                        <b>请用数字键1-3回答</b>
                        </div>","","","","","","","","","","","","","","","","","","",""
"953","null","sub_response","html-keyboard-response","170","368994","0.0-1.0-7.0-3.0-2.30","09:40:10","3","","","","","","","<div style='text-align: center;'>
                            <span style=""color: green; font-size: 40px""><b>正确！+1 pts</b></span></div>
                            ","","learn","1","1","1","learn","0","0","[0, 1, 2]","30","10","setsize","3S3A","furniture","1","25","0","1",""
"null","null","fixation","html-keyboard-response","171","369507","0.0-1.0-7.0-3.0-0.31","09:40:10","3","","","","","","","fixation","","","","","","","","","","","","","","","","","","",""
"1036","3","pic_response","html-keyboard-response","172","370544","0.0-1.0-7.0-3.0-1.31","09:40:10","3","","","","","","","<div>
            <img class='stim' src=""pictures/furniture/2.jpg""></div><div class=""button_prompt"">
                        <b>请用数字键1-3回答</b>
                        </div>","","","","","","","","","","","","","","","","","","",""
"1036","null","sub_response","html-keyboard-response","173","371558","0.0-1.0-7.0-3.0-2.31","09:40:10","3","","","","","","","<div style='text-align: center;'>
                            <span style=""color: green; font-size: 40px""><b>正确！+1 pts</b></span></div>
                            ","","learn","2","2","2","learn","2","2","[0, 1, 2]","31","10","setsize","3S3A","furniture","1","26","2","1",""
"null","null","fixation","html-keyboard-response","174","372062","0.0-1.0-7.0-3.0-0.32","09:40:10","3","","","","","","","fixation","","","","","","","","","","","","","","","","","","",""
"900","1","pic_response","html-keyboard-response","175","372964","0.0-1.0-7.0-3.0-1.32","09:40:10","3","","","","","","","<div>
            <img class='stim' src=""pictures/furniture/0.jpg""></div><div class=""button_prompt"">
                        <b>请用数字键1-3回答</b>
                        </div>","","","","","","","","","","","","","","","","","","",""
"900","null","sub_response","html-keyboard-response","176","373965","0.0-1.0-7.0-3.0-2.32","09:40:10","3","","","","","","","<div style='text-align: center;'>
                            <span style=""color: green; font-size: 40px""><b>正确！+1 pts</b></span></div>
                            ","","learn","0","0","0","learn","0","0","[0, 1, 2]","32","10","setsize","3S3A","furniture","1","27","0","1",""
"null","null","fixation","html-keyboard-response","177","374466","0.0-1.0-7.0-3.0-0.33","09:40:10","3","","","","","","","fixation","","","","","","","","","","","","","","","","","","",""
"633","1","pic_response","html-keyboard-response","178","375100","0.0-1.0-7.0-3.0-1.33","09:40:10","3","","","","","","","<div>
            <img class='stim' src=""pictures/furniture/0.jpg""></div><div class=""button_prompt"">
                        <b>请用数字键1-3回答</b>
                        </div>","","","","","","","","","","","","","","","","","","",""
"633","null","sub_response","html-keyboard-response","179","376103","0.0-1.0-7.0-3.0-2.33","09:40:10","3","","","","","","","<div style='text-align: center;'>
                            <span style=""color: green; font-size: 40px""><b>正确！+1 pts</b></span></div>
                            ","","learn","0","0","0","learn","0","0","[0, 1, 2]","33","11","setsize","3S3A","furniture","1","28","0","1",""
"null","null","fixation","html-keyboard-response","180","376619","0.0-1.0-7.0-3.0-0.34","09:40:10","3","","","","","","","fixation","","","","","","","","","","","","","","","","","","",""
"1029","3","pic_response","html-keyboard-response","181","377649","0.0-1.0-7.0-3.0-1.34","09:40:10","3","","","","","","","<div>
            <img class='stim' src=""pictures/furniture/2.jpg""></div><div class=""button_prompt"">
                        <b>请用数字键1-3回答</b>
                        </div>","","","","","","","","","","","","","","","","","","",""
"1029","null","sub_response","html-keyboard-response","182","378654","0.0-1.0-7.0-3.0-2.34","09:40:10","3","","","","","","","<div style='text-align: center;'>
                            <span style=""color: green; font-size: 40px""><b>正确！+1 pts</b></span></div>
                            ","","learn","2","2","2","learn","2","2","[0, 1, 2]","34","11","setsize","3S3A","furniture","1","29","2","1",""
"null","null","fixation","html-keyboard-response","183","379156","0.0-1.0-7.0-3.0-0.35","09:40:10","3","","","","","","","fixation","","","","","","","","","","","","","","","","","","",""
"877","1","pic_response","html-keyboard-response","184","380034","0.0-1.0-7.0-3.0-1.35","09:40:10","3","","","","","","","<div>
            <img class='stim' src=""pictures/furniture/1.jpg""></div><div class=""button_prompt"">
                        <b>请用数字键1-3回答</b>
                        </div>","","","","","","","","","","","","","","","","","","",""
"877","null","sub_response","html-keyboard-response","185","381035","0.0-1.0-7.0-3.0-2.35","09:40:10","3","","","","","","","<div style='text-align: center;'>
                            <span style=""color: green; font-size: 40px""><b>正确！+1 pts</b></span></div>
                            ","","learn","1","1","1","learn","0","0","[0, 1, 2]","35","11","setsize","3S3A","furniture","1","30","0","1",""
"null","null","fixation","html-keyboard-response","186","381541","0.0-1.0-7.0-3.0-0.36","09:40:10","3","","","","","","","fixation","","","","","","","","","","","","","","","","","","",""
"391","1","pic_response","html-keyboard-response","187","381932","0.0-1.0-7.0-3.0-1.36","09:40:10","3","","","","","","","<div>
            <img class='stim' src=""pictures/furniture/1.jpg""></div><div class=""button_prompt"">
                        <b>请用数字键1-3回答</b>
                        </div>","","","","","","","","","","","","","","","","","","",""
"391","null","sub_response","html-keyboard-response","188","382939","0.0-1.0-7.0-3.0-2.36","09:40:10","3","","","","","","","<div style='text-align: center;'>
                            <span style=""color: green; font-size: 40px""><b>正确！+1 pts</b></span></div>
                            ","","learn","1","1","1","learn","0","0","[0, 1, 2]","36","12","setsize","3S3A","furniture","1","31","0","1",""
"null","null","fixation","html-keyboard-response","189","383443","0.0-1.0-7.0-3.0-0.37","09:40:10","3","","","","","","","fixation","","","","","","","","","","","","","","","","","","",""
"849","3","pic_response","html-keyboard-response","190","384293","0.0-1.0-7.0-3.0-1.37","09:40:10","3","","","","","","","<div>
            <img class='stim' src=""pictures/furniture/2.jpg""></div><div class=""button_prompt"">
                        <b>请用数字键1-3回答</b>
                        </div>","","","","","","","","","","","","","","","","","","",""
"849","null","sub_response","html-keyboard-response","191","385299","0.0-1.0-7.0-3.0-2.37","09:40:10","3","","","","","","","<div style='text-align: center;'>
                            <span style=""color: green; font-size: 40px""><b>正确！+1 pts</b></span></div>
                            ","","learn","2","2","2","learn","2","2","[0, 1, 2]","37","12","setsize","3S3A","furniture","1","32","2","1",""
"null","null","fixation","html-keyboard-response","192","385807","0.0-1.0-7.0-3.0-0.38","09:40:10","3","","","","","","","fixation","","","","","","","","","","","","","","","","","","",""
"864","1","pic_response","html-keyboard-response","193","386672","0.0-1.0-7.0-3.0-1.38","09:40:10","3","","","","","","","<div>
            <img class='stim' src=""pictures/furniture/0.jpg""></div><div class=""button_prompt"">
                        <b>请用数字键1-3回答</b>
                        </div>","","","","","","","","","","","","","","","","","","",""
"864","null","sub_response","html-keyboard-response","194","387676","0.0-1.0-7.0-3.0-2.38","09:40:10","3","","","","","","","<div style='text-align: center;'>
                            <span style=""color: green; font-size: 40px""><b>正确！+1 pts</b></span></div>
                            ","","learn","0","0","0","learn","0","0","[0, 1, 2]","38","12","setsize","3S3A","furniture","1","33","0","1",""
"null","null","fixation","html-keyboard-response","195","388184","0.0-1.0-7.0-3.0-0.39","09:40:10","3","","","","","","","fixation","","","","","","","","","","","","","","","","","","",""
"686","1","pic_response","html-keyboard-response","196","388871","0.0-1.0-7.0-3.0-1.39","09:40:10","3","","","","","","","<div>
            <img class='stim' src=""pictures/furniture/0.jpg""></div><div class=""button_prompt"">
                        <b>请用数字键1-3回答</b>
                        </div>","","","","","","","","","","","","","","","","","","",""
"686","null","sub_response","html-keyboard-response","197","389878","0.0-1.0-7.0-3.0-2.39","09:40:10","3","","","","","","","<div style='text-align: center;'>
                            <span style=""color: green; font-size: 40px""><b>正确！+1 pts</b></span></div>
                            ","","learn","0","0","0","learn","0","0","[0, 1, 2]","39","13","setsize","3S3A","furniture","1","34","0","1",""
"null","null","fixation","html-keyboard-response","198","390384","0.0-1.0-7.0-3.0-0.40","09:40:10","3","","","","","","","fixation","","","","","","","","","","","","","","","","","","",""
"1088","1","pic_response","html-keyboard-response","199","391472","0.0-1.0-7.0-3.0-1.40","09:40:10","3","","","","","","","<div>
            <img class='stim' src=""pictures/furniture/1.jpg""></div><div class=""button_prompt"">
                        <b>请用数字键1-3回答</b>
                        </div>","","","","","","","","","","","","","","","","","","",""
"1088","null","sub_response","html-keyboard-response","200","392487","0.0-1.0-7.0-3.0-2.40","09:40:10","3","","","","","","","<div style='text-align: center;'>
                            <span style=""color: green; font-size: 40px""><b>正确！+1 pts</b></span></div>
                            ","","learn","1","1","1","learn","0","0","[0, 1, 2]","40","13","setsize","3S3A","furniture","1","35","0","1",""
"null","null","fixation","html-keyboard-response","201","393001","0.0-1.0-7.0-3.0-0.41","09:40:10","3","","","","","","","fixation","","","","","","","","","","","","","","","","","","",""
"736","3","pic_response","html-keyboard-response","202","393738","0.0-1.0-7.0-3.0-1.41","09:40:10","3","","","","","","","<div>
            <img class='stim' src=""pictures/furniture/2.jpg""></div><div class=""button_prompt"">
                        <b>请用数字键1-3回答</b>
                        </div>","","","","","","","","","","","","","","","","","","",""
"736","null","sub_response","html-keyboard-response","203","394741","0.0-1.0-7.0-3.0-2.41","09:40:10","3","","","","","","","<div style='text-align: center;'>
                            <span style=""color: green; font-size: 40px""><b>正确！+1 pts</b></span></div>
                            ","","learn","2","2","2","learn","2","2","[0, 1, 2]","41","13","setsize","3S3A","furniture","1","36","2","1",""
"null","null","fixation","html-keyboard-response","204","395245","0.0-1.0-7.0-3.0-0.42","09:40:10","3","","","","","","","fixation","","","","","","","","","","","","","","","","","","",""
"676","1","pic_response","html-keyboard-response","205","395922","0.0-1.0-7.0-3.0-1.42","09:40:10","3","","","","","","","<div>
            <img class='stim' src=""pictures/furniture/0.jpg""></div><div class=""button_prompt"">
                        <b>请用数字键1-3回答</b>
                        </div>","","","","","","","","","","","","","","","","","","",""
"676","null","sub_response","html-keyboard-response","206","396925","0.0-1.0-7.0-3.0-2.42","09:40:10","3","","","","","","","<div style='text-align: center;'>
                            <span style=""color: green; font-size: 40px""><b>正确！+1 pts</b></span></div>
                            ","","learn","0","0","0","learn","0","0","[0, 1, 2]","42","14","setsize","3S3A","furniture","1","37","0","1",""
"null","null","fixation","html-keyboard-response","207","397430","0.0-1.0-7.0-3.0-0.43","09:40:10","3","","","","","","","fixation","","","","","","","","","","","","","","","","","","",""
"838","3","pic_response","html-keyboard-response","208","398269","0.0-1.0-7.0-3.0-1.43","09:40:10","3","","","","","","","<div>
            <img class='stim' src=""pictures/furniture/2.jpg""></div><div class=""button_prompt"">
                        <b>请用数字键1-3回答</b>
                        </div>","","","","","","","","","","","","","","","","","","",""
"838","null","sub_response","html-keyboard-response","209","399274","0.0-1.0-7.0-3.0-2.43","09:40:10","3","","","","","","","<div style='text-align: center;'>
                            <span style=""color: green; font-size: 40px""><b>正确！+1 pts</b></span></div>
                            ","","learn","2","2","2","learn","2","2","[0, 1, 2]","43","14","setsize","3S3A","furniture","1","38","2","1",""
"null","null","fixation","html-keyboard-response","210","399776","0.0-1.0-7.0-3.0-0.44","09:40:10","3","","","","","","","fixation","","","","","","","","","","","","","","","","","","",""
"726","1","pic_response","html-keyboard-response","211","400503","0.0-1.0-7.0-3.0-1.44","09:40:10","3","","","","","","","<div>
            <img class='stim' src=""pictures/furniture/1.jpg""></div><div class=""button_prompt"">
                        <b>请用数字键1-3回答</b>
                        </div>","","","","","","","","","","","","","","","","","","",""
"726","null","sub_response","html-keyboard-response","212","401518","0.0-1.0-7.0-3.0-2.44","09:40:10","3","","","","","","","<div style='text-align: center;'>
                            <span style=""color: green; font-size: 40px""><b>正确！+1 pts</b></span></div>
                            ","","learn","1","1","1","learn","0","0","[0, 1, 2]","44","14","setsize","3S3A","furniture","1","39","0","1",""
"null","null","fixation","html-keyboard-response","213","402029","0.0-1.0-7.0-3.0-0.45","09:40:10","3","","","","","","","fixation","","","","","","","","","","","","","","","","","","",""
"821","3","pic_response","html-keyboard-response","214","402851","0.0-1.0-7.0-3.0-1.45","09:40:10","3","","","","","","","<div>
            <img class='stim' src=""pictures/furniture/2.jpg""></div><div class=""button_prompt"">
                        <b>请用数字键1-3回答</b>
                        </div>","","","","","","","","","","","","","","","","","","",""
"821","null","sub_response","html-keyboard-response","215","403866","0.0-1.0-7.0-3.0-2.45","09:40:10","3","","","","","","","<div style='text-align: center;'>
                            <span style=""color: green; font-size: 40px""><b>正确！+1 pts</b></span></div>
                            ","","learn","2","2","2","learn","2","2","[0, 1, 2]","45","15","setsize","3S3A","furniture","1","40","2","1",""
"43488"," ","","html-keyboard-response","216","447355","0.0-1.0-8.0","09:40:10","3","","","","","","","<div style=""font-size: 25px""><p>距下一个实验开始还有</p><div style=""font-size: 50px; color: blue""><p><span id=""clock"">1:00</span></div></p><p>按""空格""跳过休息</p></div>","","","","","","","","","","","","","","","","","","",""
"","","","preload","217","447634","0.0-1.0-9.0-0.0","09:40:10","3","true","false","[]","[]","[]","","","","","","","","","","","","","","","","","","","","",""
"1760"," ","","html-keyboard-response","218","449395","0.0-1.0-9.0-1.0","09:40:10","3","","","","","","","<div style='font-size: 32px; text-align: center;'
                    <p>请学习图片和数字之间的对应关系</p>
                    <p>我们将<span style='color: blue'><b> 告诉 </b></span>您选择的对错。请根据反馈学习。</p>
                    <p>请按""空格""继续实验。</p></div>","","","","","","","","","","","","","","","","","","",""
"12797"," ","inst","html-keyboard-response","219","462193","0.0-1.0-9.0-2.0","09:40:10","3","","","","","","","<img class='instruct_stim' src=""instruction/food10.PNG""></div>","","","","","","","","","","","","","","","","","","",""
"null","null","fixation","html-keyboard-response","220","462695","0.0-1.0-9.0-3.0-0.0","09:40:10","3","","","","","","","fixation","","","","","","","","","","","","","","","","","","",""
"1419","1","pic_response","html-keyboard-response","221","464115","0.0-1.0-9.0-3.0-1.0","09:40:10","3","","","","","","","<div>
            <img class='stim' src=""pictures/food/3.jpg""></div><div class=""button_prompt"">
                        <b>请用数字键1-3回答</b>
                        </div>","","","","","","","","","","","","","","","","","","",""
"1419","null","sub_response","html-keyboard-response","222","465117","0.0-1.0-9.0-3.0-2.0","09:40:10","3","","","","","","","<div style='text-align: center;'>
                            <span style=""color: red; font-size: 40px""><b>错误！+0 pts</b></span></div>
                            ","","learn","3","3","3","learn","1","1","[0, 1, 2]","0","0","setsize","10S3A","food","2","0","0","0",""
"null","null","fixation","html-keyboard-response","223","465619","0.0-1.0-9.0-3.0-0.1","09:40:10","3","","","","","","","fixation","","","","","","","","","","","","","","","","","","",""
"1025","1","pic_response","html-keyboard-response","224","466646","0.0-1.0-9.0-3.0-1.1","09:40:10","3","","","","","","","<div>
            <img class='stim' src=""pictures/food/8.jpg""></div><div class=""button_prompt"">
                        <b>请用数字键1-3回答</b>
                        </div>","","","","","","","","","","","","","","","","","","",""
"1025","null","sub_response","html-keyboard-response","225","467649","0.0-1.0-9.0-3.0-2.1","09:40:10","3","","","","","","","<div style='text-align: center;'>
                            <span style=""color: red; font-size: 40px""><b>错误！+0 pts</b></span></div>
                            ","","learn","8","8","8","learn","2","2","[0, 1, 2]","1","0","setsize","10S3A","food","2","0","0","0",""
"null","null","fixation","html-keyboard-response","226","468152","0.0-1.0-9.0-3.0-0.2","09:40:10","3","","","","","","","fixation","","","","","","","","","","","","","","","","","","",""
"1067","1","pic_response","html-keyboard-response","227","469220","0.0-1.0-9.0-3.0-1.2","09:40:10","3","","","","","","","<div>
            <img class='stim' src=""pictures/food/6.jpg""></div><div class=""button_prompt"">
                        <b>请用数字键1-3回答</b>
                        </div>","","","","","","","","","","","","","","","","","","",""
"1067","null","sub_response","html-keyboard-response","228","470223","0.0-1.0-9.0-3.0-2.2","09:40:10","3","","","","","","","<div style='text-align: center;'>
                            <span style=""color: red; font-size: 40px""><b>错误！+0 pts</b></span></div>
                            ","","learn","6","6","6","learn","2","2","[0, 1, 2]","2","0","setsize","10S3A","food","2","0","0","0",""
"null","null","fixation","html-keyboard-response","229","470729","0.0-1.0-9.0-3.0-0.3","09:40:10","3","","","","","","","fixation","","","","","","","","","","","","","","","","","","",""
"795","1","pic_response","html-keyboard-response","230","471525","0.0-1.0-9.0-3.0-1.3","09:40:10","3","","","","","","","<div>
            <img class='stim' src=""pictures/food/0.jpg""></div><div class=""button_prompt"">
                        <b>请用数字键1-3回答</b>
                        </div>","","","","","","","","","","","","","","","","","","",""
"795","null","sub_response","html-keyboard-response","231","472539","0.0-1.0-9.0-3.0-2.3","09:40:10","3","","","","","","","<div style='text-align: center;'>
                            <span style=""color: green; font-size: 40px""><b>正确！+1 pts</b></span></div>
                            ","","learn","0","0","0","learn","0","0","[0, 1, 2]","3","0","setsize","10S3A","food","2","1","0","1",""
"null","null","fixation","html-keyboard-response","232","473042","0.0-1.0-9.0-3.0-0.4","09:40:10","3","","","","","","","fixation","","","","","","","","","","","","","","","","","","",""
"1014","2","pic_response","html-keyboard-response","233","474057","0.0-1.0-9.0-3.0-1.4","09:40:10","3","","","","","","","<div>
            <img class='stim' src=""pictures/food/5.jpg""></div><div class=""button_prompt"">
                        <b>请用数字键1-3回答</b>
                        </div>","","","","","","","","","","","","","","","","","","",""
"1014","null","sub_response","html-keyboard-response","234","475062","0.0-1.0-9.0-3.0-2.4","09:40:10","3","","","","","","","<div style='text-align: center;'>
                            <span style=""color: green; font-size: 40px""><b>正确！+1 pts</b></span></div>
                            ","","learn","5","5","5","learn","1","1","[0, 1, 2]","4","0","setsize","10S3A","food","2","2","1","1",""
"null","null","fixation","html-keyboard-response","235","475572","0.0-1.0-9.0-3.0-0.5","09:40:10","3","","","","","","","fixation","","","","","","","","","","","","","","","","","","",""
"979","2","pic_response","html-keyboard-response","236","476552","0.0-1.0-9.0-3.0-1.5","09:40:10","3","","","","","","","<div>
            <img class='stim' src=""pictures/food/1.jpg""></div><div class=""button_prompt"">
                        <b>请用数字键1-3回答</b>
                        </div>","","","","","","","","","","","","","","","","","","",""
"979","null","sub_response","html-keyboard-response","237","477554","0.0-1.0-9.0-3.0-2.5","09:40:10","3","","","","","","","<div style='text-align: center;'>
                            <span style=""color: red; font-size: 40px""><b>错误！+0 pts</b></span></div>
                            ","","learn","1","1","1","learn","0","0","[0, 1, 2]","5","0","setsize","10S3A","food","2","0","1","0",""
"null","null","fixation","html-keyboard-response","238","478058","0.0-1.0-9.0-3.0-0.6","09:40:10","3","","","","","","","fixation","","","","","","","","","","","","","","","","","","",""
"1246","2","pic_response","html-keyboard-response","239","479305","0.0-1.0-9.0-3.0-1.6","09:40:10","3","","","","","","","<div>
            <img class='stim' src=""pictures/food/4.jpg""></div><div class=""button_prompt"">
                        <b>请用数字键1-3回答</b>
                        </div>","","","","","","","","","","","","","","","","","","",""
"1246","null","sub_response","html-keyboard-response","240","480321","0.0-1.0-9.0-3.0-2.6","09:40:10","3","","","","","","","<div style='text-align: center;'>
                            <span style=""color: green; font-size: 40px""><b>正确！+1 pts</b></span></div>
                            ","","learn","4","4","4","learn","1","1","[0, 1, 2]","6","0","setsize","10S3A","food","2","1","1","1",""
"null","null","fixation","html-keyboard-response","241","480825","0.0-1.0-9.0-3.0-0.7","09:40:10","3","","","","","","","fixation","","","","","","","","","","","","","","","","","","",""
"1092","3","pic_response","html-keyboard-response","242","481917","0.0-1.0-9.0-3.0-1.7","09:40:10","3","","","","","","","<div>
            <img class='stim' src=""pictures/food/2.jpg""></div><div class=""button_prompt"">
                        <b>请用数字键1-3回答</b>
                        </div>","","","","","","","","","","","","","","","","","","",""
"1092","null","sub_response","html-keyboard-response","243","482921","0.0-1.0-9.0-3.0-2.7","09:40:10","3","","","","","","","<div style='text-align: center;'>
                            <span style=""color: red; font-size: 40px""><b>错误！+0 pts</b></span></div>
                            ","","learn","2","2","2","learn","0","0","[0, 1, 2]","7","0","setsize","10S3A","food","2","0","2","0",""
"null","null","fixation","html-keyboard-response","244","483425","0.0-1.0-9.0-3.0-0.8","09:40:10","3","","","","","","","fixation","","","","","","","","","","","","","","","","","","",""
"892","3","pic_response","html-keyboard-response","245","484319","0.0-1.0-9.0-3.0-1.8","09:40:10","3","","","","","","","<div>
            <img class='stim' src=""pictures/food/7.jpg""></div><div class=""button_prompt"">
                        <b>请用数字键1-3回答</b>
                        </div>","","","","","","","","","","","","","","","","","","",""
"892","null","sub_response","html-keyboard-response","246","485321","0.0-1.0-9.0-3.0-2.8","09:40:10","3","","","","","","","<div style='text-align: center;'>
                            <span style=""color: green; font-size: 40px""><b>正确！+1 pts</b></span></div>
                            ","","learn","7","7","7","learn","2","2","[0, 1, 2]","8","0","setsize","10S3A","food","2","1","2","1",""
"null","null","fixation","html-keyboard-response","247","485823","0.0-1.0-9.0-3.0-0.9","09:40:10","3","","","","","","","fixation","","","","","","","","","","","","","","","","","","",""
"1760","3","pic_response","html-keyboard-response","248","487584","0.0-1.0-9.0-3.0-1.9","09:40:10","3","","","","","","","<div>
            <img class='stim' src=""pictures/food/9.jpg""></div><div class=""button_prompt"">
                        <b>请用数字键1-3回答</b>
                        </div>","","","","","","","","","","","","","","","","","","",""
"1760","null","sub_response","html-keyboard-response","249","488588","0.0-1.0-9.0-3.0-2.9","09:40:10","3","","","","","","","<div style='text-align: center;'>
                            <span style=""color: green; font-size: 40px""><b>正确！+1 pts</b></span></div>
                            ","","learn","9","9","9","learn","2","2","[0, 1, 2]","9","0","setsize","10S3A","food","2","2","2","1",""
"null","null","fixation","html-keyboard-response","250","489091","0.0-1.0-9.0-3.0-0.10","09:40:10","3","","","","","","","fixation","","","","","","","","","","","","","","","","","","",""
"1284","2","pic_response","html-keyboard-response","251","490375","0.0-1.0-9.0-3.0-1.10","09:40:10","3","","","","","","","<div>
            <img class='stim' src=""pictures/food/8.jpg""></div><div class=""button_prompt"">
                        <b>请用数字键1-3回答</b>
                        </div>","","","","","","","","","","","","","","","","","","",""
"1284","null","sub_response","html-keyboard-response","252","491383","0.0-1.0-9.0-3.0-2.10","09:40:10","3","","","","","","","<div style='text-align: center;'>
                            <span style=""color: red; font-size: 40px""><b>错误！+0 pts</b></span></div>
                            ","","learn","8","8","8","learn","2","2","[0, 1, 2]","10","1","setsize","10S3A","food","2","0","1","0",""
"null","null","fixation","html-keyboard-response","253","491891","0.0-1.0-9.0-3.0-0.11","09:40:10","3","","","","","","","fixation","","","","","","","","","","","","","","","","","","",""
"1831","3","pic_response","html-keyboard-response","254","493723","0.0-1.0-9.0-3.0-1.11","09:40:10","3","","","","","","","<div>
            <img class='stim' src=""pictures/food/2.jpg""></div><div class=""button_prompt"">
                        <b>请用数字键1-3回答</b>
                        </div>","","","","","","","","","","","","","","","","","","",""
"1831","null","sub_response","html-keyboard-response","255","494735","0.0-1.0-9.0-3.0-2.11","09:40:10","3","","","","","","","<div style='text-align: center;'>
                            <span style=""color: red; font-size: 40px""><b>错误！+0 pts</b></span></div>
                            ","","learn","2","2","2","learn","0","0","[0, 1, 2]","11","1","setsize","10S3A","food","2","0","2","0",""
"null","null","fixation","html-keyboard-response","256","495240","0.0-1.0-9.0-3.0-0.12","09:40:10","3","","","","","","","fixation","","","","","","","","","","","","","","","","","","",""
"2082","1","pic_response","html-keyboard-response","257","497323","0.0-1.0-9.0-3.0-1.12","09:40:10","3","","","","","","","<div>
            <img class='stim' src=""pictures/food/9.jpg""></div><div class=""button_prompt"">
                        <b>请用数字键1-3回答</b>
                        </div>","","","","","","","","","","","","","","","","","","",""
"2082","null","sub_response","html-keyboard-response","258","498327","0.0-1.0-9.0-3.0-2.12","09:40:10","3","","","","","","","<div style='text-align: center;'>
                            <span style=""color: red; font-size: 40px""><b>错误！+0 pts</b></span></div>
                            ","","learn","9","9","9","learn","2","2","[0, 1, 2]","12","1","setsize","10S3A","food","2","0","0","0",""
"null","null","fixation","html-keyboard-response","259","498841","0.0-1.0-9.0-3.0-0.13","09:40:10","3","","","","","","","fixation","","","","","","","","","","","","","","","","","","",""
"958","3","pic_response","html-keyboard-response","260","499800","0.0-1.0-9.0-3.0-1.13","09:40:10","3","","","","","","","<div>
            <img class='stim' src=""pictures/food/7.jpg""></div><div class=""button_prompt"">
                        <b>请用数字键1-3回答</b>
                        </div>","","","","","","","","","","","","","","","","","","",""
"958","null","sub_response","html-keyboard-response","261","500804","0.0-1.0-9.0-3.0-2.13","09:40:10","3","","","","","","","<div style='text-align: center;'>
                            <span style=""color: green; font-size: 40px""><b>正确！+1 pts</b></span></div>
                            ","","learn","7","7","7","learn","2","2","[0, 1, 2]","13","1","setsize","10S3A","food","2","1","2","1",""
"null","null","fixation","html-keyboard-response","262","501306","0.0-1.0-9.0-3.0-0.14","09:40:10","3","","","","","","","fixation","","","","","","","","","","","","","","","","","","",""
"1367","1","pic_response","html-keyboard-response","263","502673","0.0-1.0-9.0-3.0-1.14","09:40:10","3","","","","","","","<div>
            <img class='stim' src=""pictures/food/3.jpg""></div><div class=""button_prompt"">
                        <b>请用数字键1-3回答</b>
                        </div>","","","","","","","","","","","","","","","","","","",""
"1367","null","sub_response","html-keyboard-response","264","503675","0.0-1.0-9.0-3.0-2.14","09:40:10","3","","","","","","","<div style='text-align: center;'>
                            <span style=""color: red; font-size: 40px""><b>错误！+0 pts</b></span></div>
                            ","","learn","3","3","3","learn","1","1","[0, 1, 2]","14","1","setsize","10S3A","food","2","0","0","0",""
"null","null","fixation","html-keyboard-response","265","504182","0.0-1.0-9.0-3.0-0.15","09:40:10","3","","","","","","","fixation","","","","","","","","","","","","","","","","","","",""
"1043","3","pic_response","html-keyboard-response","266","505226","0.0-1.0-9.0-3.0-1.15","09:40:10","3","","","","","","","<div>
            <img class='stim' src=""pictures/food/4.jpg""></div><div class=""button_prompt"">
                        <b>请用数字键1-3回答</b>
                        </div>","","","","","","","","","","","","","","","","","","",""
"1043","null","sub_response","html-keyboard-response","267","506230","0.0-1.0-9.0-3.0-2.15","09:40:10","3","","","","","","","<div style='text-align: center;'>
                            <span style=""color: red; font-size: 40px""><b>错误！+0 pts</b></span></div>
                            ","","learn","4","4","4","learn","1","1","[0, 1, 2]","15","1","setsize","10S3A","food","2","0","2","0",""
"null","null","fixation","html-keyboard-response","268","506737","0.0-1.0-9.0-3.0-0.16","09:40:10","3","","","","","","","fixation","","","","","","","","","","","","","","","","","","",""
"955","2","pic_response","html-keyboard-response","269","507693","0.0-1.0-9.0-3.0-1.16","09:40:10","3","","","","","","","<div>
            <img class='stim' src=""pictures/food/0.jpg""></div><div class=""button_prompt"">
                        <b>请用数字键1-3回答</b>
                        </div>","","","","","","","","","","","","","","","","","","",""
"955","null","sub_response","html-keyboard-response","270","508700","0.0-1.0-9.0-3.0-2.16","09:40:10","3","","","","","","","<div style='text-align: center;'>
                            <span style=""color: red; font-size: 40px""><b>错误！+0 pts</b></span></div>
                            ","","learn","0","0","0","learn","0","0","[0, 1, 2]","16","1","setsize","10S3A","food","2","0","1","0",""
"null","null","fixation","html-keyboard-response","271","509206","0.0-1.0-9.0-3.0-0.17","09:40:10","3","","","","","","","fixation","","","","","","","","","","","","","","","","","","",""
"1497","2","pic_response","html-keyboard-response","272","510704","0.0-1.0-9.0-3.0-1.17","09:40:10","3","","","","","","","<div>
            <img class='stim' src=""pictures/food/5.jpg""></div><div class=""button_prompt"">
                        <b>请用数字键1-3回答</b>
                        </div>","","","","","","","","","","","","","","","","","","",""
"1497","null","sub_response","html-keyboard-response","273","511708","0.0-1.0-9.0-3.0-2.17","09:40:10","3","","","","","","","<div style='text-align: center;'>
                            <span style=""color: green; font-size: 40px""><b>正确！+1 pts</b></span></div>
                            ","","learn","5","5","5","learn","1","1","[0, 1, 2]","17","1","setsize","10S3A","food","2","1","1","1",""
"null","null","fixation","html-keyboard-response","274","512209","0.0-1.0-9.0-3.0-0.18","09:40:10","3","","","","","","","fixation","","","","","","","","","","","","","","","","","","",""
"1625","3","pic_response","html-keyboard-response","275","513835","0.0-1.0-9.0-3.0-1.18","09:40:10","3","","","","","","","<div>
            <img class='stim' src=""pictures/food/1.jpg""></div><div class=""button_prompt"">
                        <b>请用数字键1-3回答</b>
                        </div>","","","","","","","","","","","","","","","","","","",""
"1625","null","sub_response","html-keyboard-response","276","514849","0.0-1.0-9.0-3.0-2.18","09:40:10","3","","","","","","","<div style='text-align: center;'>
                            <span style=""color: red; font-size: 40px""><b>错误！+0 pts</b></span></div>
                            ","","learn","1","1","1","learn","0","0","[0, 1, 2]","18","1","setsize","10S3A","food","2","0","2","0",""
"null","null","fixation","html-keyboard-response","277","515351","0.0-1.0-9.0-3.0-0.19","09:40:10","3","","","","","","","fixation","","","","","","","","","","","","","","","","","","",""
"1420","2","pic_response","html-keyboard-response","278","516771","0.0-1.0-9.0-3.0-1.19","09:40:10","3","","","","","","","<div>
            <img class='stim' src=""pictures/food/6.jpg""></div><div class=""button_prompt"">
                        <b>请用数字键1-3回答</b>
                        </div>","","","","","","","","","","","","","","","","","","",""
"1420","null","sub_response","html-keyboard-response","279","517772","0.0-1.0-9.0-3.0-2.19","09:40:10","3","","","","","","","<div style='text-align: center;'>
                            <span style=""color: red; font-size: 40px""><b>错误！+0 pts</b></span></div>
                            ","","learn","6","6","6","learn","2","2","[0, 1, 2]","19","1","setsize","10S3A","food","2","0","1","0",""
"null","null","fixation","html-keyboard-response","280","518274","0.0-1.0-9.0-3.0-0.20","09:40:10","3","","","","","","","fixation","","","","","","","","","","","","","","","","","","",""
"1476","2","pic_response","html-keyboard-response","281","519751","0.0-1.0-9.0-3.0-1.20","09:40:10","3","","","","","","","<div>
            <img class='stim' src=""pictures/food/2.jpg""></div><div class=""button_prompt"">
                        <b>请用数字键1-3回答</b>
                        </div>","","","","","","","","","","","","","","","","","","",""
"1476","null","sub_response","html-keyboard-response","282","520755","0.0-1.0-9.0-3.0-2.20","09:40:10","3","","","","","","","<div style='text-align: center;'>
                            <span style=""color: red; font-size: 40px""><b>错误！+0 pts</b></span></div>
                            ","","learn","2","2","2","learn","0","0","[0, 1, 2]","20","2","setsize","10S3A","food","2","0","1","0",""
"null","null","fixation","html-keyboard-response","283","521269","0.0-1.0-9.0-3.0-0.21","09:40:10","3","","","","","","","fixation","","","","","","","","","","","","","","","","","","",""
"1539","3","pic_response","html-keyboard-response","284","522809","0.0-1.0-9.0-3.0-1.21","09:40:10","3","","","","","","","<div>
            <img class='stim' src=""pictures/food/1.jpg""></div><div class=""button_prompt"">
                        <b>请用数字键1-3回答</b>
                        </div>","","","","","","","","","","","","","","","","","","",""
"1539","null","sub_response","html-keyboard-response","285","523813","0.0-1.0-9.0-3.0-2.21","09:40:10","3","","","","","","","<div style='text-align: center;'>
                            <span style=""color: red; font-size: 40px""><b>错误！+0 pts</b></span></div>
                            ","","learn","1","1","1","learn","0","0","[0, 1, 2]","21","2","setsize","10S3A","food","2","0","2","0",""
"null","null","fixation","html-keyboard-response","286","524318","0.0-1.0-9.0-3.0-0.22","09:40:10","3","","","","","","","fixation","","","","","","","","","","","","","","","","","","",""
"821","3","pic_response","html-keyboard-response","287","525139","0.0-1.0-9.0-3.0-1.22","09:40:10","3","","","","","","","<div>
            <img class='stim' src=""pictures/food/4.jpg""></div><div class=""button_prompt"">
                        <b>请用数字键1-3回答</b>
                        </div>","","","","","","","","","","","","","","","","","","",""
"821","null","sub_response","html-keyboard-response","288","526142","0.0-1.0-9.0-3.0-2.22","09:40:10","3","","","","","","","<div style='text-align: center;'>
                            <span style=""color: red; font-size: 40px""><b>错误！+0 pts</b></span></div>
                            ","","learn","4","4","4","learn","1","1","[0, 1, 2]","22","2","setsize","10S3A","food","2","0","2","0",""
"null","null","fixation","html-keyboard-response","289","526657","0.0-1.0-9.0-3.0-0.23","09:40:10","3","","","","","","","fixation","","","","","","","","","","","","","","","","","","",""
"1022","2","pic_response","html-keyboard-response","290","527680","0.0-1.0-9.0-3.0-1.23","09:40:10","3","","","","","","","<div>
            <img class='stim' src=""pictures/food/5.jpg""></div><div class=""button_prompt"">
                        <b>请用数字键1-3回答</b>
                        </div>","","","","","","","","","","","","","","","","","","",""
"1022","null","sub_response","html-keyboard-response","291","528687","0.0-1.0-9.0-3.0-2.23","09:40:10","3","","","","","","","<div style='text-align: center;'>
                            <span style=""color: green; font-size: 40px""><b>正确！+1 pts</b></span></div>
                            ","","learn","5","5","5","learn","1","1","[0, 1, 2]","23","2","setsize","10S3A","food","2","1","1","1",""
"null","null","fixation","html-keyboard-response","292","529199","0.0-1.0-9.0-3.0-0.24","09:40:10","3","","","","","","","fixation","","","","","","","","","","","","","","","","","","",""
"1439","3","pic_response","html-keyboard-response","293","530639","0.0-1.0-9.0-3.0-1.24","09:40:10","3","","","","","","","<div>
            <img class='stim' src=""pictures/food/6.jpg""></div><div class=""button_prompt"">
                        <b>请用数字键1-3回答</b>
                        </div>","","","","","","","","","","","","","","","","","","",""
"1439","null","sub_response","html-keyboard-response","294","531642","0.0-1.0-9.0-3.0-2.24","09:40:10","3","","","","","","","<div style='text-align: center;'>
                            <span style=""color: green; font-size: 40px""><b>正确！+1 pts</b></span></div>
                            ","","learn","6","6","6","learn","2","2","[0, 1, 2]","24","2","setsize","10S3A","food","2","2","2","1",""
"null","null","fixation","html-keyboard-response","295","532143","0.0-1.0-9.0-3.0-0.25","09:40:10","3","","","","","","","fixation","","","","","","","","","","","","","","","","","","",""
"1770","2","pic_response","html-keyboard-response","296","533914","0.0-1.0-9.0-3.0-1.25","09:40:10","3","","","","","","","<div>
            <img class='stim' src=""pictures/food/0.jpg""></div><div class=""button_prompt"">
                        <b>请用数字键1-3回答</b>
                        </div>","","","","","","","","","","","","","","","","","","",""
"1770","null","sub_response","html-keyboard-response","297","534919","0.0-1.0-9.0-3.0-2.25","09:40:10","3","","","","","","","<div style='text-align: center;'>
                            <span style=""color: red; font-size: 40px""><b>错误！+0 pts</b></span></div>
                            ","","learn","0","0","0","learn","0","0","[0, 1, 2]","25","2","setsize","10S3A","food","2","0","1","0",""
"null","null","fixation","html-keyboard-response","298","535423","0.0-1.0-9.0-3.0-0.26","09:40:10","3","","","","","","","fixation","","","","","","","","","","","","","","","","","","",""
"1326","2","pic_response","html-keyboard-response","299","536750","0.0-1.0-9.0-3.0-1.26","09:40:10","3","","","","","","","<div>
            <img class='stim' src=""pictures/food/7.jpg""></div><div class=""button_prompt"">
                        <b>请用数字键1-3回答</b>
                        </div>","","","","","","","","","","","","","","","","","","",""
"1326","null","sub_response","html-keyboard-response","300","537757","0.0-1.0-9.0-3.0-2.26","09:40:10","3","","","","","","","<div style='text-align: center;'>
                            <span style=""color: red; font-size: 40px""><b>错误！+0 pts</b></span></div>
                            ","","learn","7","7","7","learn","2","2","[0, 1, 2]","26","2","setsize","10S3A","food","2","0","1","0",""
"null","null","fixation","html-keyboard-response","301","538262","0.0-1.0-9.0-3.0-0.27","09:40:10","3","","","","","","","fixation","","","","","","","","","","","","","","","","","","",""
"1212","3","pic_response","html-keyboard-response","302","539475","0.0-1.0-9.0-3.0-1.27","09:40:10","3","","","","","","","<div>
            <img class='stim' src=""pictures/food/8.jpg""></div><div class=""button_prompt"">
                        <b>请用数字键1-3回答</b>
                        </div>","","","","","","","","","","","","","","","","","","",""
"1212","null","sub_response","html-keyboard-response","303","540482","0.0-1.0-9.0-3.0-2.27","09:40:10","3","","","","","","","<div style='text-align: center;'>
                            <span style=""color: green; font-size: 40px""><b>正确！+1 pts</b></span></div>
                            ","","learn","8","8","8","learn","2","2","[0, 1, 2]","27","2","setsize","10S3A","food","2","1","2","1",""
"null","null","fixation","html-keyboard-response","304","540988","0.0-1.0-9.0-3.0-0.28","09:40:10","3","","","","","","","fixation","","","","","","","","","","","","","","","","","","",""
"883","3","pic_response","html-keyboard-response","305","541872","0.0-1.0-9.0-3.0-1.28","09:40:10","3","","","","","","","<div>
            <img class='stim' src=""pictures/food/9.jpg""></div><div class=""button_prompt"">
                        <b>请用数字键1-3回答</b>
                        </div>","","","","","","","","","","","","","","","","","","",""
"883","null","sub_response","html-keyboard-response","306","542876","0.0-1.0-9.0-3.0-2.28","09:40:10","3","","","","","","","<div style='text-align: center;'>
                            <span style=""color: green; font-size: 40px""><b>正确！+1 pts</b></span></div>
                            ","","learn","9","9","9","learn","2","2","[0, 1, 2]","28","2","setsize","10S3A","food","2","2","2","1",""
"null","null","fixation","html-keyboard-response","307","543378","0.0-1.0-9.0-3.0-0.29","09:40:10","3","","","","","","","fixation","","","","","","","","","","","","","","","","","","",""
"956","3","pic_response","html-keyboard-response","308","544336","0.0-1.0-9.0-3.0-1.29","09:40:10","3","","","","","","","<div>
            <img class='stim' src=""pictures/food/3.jpg""></div><div class=""button_prompt"">
                        <b>请用数字键1-3回答</b>
                        </div>","","","","","","","","","","","","","","","","","","",""
"956","null","sub_response","html-keyboard-response","309","545339","0.0-1.0-9.0-3.0-2.29","09:40:10","3","","","","","","","<div style='text-align: center;'>
                            <span style=""color: red; font-size: 40px""><b>错误！+0 pts</b></span></div>
                            ","","learn","3","3","3","learn","1","1","[0, 1, 2]","29","2","setsize","10S3A","food","2","0","2","0",""
"null","null","fixation","html-keyboard-response","310","545844","0.0-1.0-9.0-3.0-0.30","09:40:10","3","","","","","","","fixation","","","","","","","","","","","","","","","","","","",""
"1222","3","pic_response","html-keyboard-response","311","547066","0.0-1.0-9.0-3.0-1.30","09:40:10","3","","","","","","","<div>
            <img class='stim' src=""pictures/food/8.jpg""></div><div class=""button_prompt"">
                        <b>请用数字键1-3回答</b>
                        </div>","","","","","","","","","","","","","","","","","","",""
"1222","null","sub_response","html-keyboard-response","312","548074","0.0-1.0-9.0-3.0-2.30","09:40:10","3","","","","","","","<div style='text-align: center;'>
                            <span style=""color: green; font-size: 40px""><b>正确！+1 pts</b></span></div>
                            ","","learn","8","8","8","learn","2","2","[0, 1, 2]","30","3","setsize","10S3A","food","2","1","2","1",""
"null","null","fixation","html-keyboard-response","313","548580","0.0-1.0-9.0-3.0-0.31","09:40:10","3","","","","","","","fixation","","","","","","","","","","","","","","","","","","",""
"770","3","pic_response","html-keyboard-response","314","549351","0.0-1.0-9.0-3.0-1.31","09:40:10","3","","","","","","","<div>
            <img class='stim' src=""pictures/food/4.jpg""></div><div class=""button_prompt"">
                        <b>请用数字键1-3回答</b>
                        </div>","","","","","","","","","","","","","","","","","","",""
"770","null","sub_response","html-keyboard-response","315","550355","0.0-1.0-9.0-3.0-2.31","09:40:10","3","","","","","","","<div style='text-align: center;'>
                            <span style=""color: red; font-size: 40px""><b>错误！+0 pts</b></span></div>
                            ","","learn","4","4","4","learn","1","1","[0, 1, 2]","31","3","setsize","10S3A","food","2","0","2","0",""
"null","null","fixation","html-keyboard-response","316","550858","0.0-1.0-9.0-3.0-0.32","09:40:10","3","","","","","","","fixation","","","","","","","","","","","","","","","","","","",""
"802","3","pic_response","html-keyboard-response","317","551661","0.0-1.0-9.0-3.0-1.32","09:40:10","3","","","","","","","<div>
            <img class='stim' src=""pictures/food/2.jpg""></div><div class=""button_prompt"">
                        <b>请用数字键1-3回答</b>
                        </div>","","","","","","","","","","","","","","","","","","",""
"802","null","sub_response","html-keyboard-response","318","552665","0.0-1.0-9.0-3.0-2.32","09:40:10","3","","","","","","","<div style='text-align: center;'>
                            <span style=""color: red; font-size: 40px""><b>错误！+0 pts</b></span></div>
                            ","","learn","2","2","2","learn","0","0","[0, 1, 2]","32","3","setsize","10S3A","food","2","0","2","0",""
"null","null","fixation","html-keyboard-response","319","553172","0.0-1.0-9.0-3.0-0.33","09:40:10","3","","","","","","","fixation","","","","","","","","","","","","","","","","","","",""
"735","3","pic_response","html-keyboard-response","320","553908","0.0-1.0-9.0-3.0-1.33","09:40:10","3","","","","","","","<div>
            <img class='stim' src=""pictures/food/5.jpg""></div><div class=""button_prompt"">
                        <b>请用数字键1-3回答</b>
                        </div>","","","","","","","","","","","","","","","","","","",""
"735","null","sub_response","html-keyboard-response","321","554915","0.0-1.0-9.0-3.0-2.33","09:40:10","3","","","","","","","<div style='text-align: center;'>
