"rt","response","screen_id","trial_type","trial_index","time_elapsed","internal_node_id","start_time","n_Prac","success","timeout","failed_images","failed_audio","failed_video","view_history","stimulus","question_order","stage","s","word","word_id","phase","a_cor","a_real","a_ava","trial","tps","task_type","block_typ","pic_typ","block_id","cum_r","a","r","plugin_name"
"48696","{""sub_id"":""60"",""task_type"":""task1"",""name"":""何杰"",""gender"":""M""}","basic_info","survey-html-form","0","48700","0.0-0.0","21:18:08","4","","","","","","","","","","","","","","","","","","","","","","","","","",""
"","","","preload","1","48831","0.0-1.0-0.0","21:18:08","4","true","false","[]","[]","[]","","","","","","","","","","","","","","","","","","","","",""
"","","","preload","2","48849","0.0-1.0-1.0","21:18:08","4","true","false","[]","[]","[]","","","","","","","","","","","","","","","","","","","","",""
"","","","fullscreen","3","51243","0.0-1.0-2.0","21:18:08","4","true","","","","","","","","","","","","","","","","","","","","","","","","",""
"46414","","instruct","instructions","4","97659","0.0-1.0-3.0-0.0","21:18:08","4","","","","","","[{""page_index"":0,""viewing_time"":11773},{""page_index"":1,""viewing_time"":11350},{""page_index"":2,""viewing_time"":11289},{""page_index"":1,""viewing_time"":249},{""page_index"":0,""viewing_time"":2672},{""page_index"":1,""viewing_time"":4686},{""page_index"":2,""viewing_time"":4393}]","","","","","","","","","","","","","","","","","","","",""
"8294","{""Q0"":"""",""task1"":""<span style='font-size: 24px'>学习图片和数字的对应关系</span>"",""task2"":""<span style='font-size: 24px'> 数字键1-3 </span>"",""task3"":""<span style='font-size: 24px'> 看到图片选出正确对应的数字 </span>""}","question","survey-multi-choice","5","105955","0.0-1.0-3.0-1.0","21:18:08","4","","","","","","","","[0,1,2,3]","","","","","","","","","","","","","","","","","",""
"2434"," ","inst_q","html-keyboard-response","6","108392","0.0-1.0-3.0-2.0","21:18:08","4","","","","","","","inst","","1","","","","","","","","","","","","","","","","",""
"14496","","instruct","instructions","7","122890","0.0-1.0-3.1-0.1","21:18:08","4","","","","","","[{""page_index"":0,""viewing_time"":5024},{""page_index"":1,""viewing_time"":3400},{""page_index"":2,""viewing_time"":6072}]","","","","","","","","","","","","","","","","","","","",""
"11207","{""Q0"":"""",""task1"":""<span style='font-size: 24px'>学习图片和数字的对应关系</span>"",""task2"":""<span style='font-size: 24px'> 图片下方标注为可用的数字键（数字键1-3或0-9） </span>"",""task3"":""<span style='font-size: 24px'> 看到图片选出正确对应的数字 </span>""}","question","survey-multi-choice","8","134100","0.0-1.0-3.1-1.1","21:18:08","4","","","","","","","","[0,1,2,3]","","","","","","","","","","","","","","","","","",""
"3442"," ","inst_q","html-keyboard-response","9","137545","0.0-1.0-3.1-2.1","21:18:08","4","","","","","","","inst","","1","","","","","","","","","","","","","","","","",""
"","","","preload","10","137576","0.0-1.0-4.0-0.0","21:18:08","4","true","false","[]","[]","[]","","","","","","","","","","","","","","","","","","","","",""
"4871"," ","","html-keyboard-response","11","142448","0.0-1.0-4.0-1.0","21:18:08","4","","","","","","","<div style='font-size: 32px; text-align: center;'
                    <p>请学习图片和数字之间的对应关系</p>
                    <p>我们将<span style='color: blue'><b> 告诉 </b></span>您选择的对错。请根据反馈学习。</p>
                    <p>请按""空格""继续实验。</p></div>","","","","","","","","","","","","","","","","","","",""
"23327"," ","inst","html-keyboard-response","12","165776","0.0-1.0-4.0-2.0","21:18:08","4","","","","","","","<img class='instruct_stim' src=""instruction/prac3.PNG""></div>","","","","","","","","","","","","","","","","","","",""
"null","null","fixation","html-keyboard-response","13","166284","0.0-1.0-4.0-3.0-0.0","21:18:08","4","","","","","","","fixation","","","","","","","","","","","","","","","","","","",""
"1007","1","pic_response","html-keyboard-response","14","167294","0.0-1.0-4.0-3.0-1.0","21:18:08","4","","","","","","","<div>
            <img class='stim' src=""pictures/prac/2.jpg""></div><div class=""button_prompt"">
                        <b>请用数字键1-3回答</b>
                        </div>","","","","","","","","","","","","","","","","","","",""
"1007","null","sub_response","html-keyboard-response","15","168297","0.0-1.0-4.0-3.0-2.0","21:18:08","4","","","","","","","<div style='text-align: center;'>
                            <span style=""color: red; font-size: 40px""><b>错误！+0 pts</b></span></div>
                            ","","learn","2","2","2","learn","2","2","[0, 1, 2]","0","0","setsize","99","prac","0","0","0","0",""
"null","null","fixation","html-keyboard-response","16","168801","0.0-1.0-4.0-3.0-0.1","21:18:08","4","","","","","","","fixation","","","","","","","","","","","","","","","","","","",""
"1189","1","pic_response","html-keyboard-response","17","169992","0.0-1.0-4.0-3.0-1.1","21:18:08","4","","","","","","","<div>
            <img class='stim' src=""pictures/prac/1.jpg""></div><div class=""button_prompt"">
                        <b>请用数字键1-3回答</b>
                        </div>","","","","","","","","","","","","","","","","","","",""
"1189","null","sub_response","html-keyboard-response","18","170994","0.0-1.0-4.0-3.0-2.1","21:18:08","4","","","","","","","<div style='text-align: center;'>
                            <span style=""color: green; font-size: 40px""><b>正确！+1 pts</b></span></div>
                            ","","learn","1","1","1","learn","0","0","[0, 1, 2]","1","0","setsize","99","prac","0","1","0","1",""
"null","null","fixation","html-keyboard-response","19","171496","0.0-1.0-4.0-3.0-0.2","21:18:08","4","","","","","","","fixation","","","","","","","","","","","","","","","","","","",""
"1166","3","pic_response","html-keyboard-response","20","172663","0.0-1.0-4.0-3.0-1.2","21:18:08","4","","","","","","","<div>
            <img class='stim' src=""pictures/prac/0.jpg""></div><div class=""button_prompt"">
                        <b>请用数字键1-3回答</b>
                        </div>","","","","","","","","","","","","","","","","","","",""
"1166","null","sub_response","html-keyboard-response","21","173665","0.0-1.0-4.0-3.0-2.2","21:18:08","4","","","","","","","<div style='text-align: center;'>
                            <span style=""color: red; font-size: 40px""><b>错误！+0 pts</b></span></div>
                            ","","learn","0","0","0","learn","0","0","[0, 1, 2]","2","0","setsize","99","prac","0","0","2","0",""
"null","null","fixation","html-keyboard-response","22","174167","0.0-1.0-4.0-3.0-0.3","21:18:08","4","","","","","","","fixation","","","","","","","","","","","","","","","","","","",""
"1271","1","pic_response","html-keyboard-response","23","175439","0.0-1.0-4.0-3.0-1.3","21:18:08","4","","","","","","","<div>
            <img class='stim' src=""pictures/prac/1.jpg""></div><div class=""button_prompt"">
                        <b>请用数字键1-3回答</b>
                        </div>","","","","","","","","","","","","","","","","","","",""
"1271","null","sub_response","html-keyboard-response","24","176441","0.0-1.0-4.0-3.0-2.3","21:18:08","4","","","","","","","<div style='text-align: center;'>
                            <span style=""color: green; font-size: 40px""><b>正确！+1 pts</b></span></div>
                            ","","learn","1","1","1","learn","0","0","[0, 1, 2]","3","1","setsize","99","prac","0","1","0","1",""
"null","null","fixation","html-keyboard-response","25","176943","0.0-1.0-4.0-3.0-0.4","21:18:08","4","","","","","","","fixation","","","","","","","","","","","","","","","","","","",""
"1656","3","pic_response","html-keyboard-response","26","178600","0.0-1.0-4.0-3.0-1.4","21:18:08","4","","","","","","","<div>
            <img class='stim' src=""pictures/prac/2.jpg""></div><div class=""button_prompt"">
                        <b>请用数字键1-3回答</b>
                        </div>","","","","","","","","","","","","","","","","","","",""
"1656","null","sub_response","html-keyboard-response","27","179603","0.0-1.0-4.0-3.0-2.4","21:18:08","4","","","","","","","<div style='text-align: center;'>
                            <span style=""color: green; font-size: 40px""><b>正确！+1 pts</b></span></div>
                            ","","learn","2","2","2","learn","2","2","[0, 1, 2]","4","1","setsize","99","prac","0","2","2","1",""
"null","null","fixation","html-keyboard-response","28","180105","0.0-1.0-4.0-3.0-0.5","21:18:08","4","","","","","","","fixation","","","","","","","","","","","","","","","","","","",""
"1014","2","pic_response","html-keyboard-response","29","181120","0.0-1.0-4.0-3.0-1.5","21:18:08","4","","","","","","","<div>
            <img class='stim' src=""pictures/prac/0.jpg""></div><div class=""button_prompt"">
                        <b>请用数字键1-3回答</b>
                        </div>","","","","","","","","","","","","","","","","","","",""
"1014","null","sub_response","html-keyboard-response","30","182122","0.0-1.0-4.0-3.0-2.5","21:18:08","4","","","","","","","<div style='text-align: center;'>
                            <span style=""color: red; font-size: 40px""><b>错误！+0 pts</b></span></div>
                            ","","learn","0","0","0","learn","0","0","[0, 1, 2]","5","1","setsize","99","prac","0","0","1","0",""
"","","","preload","31","182127","0.0-1.0-4.1-0.1","21:18:08","4","true","false","[]","[]","[]","","","","","","","","","","","","","","","","","","","","",""
"2584"," ","","html-keyboard-response","32","184712","0.0-1.0-4.1-1.1","21:18:08","4","","","","","","","<div style='font-size: 32px; text-align: center;'
                    <p>请学习图片和数字之间的对应关系</p>
                    <p>我们将<span style='color: blue'><b> 告诉 </b></span>您选择的对错。请根据反馈学习。</p>
                    <p>请按""空格""继续实验。</p></div>","","","","","","","","","","","","","","","","","","",""
"2566"," ","inst","html-keyboard-response","33","187279","0.0-1.0-4.1-2.1","21:18:08","4","","","","","","","<img class='instruct_stim' src=""instruction/prac3.PNG""></div>","","","","","","","","","","","","","","","","","","",""
"null","null","fixation","html-keyboard-response","34","187780","0.0-1.0-4.1-3.1-0.6","21:18:08","4","","","","","","","fixation","","","","","","","","","","","","","","","","","","",""
"2251","2","pic_response","html-keyboard-response","35","190033","0.0-1.0-4.1-3.1-1.6","21:18:08","4","","","","","","","<div>
            <img class='stim' src=""pictures/prac/2.jpg""></div><div class=""button_prompt"">
                        <b>请用数字键1-3回答</b>
                        </div>","","","","","","","","","","","","","","","","","","",""
"2251","null","sub_response","html-keyboard-response","36","191035","0.0-1.0-4.1-3.1-2.6","21:18:08","4","","","","","","","<div style='text-align: center;'>
                            <span style=""color: red; font-size: 40px""><b>错误！+0 pts</b></span></div>
                            ","","learn","2","2","2","learn","2","2","[0, 1, 2]","0","0","setsize","99","prac","0","0","1","0",""
"null","null","fixation","html-keyboard-response","37","191536","0.0-1.0-4.1-3.1-0.7","21:18:08","4","","","","","","","fixation","","","","","","","","","","","","","","","","","","",""
"845","1","pic_response","html-keyboard-response","38","192382","0.0-1.0-4.1-3.1-1.7","21:18:08","4","","","","","","","<div>
            <img class='stim' src=""pictures/prac/1.jpg""></div><div class=""button_prompt"">
                        <b>请用数字键1-3回答</b>
                        </div>","","","","","","","","","","","","","","","","","","",""
"845","null","sub_response","html-keyboard-response","39","193383","0.0-1.0-4.1-3.1-2.7","21:18:08","4","","","","","","","<div style='text-align: center;'>
                            <span style=""color: green; font-size: 40px""><b>正确！+1 pts</b></span></div>
                            ","","learn","1","1","1","learn","0","0","[0, 1, 2]","1","0","setsize","99","prac","0","1","0","1",""
"null","null","fixation","html-keyboard-response","40","193885","0.0-1.0-4.1-3.1-0.8","21:18:08","4","","","","","","","fixation","","","","","","","","","","","","","","","","","","",""
"1954","2","pic_response","html-keyboard-response","41","195840","0.0-1.0-4.1-3.1-1.8","21:18:08","4","","","","","","","<div>
            <img class='stim' src=""pictures/prac/0.jpg""></div><div class=""button_prompt"">
                        <b>请用数字键1-3回答</b>
                        </div>","","","","","","","","","","","","","","","","","","",""
"1954","null","sub_response","html-keyboard-response","42","196842","0.0-1.0-4.1-3.1-2.8","21:18:08","4","","","","","","","<div style='text-align: center;'>
                            <span style=""color: red; font-size: 40px""><b>错误！+0 pts</b></span></div>
                            ","","learn","0","0","0","learn","0","0","[0, 1, 2]","2","0","setsize","99","prac","0","0","1","0",""
"null","null","fixation","html-keyboard-response","43","197344","0.0-1.0-4.1-3.1-0.9","21:18:08","4","","","","","","","fixation","","","","","","","","","","","","","","","","","","",""
"726","1","pic_response","html-keyboard-response","44","198072","0.0-1.0-4.1-3.1-1.9","21:18:08","4","","","","","","","<div>
            <img class='stim' src=""pictures/prac/1.jpg""></div><div class=""button_prompt"">
                        <b>请用数字键1-3回答</b>
                        </div>","","","","","","","","","","","","","","","","","","",""
"726","null","sub_response","html-keyboard-response","45","199075","0.0-1.0-4.1-3.1-2.9","21:18:08","4","","","","","","","<div style='text-align: center;'>
                            <span style=""color: green; font-size: 40px""><b>正确！+1 pts</b></span></div>
                            ","","learn","1","1","1","learn","0","0","[0, 1, 2]","3","1","setsize","99","prac","0","1","0","1",""
"null","null","fixation","html-keyboard-response","46","199577","0.0-1.0-4.1-3.1-0.10","21:18:08","4","","","","","","","fixation","","","","","","","","","","","","","","","","","","",""
"1182","3","pic_response","html-keyboard-response","47","200761","0.0-1.0-4.1-3.1-1.10","21:18:08","4","","","","","","","<div>
            <img class='stim' src=""pictures/prac/2.jpg""></div><div class=""button_prompt"">
                        <b>请用数字键1-3回答</b>
                        </div>","","","","","","","","","","","","","","","","","","",""
"1182","null","sub_response","html-keyboard-response","48","201762","0.0-1.0-4.1-3.1-2.10","21:18:08","4","","","","","","","<div style='text-align: center;'>
                            <span style=""color: green; font-size: 40px""><b>正确！+1 pts</b></span></div>
                            ","","learn","2","2","2","learn","2","2","[0, 1, 2]","4","1","setsize","99","prac","0","2","2","1",""
"null","null","fixation","html-keyboard-response","49","202280","0.0-1.0-4.1-3.1-0.11","21:18:08","4","","","","","","","fixation","","","","","","","","","","","","","","","","","","",""
"833","2","pic_response","html-keyboard-response","50","203114","0.0-1.0-4.1-3.1-1.11","21:18:08","4","","","","","","","<div>
            <img class='stim' src=""pictures/prac/0.jpg""></div><div class=""button_prompt"">
                        <b>请用数字键1-3回答</b>
                        </div>","","","","","","","","","","","","","","","","","","",""
"833","null","sub_response","html-keyboard-response","51","204116","0.0-1.0-4.1-3.1-2.11","21:18:08","4","","","","","","","<div style='text-align: center;'>
                            <span style=""color: red; font-size: 40px""><b>错误！+0 pts</b></span></div>
                            ","","learn","0","0","0","learn","0","0","[0, 1, 2]","5","1","setsize","99","prac","0","0","1","0",""
"","","","preload","52","204122","0.0-1.0-4.2-0.2","21:18:08","4","true","false","[]","[]","[]","","","","","","","","","","","","","","","","","","","","",""
"2447"," ","","html-keyboard-response","53","206570","0.0-1.0-4.2-1.2","21:18:08","4","","","","","","","<div style='font-size: 32px; text-align: center;'
                    <p>请学习图片和数字之间的对应关系</p>
                    <p>我们将<span style='color: blue'><b> 告诉 </b></span>您选择的对错。请根据反馈学习。</p>
                    <p>请按""空格""继续实验。</p></div>","","","","","","","","","","","","","","","","","","",""
"926"," ","inst","html-keyboard-response","54","207497","0.0-1.0-4.2-2.2","21:18:08","4","","","","","","","<img class='instruct_stim' src=""instruction/prac3.PNG""></div>","","","","","","","","","","","","","","","","","","",""
"null","null","fixation","html-keyboard-response","55","207999","0.0-1.0-4.2-3.2-0.12","21:18:08","4","","","","","","","fixation","","","","","","","","","","","","","","","","","","",""
"1546","3","pic_response","html-keyboard-response","56","209547","0.0-1.0-4.2-3.2-1.12","21:18:08","4","","","","","","","<div>
            <img class='stim' src=""pictures/prac/2.jpg""></div><div class=""button_prompt"">
                        <b>请用数字键1-3回答</b>
                        </div>","","","","","","","","","","","","","","","","","","",""
"1546","null","sub_response","html-keyboard-response","57","210549","0.0-1.0-4.2-3.2-2.12","21:18:08","4","","","","","","","<div style='text-align: center;'>
                            <span style=""color: green; font-size: 40px""><b>正确！+1 pts</b></span></div>
                            ","","learn","2","2","2","learn","2","2","[0, 1, 2]","0","0","setsize","99","prac","0","1","2","1",""
"null","null","fixation","html-keyboard-response","58","211051","0.0-1.0-4.2-3.2-0.13","21:18:08","4","","","","","","","fixation","","","","","","","","","","","","","","","","","","",""
"715","1","pic_response","html-keyboard-response","59","211767","0.0-1.0-4.2-3.2-1.13","21:18:08","4","","","","","","","<div>
            <img class='stim' src=""pictures/prac/1.jpg""></div><div class=""button_prompt"">
                        <b>请用数字键1-3回答</b>
                        </div>","","","","","","","","","","","","","","","","","","",""
"715","null","sub_response","html-keyboard-response","60","212769","0.0-1.0-4.2-3.2-2.13","21:18:08","4","","","","","","","<div style='text-align: center;'>
                            <span style=""color: green; font-size: 40px""><b>正确！+1 pts</b></span></div>
                            ","","learn","1","1","1","learn","0","0","[0, 1, 2]","1","0","setsize","99","prac","0","2","0","1",""
"null","null","fixation","html-keyboard-response","61","213271","0.0-1.0-4.2-3.2-0.14","21:18:08","4","","","","","","","fixation","","","","","","","","","","","","","","","","","","",""
"520","3","pic_response","html-keyboard-response","62","213792","0.0-1.0-4.2-3.2-1.14","21:18:08","4","","","","","","","<div>
            <img class='stim' src=""pictures/prac/0.jpg""></div><div class=""button_prompt"">
                        <b>请用数字键1-3回答</b>
                        </div>","","","","","","","","","","","","","","","","","","",""
"520","null","sub_response","html-keyboard-response","63","214794","0.0-1.0-4.2-3.2-2.14","21:18:08","4","","","","","","","<div style='text-align: center;'>
                            <span style=""color: red; font-size: 40px""><b>错误！+0 pts</b></span></div>
                            ","","learn","0","0","0","learn","0","0","[0, 1, 2]","2","0","setsize","99","prac","0","0","2","0",""
"null","null","fixation","html-keyboard-response","64","215297","0.0-1.0-4.2-3.2-0.15","21:18:08","4","","","","","","","fixation","","","","","","","","","","","","","","","","","","",""
"796","1","pic_response","html-keyboard-response","65","216096","0.0-1.0-4.2-3.2-1.15","21:18:08","4","","","","","","","<div>
            <img class='stim' src=""pictures/prac/1.jpg""></div><div class=""button_prompt"">
                        <b>请用数字键1-3回答</b>
                        </div>","","","","","","","","","","","","","","","","","","",""
"796","null","sub_response","html-keyboard-response","66","217097","0.0-1.0-4.2-3.2-2.15","21:18:08","4","","","","","","","<div style='text-align: center;'>
                            <span style=""color: green; font-size: 40px""><b>正确！+1 pts</b></span></div>
                            ","","learn","1","1","1","learn","0","0","[0, 1, 2]","3","1","setsize","99","prac","0","1","0","1",""
"null","null","fixation","html-keyboard-response","67","217599","0.0-1.0-4.2-3.2-0.16","21:18:08","4","","","","","","","fixation","","","","","","","","","","","","","","","","","","",""
"1529","3","pic_response","html-keyboard-response","68","219129","0.0-1.0-4.2-3.2-1.16","21:18:08","4","","","","","","","<div>
            <img class='stim' src=""pictures/prac/2.jpg""></div><div class=""button_prompt"">
                        <b>请用数字键1-3回答</b>
                        </div>","","","","","","","","","","","","","","","","","","",""
"1529","null","sub_response","html-keyboard-response","69","220131","0.0-1.0-4.2-3.2-2.16","21:18:08","4","","","","","","","<div style='text-align: center;'>
                            <span style=""color: green; font-size: 40px""><b>正确！+1 pts</b></span></div>
                            ","","learn","2","2","2","learn","2","2","[0, 1, 2]","4","1","setsize","99","prac","0","2","2","1",""
"null","null","fixation","html-keyboard-response","70","220632","0.0-1.0-4.2-3.2-0.17","21:18:08","4","","","","","","","fixation","","","","","","","","","","","","","","","","","","",""
"831","2","pic_response","html-keyboard-response","71","221465","0.0-1.0-4.2-3.2-1.17","21:18:08","4","","","","","","","<div>
            <img class='stim' src=""pictures/prac/0.jpg""></div><div class=""button_prompt"">
                        <b>请用数字键1-3回答</b>
                        </div>","","","","","","","","","","","","","","","","","","",""
"831","null","sub_response","html-keyboard-response","72","222467","0.0-1.0-4.2-3.2-2.17","21:18:08","4","","","","","","","<div style='text-align: center;'>
                            <span style=""color: red; font-size: 40px""><b>错误！+0 pts</b></span></div>
                            ","","learn","0","0","0","learn","0","0","[0, 1, 2]","5","1","setsize","99","prac","0","0","1","0",""
"","","","preload","73","222475","0.0-1.0-4.3-0.3","21:18:08","4","true","false","[]","[]","[]","","","","","","","","","","","","","","","","","","","","",""
"1692"," ","","html-keyboard-response","74","224168","0.0-1.0-4.3-1.3","21:18:08","4","","","","","","","<div style='font-size: 32px; text-align: center;'
                    <p>请学习图片和数字之间的对应关系</p>
                    <p>我们将<span style='color: blue'><b> 告诉 </b></span>您选择的对错。请根据反馈学习。</p>
                    <p>请按""空格""继续实验。</p></div>","","","","","","","","","","","","","","","","","","",""
"975"," ","inst","html-keyboard-response","75","225144","0.0-1.0-4.3-2.3","21:18:08","4","","","","","","","<img class='instruct_stim' src=""instruction/prac3.PNG""></div>","","","","","","","","","","","","","","","","","","",""
"null","null","fixation","html-keyboard-response","76","225646","0.0-1.0-4.3-3.3-0.18","21:18:08","4","","","","","","","fixation","","","","","","","","","","","","","","","","","","",""
"1377","3","pic_response","html-keyboard-response","77","227025","0.0-1.0-4.3-3.3-1.18","21:18:08","4","","","","","","","<div>
            <img class='stim' src=""pictures/prac/2.jpg""></div><div class=""button_prompt"">
                        <b>请用数字键1-3回答</b>
                        </div>","","","","","","","","","","","","","","","","","","",""
"1377","null","sub_response","html-keyboard-response","78","228026","0.0-1.0-4.3-3.3-2.18","21:18:08","4","","","","","","","<div style='text-align: center;'>
                            <span style=""color: green; font-size: 40px""><b>正确！+1 pts</b></span></div>
                            ","","learn","2","2","2","learn","2","2","[0, 1, 2]","0","0","setsize","99","prac","0","1","2","1",""
"null","null","fixation","html-keyboard-response","79","228527","0.0-1.0-4.3-3.3-0.19","21:18:08","4","","","","","","","fixation","","","","","","","","","","","","","","","","","","",""
"635","1","pic_response","html-keyboard-response","80","229163","0.0-1.0-4.3-3.3-1.19","21:18:08","4","","","","","","","<div>
            <img class='stim' src=""pictures/prac/1.jpg""></div><div class=""button_prompt"">
                        <b>请用数字键1-3回答</b>
                        </div>","","","","","","","","","","","","","","","","","","",""
"635","null","sub_response","html-keyboard-response","81","230166","0.0-1.0-4.3-3.3-2.19","21:18:08","4","","","","","","","<div style='text-align: center;'>
                            <span style=""color: green; font-size: 40px""><b>正确！+1 pts</b></span></div>
                            ","","learn","1","1","1","learn","0","0","[0, 1, 2]","1","0","setsize","99","prac","0","2","0","1",""
"null","null","fixation","html-keyboard-response","82","230668","0.0-1.0-4.3-3.3-0.20","21:18:08","4","","","","","","","fixation","","","","","","","","","","","","","","","","","","",""
"414","1","pic_response","html-keyboard-response","83","231084","0.0-1.0-4.3-3.3-1.20","21:18:08","4","","","","","","","<div>
            <img class='stim' src=""pictures/prac/0.jpg""></div><div class=""button_prompt"">
                        <b>请用数字键1-3回答</b>
                        </div>","","","","","","","","","","","","","","","","","","",""
"414","null","sub_response","html-keyboard-response","84","232085","0.0-1.0-4.3-3.3-2.20","21:18:08","4","","","","","","","<div style='text-align: center;'>
                            <span style=""color: green; font-size: 40px""><b>正确！+1 pts</b></span></div>
                            ","","learn","0","0","0","learn","0","0","[0, 1, 2]","2","0","setsize","99","prac","0","3","0","1",""
"null","null","fixation","html-keyboard-response","85","232587","0.0-1.0-4.3-3.3-0.21","21:18:08","4","","","","","","","fixation","","","","","","","","","","","","","","","","","","",""
"796","1","pic_response","html-keyboard-response","86","233384","0.0-1.0-4.3-3.3-1.21","21:18:08","4","","","","","","","<div>
            <img class='stim' src=""pictures/prac/1.jpg""></div><div class=""button_prompt"">
                        <b>请用数字键1-3回答</b>
                        </div>","","","","","","","","","","","","","","","","","","",""
"796","null","sub_response","html-keyboard-response","87","234386","0.0-1.0-4.3-3.3-2.21","21:18:08","4","","","","","","","<div style='text-align: center;'>
                            <span style=""color: green; font-size: 40px""><b>正确！+1 pts</b></span></div>
                            ","","learn","1","1","1","learn","0","0","[0, 1, 2]","3","1","setsize","99","prac","0","4","0","1",""
"null","null","fixation","html-keyboard-response","88","234888","0.0-1.0-4.3-3.3-0.22","21:18:08","4","","","","","","","fixation","","","","","","","","","","","","","","","","","","",""
"662","3","pic_response","html-keyboard-response","89","235551","0.0-1.0-4.3-3.3-1.22","21:18:08","4","","","","","","","<div>
            <img class='stim' src=""pictures/prac/2.jpg""></div><div class=""button_prompt"">
                        <b>请用数字键1-3回答</b>
                        </div>","","","","","","","","","","","","","","","","","","",""
"662","null","sub_response","html-keyboard-response","90","236553","0.0-1.0-4.3-3.3-2.22","21:18:08","4","","","","","","","<div style='text-align: center;'>
                            <span style=""color: green; font-size: 40px""><b>正确！+1 pts</b></span></div>
                            ","","learn","2","2","2","learn","2","2","[0, 1, 2]","4","1","setsize","99","prac","0","5","2","1",""
"null","null","fixation","html-keyboard-response","91","237055","0.0-1.0-4.3-3.3-0.23","21:18:08","4","","","","","","","fixation","","","","","","","","","","","","","","","","","","",""
"747","1","pic_response","html-keyboard-response","92","237804","0.0-1.0-4.3-3.3-1.23","21:18:08","4","","","","","","","<div>
            <img class='stim' src=""pictures/prac/0.jpg""></div><div class=""button_prompt"">
                        <b>请用数字键1-3回答</b>
                        </div>","","","","","","","","","","","","","","","","","","",""
"747","null","sub_response","html-keyboard-response","93","238805","0.0-1.0-4.3-3.3-2.23","21:18:08","4","","","","","","","<div style='text-align: center;'>
                            <span style=""color: green; font-size: 40px""><b>正确！+1 pts</b></span></div>
                            ","","learn","0","0","0","learn","0","0","[0, 1, 2]","5","1","setsize","99","prac","0","6","0","1",""
"3643"," ","","html-keyboard-response","94","242450","0.0-1.0-5.0","21:18:08","4","","","","","","","<div style=""font-size: 25px""><p>距下一个实验开始还有</p><div style=""font-size: 50px; color: blue""><p><span id=""clock"">1:00</span></div></p><p>按""空格""跳过休息</p></div>","","","","","","","","","","","","","","","","","","",""
"1325"," ","","html-keyboard-response","95","243776","0.0-1.0-6.0","21:18:08","4","","","","","","","<div style='font-size: 32px; text-align: center;'
                    <p>请按""空格""继续正式实验。</p></div>","","","","","","","","","","","","","","","","","","",""
"","","","preload","96","243841","0.0-1.0-7.0-0.0","21:18:08","4","true","false","[]","[]","[]","","","","","","","","","","","","","","","","","","","","",""
"2369"," ","","html-keyboard-response","97","246211","0.0-1.0-7.0-1.0","21:18:08","4","","","","","","","<div style='font-size: 32px; text-align: center;'
                    <p>请学习图片和数字之间的对应关系</p>
                    <p>我们将<span style='color: blue'><b> 告诉 </b></span>您选择的对错。请根据反馈学习。</p>
                    <p>请按""空格""继续实验。</p></div>","","","","","","","","","","","","","","","","","","",""
"14686"," ","inst","html-keyboard-response","98","260898","0.0-1.0-7.0-2.0","21:18:08","4","","","","","","","<img class='instruct_stim' src=""instruction/furniture3.PNG""></div>","","","","","","","","","","","","","","","","","","",""
"null","null","fixation","html-keyboard-response","99","261399","0.0-1.0-7.0-3.0-0.0","21:18:08","4","","","","","","","fixation","","","","","","","","","","","","","","","","","","",""
"1952","2","pic_response","html-keyboard-response","100","263353","0.0-1.0-7.0-3.0-1.0","21:18:08","4","","","","","","","<div>
            <img class='stim' src=""pictures/furniture/0.jpg""></div><div class=""button_prompt"">
                        <b>请用数字键1-3回答</b>
                        </div>","","","","","","","","","","","","","","","","","","",""
"1952","null","sub_response","html-keyboard-response","101","264355","0.0-1.0-7.0-3.0-2.0","21:18:08","4","","","","","","","<div style='text-align: center;'>
                            <span style=""color: red; font-size: 40px""><b>错误！+0 pts</b></span></div>
                            ","","learn","0","0","0","learn","0","0","[0, 1, 2]","0","0","setsize","3S3A","furniture","1","0","1","0",""
"null","null","fixation","html-keyboard-response","102","264858","0.0-1.0-7.0-3.0-0.1","21:18:08","4","","","","","","","fixation","","","","","","","","","","","","","","","","","","",""
"1268","2","pic_response","html-keyboard-response","103","266129","0.0-1.0-7.0-3.0-1.1","21:18:08","4","","","","","","","<div>
            <img class='stim' src=""pictures/furniture/2.jpg""></div><div class=""button_prompt"">
                        <b>请用数字键1-3回答</b>
                        </div>","","","","","","","","","","","","","","","","","","",""
"1268","null","sub_response","html-keyboard-response","104","267131","0.0-1.0-7.0-3.0-2.1","21:18:08","4","","","","","","","<div style='text-align: center;'>
                            <span style=""color: red; font-size: 40px""><b>错误！+0 pts</b></span></div>
                            ","","learn","2","2","2","learn","2","2","[0, 1, 2]","1","0","setsize","3S3A","furniture","1","0","1","0",""
"null","null","fixation","html-keyboard-response","105","267633","0.0-1.0-7.0-3.0-0.2","21:18:08","4","","","","","","","fixation","","","","","","","","","","","","","","","","","","",""
"1102","1","pic_response","html-keyboard-response","106","268737","0.0-1.0-7.0-3.0-1.2","21:18:08","4","","","","","","","<div>
            <img class='stim' src=""pictures/furniture/1.jpg""></div><div class=""button_prompt"">
                        <b>请用数字键1-3回答</b>
                        </div>","","","","","","","","","","","","","","","","","","",""
"1102","null","sub_response","html-keyboard-response","107","269739","0.0-1.0-7.0-3.0-2.2","21:18:08","4","","","","","","","<div style='text-align: center;'>
                            <span style=""color: green; font-size: 40px""><b>正确！+1 pts</b></span></div>
                            ","","learn","1","1","1","learn","0","0","[0, 1, 2]","2","0","setsize","3S3A","furniture","1","1","0","1",""
"null","null","fixation","html-keyboard-response","108","270241","0.0-1.0-7.0-3.0-0.3","21:18:08","4","","","","","","","fixation","","","","","","","","","","","","","","","","","","",""
"958","2","pic_response","html-keyboard-response","109","271201","0.0-1.0-7.0-3.0-1.3","21:18:08","4","","","","","","","<div>
            <img class='stim' src=""pictures/furniture/2.jpg""></div><div class=""button_prompt"">
                        <b>请用数字键1-3回答</b>
                        </div>","","","","","","","","","","","","","","","","","","",""
"958","null","sub_response","html-keyboard-response","110","272203","0.0-1.0-7.0-3.0-2.3","21:18:08","4","","","","","","","<div style='text-align: center;'>
                            <span style=""color: red; font-size: 40px""><b>错误！+0 pts</b></span></div>
                            ","","learn","2","2","2","learn","2","2","[0, 1, 2]","3","1","setsize","3S3A","furniture","1","0","1","0",""
"null","null","fixation","html-keyboard-response","111","272705","0.0-1.0-7.0-3.0-0.4","21:18:08","4","","","","","","","fixation","","","","","","","","","","","","","","","","","","",""
"1767","1","pic_response","html-keyboard-response","112","274473","0.0-1.0-7.0-3.0-1.4","21:18:08","4","","","","","","","<div>
            <img class='stim' src=""pictures/furniture/0.jpg""></div><div class=""button_prompt"">
                        <b>请用数字键1-3回答</b>
                        </div>","","","","","","","","","","","","","","","","","","",""
"1767","null","sub_response","html-keyboard-response","113","275475","0.0-1.0-7.0-3.0-2.4","21:18:08","4","","","","","","","<div style='text-align: center;'>
                            <span style=""color: green; font-size: 40px""><b>正确！+1 pts</b></span></div>
                            ","","learn","0","0","0","learn","0","0","[0, 1, 2]","4","1","setsize","3S3A","furniture","1","1","0","1",""
"null","null","fixation","html-keyboard-response","114","275977","0.0-1.0-7.0-3.0-0.5","21:18:08","4","","","","","","","fixation","","","","","","","","","","","","","","","","","","",""
"1309","1","pic_response","html-keyboard-response","115","277287","0.0-1.0-7.0-3.0-1.5","21:18:08","4","","","","","","","<div>
            <img class='stim' src=""pictures/furniture/1.jpg""></div><div class=""button_prompt"">
                        <b>请用数字键1-3回答</b>
                        </div>","","","","","","","","","","","","","","","","","","",""
"1309","null","sub_response","html-keyboard-response","116","278288","0.0-1.0-7.0-3.0-2.5","21:18:08","4","","","","","","","<div style='text-align: center;'>
                            <span style=""color: green; font-size: 40px""><b>正确！+1 pts</b></span></div>
                            ","","learn","1","1","1","learn","0","0","[0, 1, 2]","5","1","setsize","3S3A","furniture","1","2","0","1",""
"null","null","fixation","html-keyboard-response","117","278789","0.0-1.0-7.0-3.0-0.6","21:18:08","4","","","","","","","fixation","","","","","","","","","","","","","","","","","","",""
"963","3","pic_response","html-keyboard-response","118","279754","0.0-1.0-7.0-3.0-1.6","21:18:08","4","","","","","","","<div>
            <img class='stim' src=""pictures/furniture/2.jpg""></div><div class=""button_prompt"">
                        <b>请用数字键1-3回答</b>
                        </div>","","","","","","","","","","","","","","","","","","",""
"963","null","sub_response","html-keyboard-response","119","280756","0.0-1.0-7.0-3.0-2.6","21:18:08","4","","","","","","","<div style='text-align: center;'>
                            <span style=""color: green; font-size: 40px""><b>正确！+1 pts</b></span></div>
                            ","","learn","2","2","2","learn","2","2","[0, 1, 2]","6","2","setsize","3S3A","furniture","1","3","2","1",""
"null","null","fixation","html-keyboard-response","120","281258","0.0-1.0-7.0-3.0-0.7","21:18:08","4","","","","","","","fixation","","","","","","","","","","","","","","","","","","",""
"2073","1","pic_response","html-keyboard-response","121","283332","0.0-1.0-7.0-3.0-1.7","21:18:08","4","","","","","","","<div>
            <img class='stim' src=""pictures/furniture/0.jpg""></div><div class=""button_prompt"">
                        <b>请用数字键1-3回答</b>
                        </div>","","","","","","","","","","","","","","","","","","",""
"2073","null","sub_response","html-keyboard-response","122","284333","0.0-1.0-7.0-3.0-2.7","21:18:08","4","","","","","","","<div style='text-align: center;'>
                            <span style=""color: green; font-size: 40px""><b>正确！+1 pts</b></span></div>
                            ","","learn","0","0","0","learn","0","0","[0, 1, 2]","7","2","setsize","3S3A","furniture","1","4","0","1",""
"null","null","fixation","html-keyboard-response","123","284835","0.0-1.0-7.0-3.0-0.8","21:18:08","4","","","","","","","fixation","","","","","","","","","","","","","","","","","","",""
"730","1","pic_response","html-keyboard-response","124","285567","0.0-1.0-7.0-3.0-1.8","21:18:08","4","","","","","","","<div>
            <img class='stim' src=""pictures/furniture/1.jpg""></div><div class=""button_prompt"">
                        <b>请用数字键1-3回答</b>
                        </div>","","","","","","","","","","","","","","","","","","",""
"730","null","sub_response","html-keyboard-response","125","286581","0.0-1.0-7.0-3.0-2.8","21:18:08","4","","","","","","","<div style='text-align: center;'>
                            <span style=""color: green; font-size: 40px""><b>正确！+1 pts</b></span></div>
                            ","","learn","1","1","1","learn","0","0","[0, 1, 2]","8","2","setsize","3S3A","furniture","1","5","0","1",""
"null","null","fixation","html-keyboard-response","126","287084","0.0-1.0-7.0-3.0-0.9","21:18:08","4","","","","","","","fixation","","","","","","","","","","","","","","","","","","",""
"1376","1","pic_response","html-keyboard-response","127","288461","0.0-1.0-7.0-3.0-1.9","21:18:08","4","","","","","","","<div>
            <img class='stim' src=""pictures/furniture/0.jpg""></div><div class=""button_prompt"">
                        <b>请用数字键1-3回答</b>
                        </div>","","","","","","","","","","","","","","","","","","",""
"1376","null","sub_response","html-keyboard-response","128","289463","0.0-1.0-7.0-3.0-2.9","21:18:08","4","","","","","","","<div style='text-align: center;'>
                            <span style=""color: green; font-size: 40px""><b>正确！+1 pts</b></span></div>
                            ","","learn","0","0","0","learn","0","0","[0, 1, 2]","9","3","setsize","3S3A","furniture","1","6","0","1",""
"null","null","fixation","html-keyboard-response","129","289964","0.0-1.0-7.0-3.0-0.10","21:18:08","4","","","","","","","fixation","","","","","","","","","","","","","","","","","","",""
"572","1","pic_response","html-keyboard-response","130","290538","0.0-1.0-7.0-3.0-1.10","21:18:08","4","","","","","","","<div>
            <img class='stim' src=""pictures/furniture/1.jpg""></div><div class=""button_prompt"">
                        <b>请用数字键1-3回答</b>
                        </div>","","","","","","","","","","","","","","","","","","",""
"572","null","sub_response","html-keyboard-response","131","291539","0.0-1.0-7.0-3.0-2.10","21:18:08","4","","","","","","","<div style='text-align: center;'>
                            <span style=""color: green; font-size: 40px""><b>正确！+1 pts</b></span></div>
                            ","","learn","1","1","1","learn","0","0","[0, 1, 2]","10","3","setsize","3S3A","furniture","1","7","0","1",""
"null","null","fixation","html-keyboard-response","132","292041","0.0-1.0-7.0-3.0-0.11","21:18:08","4","","","","","","","fixation","","","","","","","","","","","","","","","","","","",""
"1087","3","pic_response","html-keyboard-response","133","293129","0.0-1.0-7.0-3.0-1.11","21:18:08","4","","","","","","","<div>
            <img class='stim' src=""pictures/furniture/2.jpg""></div><div class=""button_prompt"">
                        <b>请用数字键1-3回答</b>
                        </div>","","","","","","","","","","","","","","","","","","",""
"1087","null","sub_response","html-keyboard-response","134","294131","0.0-1.0-7.0-3.0-2.11","21:18:08","4","","","","","","","<div style='text-align: center;'>
                            <span style=""color: green; font-size: 40px""><b>正确！+1 pts</b></span></div>
                            ","","learn","2","2","2","learn","2","2","[0, 1, 2]","11","3","setsize","3S3A","furniture","1","8","2","1",""
"null","null","fixation","html-keyboard-response","135","294632","0.0-1.0-7.0-3.0-0.12","21:18:08","4","","","","","","","fixation","","","","","","","","","","","","","","","","","","",""
"1681","3","pic_response","html-keyboard-response","136","296314","0.0-1.0-7.0-3.0-1.12","21:18:08","4","","","","","","","<div>
            <img class='stim' src=""pictures/furniture/2.jpg""></div><div class=""button_prompt"">
                        <b>请用数字键1-3回答</b>
                        </div>","","","","","","","","","","","","","","","","","","",""
"1681","null","sub_response","html-keyboard-response","137","297316","0.0-1.0-7.0-3.0-2.12","21:18:08","4","","","","","","","<div style='text-align: center;'>
                            <span style=""color: green; font-size: 40px""><b>正确！+1 pts</b></span></div>
                            ","","learn","2","2","2","learn","2","2","[0, 1, 2]","12","4","setsize","3S3A","furniture","1","9","2","1",""
"null","null","fixation","html-keyboard-response","138","297817","0.0-1.0-7.0-3.0-0.13","21:18:08","4","","","","","","","fixation","","","","","","","","","","","","","","","","","","",""
"975","1","pic_response","html-keyboard-response","139","298793","0.0-1.0-7.0-3.0-1.13","21:18:08","4","","","","","","","<div>
            <img class='stim' src=""pictures/furniture/0.jpg""></div><div class=""button_prompt"">
                        <b>请用数字键1-3回答</b>
                        </div>","","","","","","","","","","","","","","","","","","",""
"975","null","sub_response","html-keyboard-response","140","299796","0.0-1.0-7.0-3.0-2.13","21:18:08","4","","","","","","","<div style='text-align: center;'>
                            <span style=""color: green; font-size: 40px""><b>正确！+1 pts</b></span></div>
                            ","","learn","0","0","0","learn","0","0","[0, 1, 2]","13","4","setsize","3S3A","furniture","1","10","0","1",""
"null","null","fixation","html-keyboard-response","141","300298","0.0-1.0-7.0-3.0-0.14","21:18:08","4","","","","","","","fixation","","","","","","","","","","","","","","","","","","",""
"750","1","pic_response","html-keyboard-response","142","301050","0.0-1.0-7.0-3.0-1.14","21:18:08","4","","","","","","","<div>
            <img class='stim' src=""pictures/furniture/1.jpg""></div><div class=""button_prompt"">
                        <b>请用数字键1-3回答</b>
                        </div>","","","","","","","","","","","","","","","","","","",""
"750","null","sub_response","html-keyboard-response","143","302051","0.0-1.0-7.0-3.0-2.14","21:18:08","4","","","","","","","<div style='text-align: center;'>
                            <span style=""color: green; font-size: 40px""><b>正确！+1 pts</b></span></div>
                            ","","learn","1","1","1","learn","0","0","[0, 1, 2]","14","4","setsize","3S3A","furniture","1","11","0","1",""
"null","null","fixation","html-keyboard-response","144","302552","0.0-1.0-7.0-3.0-0.15","21:18:08","4","","","","","","","fixation","","","","","","","","","","","","","","","","","","",""
"1047","3","pic_response","html-keyboard-response","145","303600","0.0-1.0-7.0-3.0-1.15","21:18:08","4","","","","","","","<div>
            <img class='stim' src=""pictures/furniture/2.jpg""></div><div class=""button_prompt"">
                        <b>请用数字键1-3回答</b>
                        </div>","","","","","","","","","","","","","","","","","","",""
"1047","null","sub_response","html-keyboard-response","146","304602","0.0-1.0-7.0-3.0-2.15","21:18:08","4","","","","","","","<div style='text-align: center;'>
                            <span style=""color: green; font-size: 40px""><b>正确！+1 pts</b></span></div>
                            ","","learn","2","2","2","learn","2","2","[0, 1, 2]","15","5","setsize","3S3A","furniture","1","12","2","1",""
"null","null","fixation","html-keyboard-response","147","305104","0.0-1.0-7.0-3.0-0.16","21:18:08","4","","","","","","","fixation","","","","","","","","","","","","","","","","","","",""
"896","1","pic_response","html-keyboard-response","148","306001","0.0-1.0-7.0-3.0-1.16","21:18:08","4","","","","","","","<div>
            <img class='stim' src=""pictures/furniture/0.jpg""></div><div class=""button_prompt"">
                        <b>请用数字键1-3回答</b>
                        </div>","","","","","","","","","","","","","","","","","","",""
"896","null","sub_response","html-keyboard-response","149","307003","0.0-1.0-7.0-3.0-2.16","21:18:08","4","","","","","","","<div style='text-align: center;'>
                            <span style=""color: green; font-size: 40px""><b>正确！+1 pts</b></span></div>
                            ","","learn","0","0","0","learn","0","0","[0, 1, 2]","16","5","setsize","3S3A","furniture","1","13","0","1",""
"null","null","fixation","html-keyboard-response","150","307504","0.0-1.0-7.0-3.0-0.17","21:18:08","4","","","","","","","fixation","","","","","","","","","","","","","","","","","","",""
"529","1","pic_response","html-keyboard-response","151","308035","0.0-1.0-7.0-3.0-1.17","21:18:08","4","","","","","","","<div>
            <img class='stim' src=""pictures/furniture/1.jpg""></div><div class=""button_prompt"">
                        <b>请用数字键1-3回答</b>
                        </div>","","","","","","","","","","","","","","","","","","",""
"529","null","sub_response","html-keyboard-response","152","309036","0.0-1.0-7.0-3.0-2.17","21:18:08","4","","","","","","","<div style='text-align: center;'>
                            <span style=""color: green; font-size: 40px""><b>正确！+1 pts</b></span></div>
                            ","","learn","1","1","1","learn","0","0","[0, 1, 2]","17","5","setsize","3S3A","furniture","1","14","0","1",""
"null","null","fixation","html-keyboard-response","153","309539","0.0-1.0-7.0-3.0-0.18","21:18:08","4","","","","","","","fixation","","","","","","","","","","","","","","","","","","",""
"533","1","pic_response","html-keyboard-response","154","310073","0.0-1.0-7.0-3.0-1.18","21:18:08","4","","","","","","","<div>
            <img class='stim' src=""pictures/furniture/1.jpg""></div><div class=""button_prompt"">
                        <b>请用数字键1-3回答</b>
                        </div>","","","","","","","","","","","","","","","","","","",""
"533","null","sub_response","html-keyboard-response","155","311075","0.0-1.0-7.0-3.0-2.18","21:18:08","4","","","","","","","<div style='text-align: center;'>
                            <span style=""color: green; font-size: 40px""><b>正确！+1 pts</b></span></div>
                            ","","learn","1","1","1","learn","0","0","[0, 1, 2]","18","6","setsize","3S3A","furniture","1","15","0","1",""
"null","null","fixation","html-keyboard-response","156","311578","0.0-1.0-7.0-3.0-0.19","21:18:08","4","","","","","","","fixation","","","","","","","","","","","","","","","","","","",""
"967","3","pic_response","html-keyboard-response","157","312546","0.0-1.0-7.0-3.0-1.19","21:18:08","4","","","","","","","<div>
            <img class='stim' src=""pictures/furniture/2.jpg""></div><div class=""button_prompt"">
                        <b>请用数字键1-3回答</b>
                        </div>","","","","","","","","","","","","","","","","","","",""
"967","null","sub_response","html-keyboard-response","158","313548","0.0-1.0-7.0-3.0-2.19","21:18:08","4","","","","","","","<div style='text-align: center;'>
                            <span style=""color: green; font-size: 40px""><b>正确！+1 pts</b></span></div>
                            ","","learn","2","2","2","learn","2","2","[0, 1, 2]","19","6","setsize","3S3A","furniture","1","16","2","1",""
"null","null","fixation","html-keyboard-response","159","314051","0.0-1.0-7.0-3.0-0.20","21:18:08","4","","","","","","","fixation","","","","","","","","","","","","","","","","","","",""
"1132","1","pic_response","html-keyboard-response","160","315184","0.0-1.0-7.0-3.0-1.20","21:18:08","4","","","","","","","<div>
            <img class='stim' src=""pictures/furniture/0.jpg""></div><div class=""button_prompt"">
                        <b>请用数字键1-3回答</b>
                        </div>","","","","","","","","","","","","","","","","","","",""
"1132","null","sub_response","html-keyboard-response","161","316198","0.0-1.0-7.0-3.0-2.20","21:18:08","4","","","","","","","<div style='text-align: center;'>
                            <span style=""color: green; font-size: 40px""><b>正确！+1 pts</b></span></div>
                            ","","learn","0","0","0","learn","0","0","[0, 1, 2]","20","6","setsize","3S3A","furniture","1","17","0","1",""
"null","null","fixation","html-keyboard-response","162","316700","0.0-1.0-7.0-3.0-0.21","21:18:08","4","","","","","","","fixation","","","","","","","","","","","","","","","","","","",""
"770","3","pic_response","html-keyboard-response","163","317472","0.0-1.0-7.0-3.0-1.21","21:18:08","4","","","","","","","<div>
            <img class='stim' src=""pictures/furniture/2.jpg""></div><div class=""button_prompt"">
                        <b>请用数字键1-3回答</b>
                        </div>","","","","","","","","","","","","","","","","","","",""
"770","null","sub_response","html-keyboard-response","164","318474","0.0-1.0-7.0-3.0-2.21","21:18:08","4","","","","","","","<div style='text-align: center;'>
                            <span style=""color: green; font-size: 40px""><b>正确！+1 pts</b></span></div>
                            ","","learn","2","2","2","learn","2","2","[0, 1, 2]","21","7","setsize","3S3A","furniture","1","18","2","1",""
"null","null","fixation","html-keyboard-response","165","318976","0.0-1.0-7.0-3.0-0.22","21:18:08","4","","","","","","","fixation","","","","","","","","","","","","","","","","","","",""
"505","1","pic_response","html-keyboard-response","166","319482","0.0-1.0-7.0-3.0-1.22","21:18:08","4","","","","","","","<div>
            <img class='stim' src=""pictures/furniture/1.jpg""></div><div class=""button_prompt"">
                        <b>请用数字键1-3回答</b>
                        </div>","","","","","","","","","","","","","","","","","","",""
"505","null","sub_response","html-keyboard-response","167","320485","0.0-1.0-7.0-3.0-2.22","21:18:08","4","","","","","","","<div style='text-align: center;'>
                            <span style=""color: green; font-size: 40px""><b>正确！+1 pts</b></span></div>
                            ","","learn","1","1","1","learn","0","0","[0, 1, 2]","22","7","setsize","3S3A","furniture","1","19","0","1",""
"null","null","fixation","html-keyboard-response","168","320987","0.0-1.0-7.0-3.0-0.23","21:18:08","4","","","","","","","fixation","","","","","","","","","","","","","","","","","","",""
"1052","1","pic_response","html-keyboard-response","169","322041","0.0-1.0-7.0-3.0-1.23","21:18:08","4","","","","","","","<div>
            <img class='stim' src=""pictures/furniture/0.jpg""></div><div class=""button_prompt"">
                        <b>请用数字键1-3回答</b>
                        </div>","","","","","","","","","","","","","","","","","","",""
"1052","null","sub_response","html-keyboard-response","170","323042","0.0-1.0-7.0-3.0-2.23","21:18:08","4","","","","","","","<div style='text-align: center;'>
                            <span style=""color: green; font-size: 40px""><b>正确！+1 pts</b></span></div>
                            ","","learn","0","0","0","learn","0","0","[0, 1, 2]","23","7","setsize","3S3A","furniture","1","20","0","1",""
"null","null","fixation","html-keyboard-response","171","323545","0.0-1.0-7.0-3.0-0.24","21:18:08","4","","","","","","","fixation","","","","","","","","","","","","","","","","","","",""
"664","1","pic_response","html-keyboard-response","172","324210","0.0-1.0-7.0-3.0-1.24","21:18:08","4","","","","","","","<div>
            <img class='stim' src=""pictures/furniture/0.jpg""></div><div class=""button_prompt"">
                        <b>请用数字键1-3回答</b>
                        </div>","","","","","","","","","","","","","","","","","","",""
"664","null","sub_response","html-keyboard-response","173","325212","0.0-1.0-7.0-3.0-2.24","21:18:08","4","","","","","","","<div style='text-align: center;'>
                            <span style=""color: green; font-size: 40px""><b>正确！+1 pts</b></span></div>
                            ","","learn","0","0","0","learn","0","0","[0, 1, 2]","24","8","setsize","3S3A","furniture","1","21","0","1",""
"null","null","fixation","html-keyboard-response","174","325715","0.0-1.0-7.0-3.0-0.25","21:18:08","4","","","","","","","fixation","","","","","","","","","","","","","","","","","","",""
"924","3","pic_response","html-keyboard-response","175","326641","0.0-1.0-7.0-3.0-1.25","21:18:08","4","","","","","","","<div>
            <img class='stim' src=""pictures/furniture/2.jpg""></div><div class=""button_prompt"">
                        <b>请用数字键1-3回答</b>
                        </div>","","","","","","","","","","","","","","","","","","",""
"924","null","sub_response","html-keyboard-response","176","327645","0.0-1.0-7.0-3.0-2.25","21:18:08","4","","","","","","","<div style='text-align: center;'>
                            <span style=""color: green; font-size: 40px""><b>正确！+1 pts</b></span></div>
                            ","","learn","2","2","2","learn","2","2","[0, 1, 2]","25","8","setsize","3S3A","furniture","1","22","2","1",""
"null","null","fixation","html-keyboard-response","177","328158","0.0-1.0-7.0-3.0-0.26","21:18:08","4","","","","","","","fixation","","","","","","","","","","","","","","","","","","",""
"609","1","pic_response","html-keyboard-response","178","328769","0.0-1.0-7.0-3.0-1.26","21:18:08","4","","","","","","","<div>
            <img class='stim' src=""pictures/furniture/1.jpg""></div><div class=""button_prompt"">
                        <b>请用数字键1-3回答</b>
                        </div>","","","","","","","","","","","","","","","","","","",""
"609","null","sub_response","html-keyboard-response","179","329770","0.0-1.0-7.0-3.0-2.26","21:18:08","4","","","","","","","<div style='text-align: center;'>
                            <span style=""color: green; font-size: 40px""><b>正确！+1 pts</b></span></div>
                            ","","learn","1","1","1","learn","0","0","[0, 1, 2]","26","8","setsize","3S3A","furniture","1","23","0","1",""
"null","null","fixation","html-keyboard-response","180","330272","0.0-1.0-7.0-3.0-0.27","21:18:08","4","","","","","","","fixation","","","","","","","","","","","","","","","","","","",""
"496","1","pic_response","html-keyboard-response","181","330770","0.0-1.0-7.0-3.0-1.27","21:18:08","4","","","","","","","<div>
            <img class='stim' src=""pictures/furniture/1.jpg""></div><div class=""button_prompt"">
                        <b>请用数字键1-3回答</b>
                        </div>","","","","","","","","","","","","","","","","","","",""
"496","null","sub_response","html-keyboard-response","182","331772","0.0-1.0-7.0-3.0-2.27","21:18:08","4","","","","","","","<div style='text-align: center;'>
                            <span style=""color: green; font-size: 40px""><b>正确！+1 pts</b></span></div>
                            ","","learn","1","1","1","learn","0","0","[0, 1, 2]","27","9","setsize","3S3A","furniture","1","24","0","1",""
"null","null","fixation","html-keyboard-response","183","332272","0.0-1.0-7.0-3.0-0.28","21:18:08","4","","","","","","","fixation","","","","","","","","","","","","","","","","","","",""
"512","3","pic_response","html-keyboard-response","184","332786","0.0-1.0-7.0-3.0-1.28","21:18:08","4","","","","","","","<div>
            <img class='stim' src=""pictures/furniture/2.jpg""></div><div class=""button_prompt"">
                        <b>请用数字键1-3回答</b>
                        </div>","","","","","","","","","","","","","","","","","","",""
"512","null","sub_response","html-keyboard-response","185","333789","0.0-1.0-7.0-3.0-2.28","21:18:08","4","","","","","","","<div style='text-align: center;'>
                            <span style=""color: green; font-size: 40px""><b>正确！+1 pts</b></span></div>
                            ","","learn","2","2","2","learn","2","2","[0, 1, 2]","28","9","setsize","3S3A","furniture","1","25","2","1",""
"null","null","fixation","html-keyboard-response","186","334291","0.0-1.0-7.0-3.0-0.29","21:18:08","4","","","","","","","fixation","","","","","","","","","","","","","","","","","","",""
"791","1","pic_response","html-keyboard-response","187","335084","0.0-1.0-7.0-3.0-1.29","21:18:08","4","","","","","","","<div>
            <img class='stim' src=""pictures/furniture/0.jpg""></div><div class=""button_prompt"">
                        <b>请用数字键1-3回答</b>
                        </div>","","","","","","","","","","","","","","","","","","",""
"791","null","sub_response","html-keyboard-response","188","336086","0.0-1.0-7.0-3.0-2.29","21:18:08","4","","","","","","","<div style='text-align: center;'>
                            <span style=""color: green; font-size: 40px""><b>正确！+1 pts</b></span></div>
                            ","","learn","0","0","0","learn","0","0","[0, 1, 2]","29","9","setsize","3S3A","furniture","1","26","0","1",""
"null","null","fixation","html-keyboard-response","189","336589","0.0-1.0-7.0-3.0-0.30","21:18:08","4","","","","","","","fixation","","","","","","","","","","","","","","","","","","",""
"721","1","pic_response","html-keyboard-response","190","337311","0.0-1.0-7.0-3.0-1.30","21:18:08","4","","","","","","","<div>
            <img class='stim' src=""pictures/furniture/0.jpg""></div><div class=""button_prompt"">
                        <b>请用数字键1-3回答</b>
                        </div>","","","","","","","","","","","","","","","","","","",""
"721","null","sub_response","html-keyboard-response","191","338312","0.0-1.0-7.0-3.0-2.30","21:18:08","4","","","","","","","<div style='text-align: center;'>
                            <span style=""color: green; font-size: 40px""><b>正确！+1 pts</b></span></div>
                            ","","learn","0","0","0","learn","0","0","[0, 1, 2]","30","10","setsize","3S3A","furniture","1","27","0","1",""
"null","null","fixation","html-keyboard-response","192","338814","0.0-1.0-7.0-3.0-0.31","21:18:08","4","","","","","","","fixation","","","","","","","","","","","","","","","","","","",""
"426","1","pic_response","html-keyboard-response","193","339242","0.0-1.0-7.0-3.0-1.31","21:18:08","4","","","","","","","<div>
            <img class='stim' src=""pictures/furniture/1.jpg""></div><div class=""button_prompt"">
                        <b>请用数字键1-3回答</b>
                        </div>","","","","","","","","","","","","","","","","","","",""
"426","null","sub_response","html-keyboard-response","194","340246","0.0-1.0-7.0-3.0-2.31","21:18:08","4","","","","","","","<div style='text-align: center;'>
                            <span style=""color: green; font-size: 40px""><b>正确！+1 pts</b></span></div>
                            ","","learn","1","1","1","learn","0","0","[0, 1, 2]","31","10","setsize","3S3A","furniture","1","28","0","1",""
"null","null","fixation","html-keyboard-response","195","340749","0.0-1.0-7.0-3.0-0.32","21:18:08","4","","","","","","","fixation","","","","","","","","","","","","","","","","","","",""
"748","3","pic_response","html-keyboard-response","196","341497","0.0-1.0-7.0-3.0-1.32","21:18:08","4","","","","","","","<div>
            <img class='stim' src=""pictures/furniture/2.jpg""></div><div class=""button_prompt"">
                        <b>请用数字键1-3回答</b>
                        </div>","","","","","","","","","","","","","","","","","","",""
"748","null","sub_response","html-keyboard-response","197","342499","0.0-1.0-7.0-3.0-2.32","21:18:08","4","","","","","","","<div style='text-align: center;'>
                            <span style=""color: green; font-size: 40px""><b>正确！+1 pts</b></span></div>
                            ","","learn","2","2","2","learn","2","2","[0, 1, 2]","32","10","setsize","3S3A","furniture","1","29","2","1",""
"null","null","fixation","html-keyboard-response","198","343002","0.0-1.0-7.0-3.0-0.33","21:18:08","4","","","","","","","fixation","","","","","","","","","","","","","","","","","","",""
"1164","3","pic_response","html-keyboard-response","199","344167","0.0-1.0-7.0-3.0-1.33","21:18:08","4","","","","","","","<div>
            <img class='stim' src=""pictures/furniture/2.jpg""></div><div class=""button_prompt"">
                        <b>请用数字键1-3回答</b>
                        </div>","","","","","","","","","","","","","","","","","","",""
"1164","null","sub_response","html-keyboard-response","200","345168","0.0-1.0-7.0-3.0-2.33","21:18:08","4","","","","","","","<div style='text-align: center;'>
                            <span style=""color: green; font-size: 40px""><b>正确！+1 pts</b></span></div>
                            ","","learn","2","2","2","learn","2","2","[0, 1, 2]","33","11","setsize","3S3A","furniture","1","30","2","1",""
"null","null","fixation","html-keyboard-response","201","345670","0.0-1.0-7.0-3.0-0.34","21:18:08","4","","","","","","","fixation","","","","","","","","","","","","","","","","","","",""
"786","1","pic_response","html-keyboard-response","202","346457","0.0-1.0-7.0-3.0-1.34","21:18:08","4","","","","","","","<div>
            <img class='stim' src=""pictures/furniture/0.jpg""></div><div class=""button_prompt"">
                        <b>请用数字键1-3回答</b>
                        </div>","","","","","","","","","","","","","","","","","","",""
"786","null","sub_response","html-keyboard-response","203","347460","0.0-1.0-7.0-3.0-2.34","21:18:08","4","","","","","","","<div style='text-align: center;'>
                            <span style=""color: green; font-size: 40px""><b>正确！+1 pts</b></span></div>
                            ","","learn","0","0","0","learn","0","0","[0, 1, 2]","34","11","setsize","3S3A","furniture","1","31","0","1",""
"null","null","fixation","html-keyboard-response","204","347961","0.0-1.0-7.0-3.0-0.35","21:18:08","4","","","","","","","fixation","","","","","","","","","","","","","","","","","","",""
"510","1","pic_response","html-keyboard-response","205","348473","0.0-1.0-7.0-3.0-1.35","21:18:08","4","","","","","","","<div>
            <img class='stim' src=""pictures/furniture/1.jpg""></div><div class=""button_prompt"">
                        <b>请用数字键1-3回答</b>
                        </div>","","","","","","","","","","","","","","","","","","",""
"510","null","sub_response","html-keyboard-response","206","349474","0.0-1.0-7.0-3.0-2.35","21:18:08","4","","","","","","","<div style='text-align: center;'>
                            <span style=""color: green; font-size: 40px""><b>正确！+1 pts</b></span></div>
                            ","","learn","1","1","1","learn","0","0","[0, 1, 2]","35","11","setsize","3S3A","furniture","1","32","0","1",""
"null","null","fixation","html-keyboard-response","207","349977","0.0-1.0-7.0-3.0-0.36","21:18:08","4","","","","","","","fixation","","","","","","","","","","","","","","","","","","",""
"744","1","pic_response","html-keyboard-response","208","350723","0.0-1.0-7.0-3.0-1.36","21:18:08","4","","","","","","","<div>
            <img class='stim' src=""pictures/furniture/0.jpg""></div><div class=""button_prompt"">
                        <b>请用数字键1-3回答</b>
                        </div>","","","","","","","","","","","","","","","","","","",""
"744","null","sub_response","html-keyboard-response","209","351724","0.0-1.0-7.0-3.0-2.36","21:18:08","4","","","","","","","<div style='text-align: center;'>
                            <span style=""color: green; font-size: 40px""><b>正确！+1 pts</b></span></div>
                            ","","learn","0","0","0","learn","0","0","[0, 1, 2]","36","12","setsize","3S3A","furniture","1","33","0","1",""
"null","null","fixation","html-keyboard-response","210","352226","0.0-1.0-7.0-3.0-0.37","21:18:08","4","","","","","","","fixation","","","","","","","","","","","","","","","","","","",""
"825","3","pic_response","html-keyboard-response","211","353053","0.0-1.0-7.0-3.0-1.37","21:18:08","4","","","","","","","<div>
            <img class='stim' src=""pictures/furniture/2.jpg""></div><div class=""button_prompt"">
                        <b>请用数字键1-3回答</b>
                        </div>","","","","","","","","","","","","","","","","","","",""
"825","null","sub_response","html-keyboard-response","212","354054","0.0-1.0-7.0-3.0-2.37","21:18:08","4","","","","","","","<div style='text-align: center;'>
                            <span style=""color: green; font-size: 40px""><b>正确！+1 pts</b></span></div>
                            ","","learn","2","2","2","learn","2","2","[0, 1, 2]","37","12","setsize","3S3A","furniture","1","34","2","1",""
"null","null","fixation","html-keyboard-response","213","354556","0.0-1.0-7.0-3.0-0.38","21:18:08","4","","","","","","","fixation","","","","","","","","","","","","","","","","","","",""
"413","1","pic_response","html-keyboard-response","214","354970","0.0-1.0-7.0-3.0-1.38","21:18:08","4","","","","","","","<div>
            <img class='stim' src=""pictures/furniture/1.jpg""></div><div class=""button_prompt"">
                        <b>请用数字键1-3回答</b>
                        </div>","","","","","","","","","","","","","","","","","","",""
"413","null","sub_response","html-keyboard-response","215","355971","0.0-1.0-7.0-3.0-2.38","21:18:08","4","","","","","","","<div style='text-align: center;'>
                            <span style=""color: green; font-size: 40px""><b>正确！+1 pts</b></span></div>
                            ","","learn","1","1","1","learn","0","0","[0, 1, 2]","38","12","setsize","3S3A","furniture","1","35","0","1",""
"null","null","fixation","html-keyboard-response","216","356474","0.0-1.0-7.0-3.0-0.39","21:18:08","4","","","","","","","fixation","","","","","","","","","","","","","","","","","","",""
"714","1","pic_response","html-keyboard-response","217","357191","0.0-1.0-7.0-3.0-1.39","21:18:08","4","","","","","","","<div>
            <img class='stim' src=""pictures/furniture/0.jpg""></div><div class=""button_prompt"">
                        <b>请用数字键1-3回答</b>
                        </div>","","","","","","","","","","","","","","","","","","",""
"714","null","sub_response","html-keyboard-response","218","358193","0.0-1.0-7.0-3.0-2.39","21:18:08","4","","","","","","","<div style='text-align: center;'>
                            <span style=""color: green; font-size: 40px""><b>正确！+1 pts</b></span></div>
                            ","","learn","0","0","0","learn","0","0","[0, 1, 2]","39","13","setsize","3S3A","furniture","1","36","0","1",""
"null","null","fixation","html-keyboard-response","219","358695","0.0-1.0-7.0-3.0-0.40","21:18:08","4","","","","","","","fixation","","","","","","","","","","","","","","","","","","",""
"634","3","pic_response","html-keyboard-response","220","359331","0.0-1.0-7.0-3.0-1.40","21:18:08","4","","","","","","","<div>
            <img class='stim' src=""pictures/furniture/2.jpg""></div><div class=""button_prompt"">
                        <b>请用数字键1-3回答</b>
                        </div>","","","","","","","","","","","","","","","","","","",""
"634","null","sub_response","html-keyboard-response","221","360345","0.0-1.0-7.0-3.0-2.40","21:18:08","4","","","","","","","<div style='text-align: center;'>
                            <span style=""color: green; font-size: 40px""><b>正确！+1 pts</b></span></div>
                            ","","learn","2","2","2","learn","2","2","[0, 1, 2]","40","13","setsize","3S3A","furniture","1","37","2","1",""
"null","null","fixation","html-keyboard-response","222","360848","0.0-1.0-7.0-3.0-0.41","21:18:08","4","","","","","","","fixation","","","","","","","","","","","","","","","","","","",""
"463","1","pic_response","html-keyboard-response","223","361313","0.0-1.0-7.0-3.0-1.41","21:18:08","4","","","","","","","<div>
            <img class='stim' src=""pictures/furniture/1.jpg""></div><div class=""button_prompt"">
                        <b>请用数字键1-3回答</b>
                        </div>","","","","","","","","","","","","","","","","","","",""
"463","null","sub_response","html-keyboard-response","224","362314","0.0-1.0-7.0-3.0-2.41","21:18:08","4","","","","","","","<div style='text-align: center;'>
                            <span style=""color: green; font-size: 40px""><b>正确！+1 pts</b></span></div>
                            ","","learn","1","1","1","learn","0","0","[0, 1, 2]","41","13","setsize","3S3A","furniture","1","38","0","1",""
"null","null","fixation","html-keyboard-response","225","362816","0.0-1.0-7.0-3.0-0.42","21:18:08","4","","","","","","","fixation","","","","","","","","","","","","","","","","","","",""
"1094","1","pic_response","html-keyboard-response","226","363912","0.0-1.0-7.0-3.0-1.42","21:18:08","4","","","","","","","<div>
            <img class='stim' src=""pictures/furniture/0.jpg""></div><div class=""button_prompt"">
                        <b>请用数字键1-3回答</b>
                        </div>","","","","","","","","","","","","","","","","","","",""
"1094","null","sub_response","html-keyboard-response","227","364913","0.0-1.0-7.0-3.0-2.42","21:18:08","4","","","","","","","<div style='text-align: center;'>
                            <span style=""color: green; font-size: 40px""><b>正确！+1 pts</b></span></div>
                            ","","learn","0","0","0","learn","0","0","[0, 1, 2]","42","14","setsize","3S3A","furniture","1","39","0","1",""
"null","null","fixation","html-keyboard-response","228","365417","0.0-1.0-7.0-3.0-0.43","21:18:08","4","","","","","","","fixation","","","","","","","","","","","","","","","","","","",""
"645","3","pic_response","html-keyboard-response","229","366063","0.0-1.0-7.0-3.0-1.43","21:18:08","4","","","","","","","<div>
            <img class='stim' src=""pictures/furniture/2.jpg""></div><div class=""button_prompt"">
                        <b>请用数字键1-3回答</b>
                        </div>","","","","","","","","","","","","","","","","","","",""
"645","null","sub_response","html-keyboard-response","230","367065","0.0-1.0-7.0-3.0-2.43","21:18:08","4","","","","","","","<div style='text-align: center;'>
                            <span style=""color: green; font-size: 40px""><b>正确！+1 pts</b></span></div>
                            ","","learn","2","2","2","learn","2","2","[0, 1, 2]","43","14","setsize","3S3A","furniture","1","40","2","1",""
"null","null","fixation","html-keyboard-response","231","367568","0.0-1.0-7.0-3.0-0.44","21:18:08","4","","","","","","","fixation","","","","","","","","","","","","","","","","","","",""
"560","1","pic_response","html-keyboard-response","232","368129","0.0-1.0-7.0-3.0-1.44","21:18:08","4","","","","","","","<div>
            <img class='stim' src=""pictures/furniture/1.jpg""></div><div class=""button_prompt"">
                        <b>请用数字键1-3回答</b>
                        </div>","","","","","","","","","","","","","","","","","","",""
"560","null","sub_response","html-keyboard-response","233","369131","0.0-1.0-7.0-3.0-2.44","21:18:08","4","","","","","","","<div style='text-align: center;'>
                            <span style=""color: green; font-size: 40px""><b>正确！+1 pts</b></span></div>
                            ","","learn","1","1","1","learn","0","0","[0, 1, 2]","44","14","setsize","3S3A","furniture","1","41","0","1",""
"null","null","fixation","html-keyboard-response","234","369632","0.0-1.0-7.0-3.0-0.45","21:18:08","4","","","","","","","fixation","","","","","","","","","","","","","","","","","","",""
"502","1","pic_response","html-keyboard-response","235","370136","0.0-1.0-7.0-3.0-1.45","21:18:08","4","","","","","","","<div>
            <img class='stim' src=""pictures/furniture/1.jpg""></div><div class=""button_prompt"">
                        <b>请用数字键1-3回答</b>
                        </div>","","","","","","","","","","","","","","","","","","",""
"502","null","sub_response","html-keyboard-response","236","371137","0.0-1.0-7.0-3.0-2.45","21:18:08","4","","","","","","","<div style='text-align: center;'>
                            <span style=""color: green; font-size: 40px""><b>正确！+1 pts</b></span></div>
                            ","","learn","1","1","1","learn","0","0","[0, 1, 2]","45","15","setsize","3S3A","furniture","1","42","0","1",""
"20310"," ","","html-keyboard-response","237","391449","0.0-1.0-8.0","21:18:08","4","","","","","","","<div style=""font-size: 25px""><p>距下一个实验开始还有</p><div style=""font-size: 50px; color: blue""><p><span id=""clock"">1:00</span></div></p><p>按""空格""跳过休息</p></div>","","","","","","","","","","","","","","","","","","",""
"","","","preload","238","391525","0.0-1.0-9.0-0.0","21:18:08","4","true","false","[]","[]","[]","","","","","","","","","","","","","","","","","","","","",""
"1415"," ","","html-keyboard-response","239","392940","0.0-1.0-9.0-1.0","21:18:08","4","","","","","","","<div style='font-size: 32px; text-align: center;'
                    <p>请学习图片和数字之间的对应关系</p>
                    <p>我们将<span style='color: blue'><b> 告诉 </b></span>您选择的对错。请根据反馈学习。</p>
                    <p>请按""空格""继续实验。</p></div>","","","","","","","","","","","","","","","","","","",""
"16950"," ","inst","html-keyboard-response","240","409891","0.0-1.0-9.0-2.0","21:18:08","4","","","","","","","<img class='instruct_stim' src=""instruction/food3.PNG""></div>","","","","","","","","","","","","","","","","","","",""
"null","null","fixation","html-keyboard-response","241","410392","0.0-1.0-9.0-3.0-0.0","21:18:08","4","","","","","","","fixation","","","","","","","","","","","","","","","","","","",""
"1186","1","pic_response","html-keyboard-response","242","411578","0.0-1.0-9.0-3.0-1.0","21:18:08","4","","","","","","","<div>
            <img class='stim' src=""pictures/food/2.jpg""></div><div class=""button_prompt"">
                    <b>请用数字键0-9回答</b>
                    </div>","","","","","","","","","","","","","","","","","","",""
"1186","null","sub_response","html-keyboard-response","243","412581","0.0-1.0-9.0-3.0-2.0","21:18:08","4","","","","","","","<div style='text-align: center;'>
                            <span style=""color: red; font-size: 40px""><b>错误！+0 pts</b></span></div>
                            ","","learn","2","2","2","learn","9","9","[0, 1, 2, 3, 4, 5, 6, 7, 8, 9]","0","0","setsize","3S10A","food","2","0","0","0",""
"null","null","fixation","html-keyboard-response","244","413095","0.0-1.0-9.0-3.0-0.1","21:18:08","4","","","","","","","fixation","","","","","","","","","","","","","","","","","","",""
"1304","2","pic_response","html-keyboard-response","245","414401","0.0-1.0-9.0-3.0-1.1","21:18:08","4","","","","","","","<div>
            <img class='stim' src=""pictures/food/0.jpg""></div><div class=""button_prompt"">
                    <b>请用数字键0-9回答</b>
                    </div>","","","","","","","","","","","","","","","","","","",""
"1304","null","sub_response","html-keyboard-response","246","415403","0.0-1.0-9.0-3.0-2.1","21:18:08","4","","","","","","","<div style='text-align: center;'>
                            <span style=""color: red; font-size: 40px""><b>错误！+0 pts</b></span></div>
                            ","","learn","0","0","0","learn","2","2","[0, 1, 2, 3, 4, 5, 6, 7, 8, 9]","1","0","setsize","3S10A","food","2","0","1","0",""
"null","null","fixation","html-keyboard-response","247","415905","0.0-1.0-9.0-3.0-0.2","21:18:08","4","","","","","","","fixation","","","","","","","","","","","","","","","","","","",""
"1398","1","pic_response","html-keyboard-response","248","417304","0.0-1.0-9.0-3.0-1.2","21:18:08","4","","","","","","","<div>
            <img class='stim' src=""pictures/food/1.jpg""></div><div class=""button_prompt"">
                    <b>请用数字键0-9回答</b>
                    </div>","","","","","","","","","","","","","","","","","","",""
"1398","null","sub_response","html-keyboard-response","249","418306","0.0-1.0-9.0-3.0-2.2","21:18:08","4","","","","","","","<div style='text-align: center;'>
                            <span style=""color: red; font-size: 40px""><b>错误！+0 pts</b></span></div>
                            ","","learn","1","1","1","learn","6","6","[0, 1, 2, 3, 4, 5, 6, 7, 8, 9]","2","0","setsize","3S10A","food","2","0","0","0",""
"null","null","fixation","html-keyboard-response","250","418809","0.0-1.0-9.0-3.0-0.3","21:18:08","4","","","","","","","fixation","","","","","","","","","","","","","","","","","","",""
"1495","3","pic_response","html-keyboard-response","251","420305","0.0-1.0-9.0-3.0-1.3","21:18:08","4","","","","","","","<div>
            <img class='stim' src=""pictures/food/0.jpg""></div><div class=""button_prompt"">
                    <b>请用数字键0-9回答</b>
                    </div>","","","","","","","","","","","","","","","","","","",""
"1495","null","sub_response","html-keyboard-response","252","421307","0.0-1.0-9.0-3.0-2.3","21:18:08","4","","","","","","","<div style='text-align: center;'>
                            <span style=""color: green; font-size: 40px""><b>正确！+1 pts</b></span></div>
                            ","","learn","0","0","0","learn","2","2","[0, 1, 2, 3, 4, 5, 6, 7, 8, 9]","3","1","setsize","3S10A","food","2","1","2","1",""
"null","null","fixation","html-keyboard-response","253","421814","0.0-1.0-9.0-3.0-0.4","21:18:08","4","","","","","","","fixation","","","","","","","","","","","","","","","","","","",""
"1387","2","pic_response","html-keyboard-response","254","423201","0.0-1.0-9.0-3.0-1.4","21:18:08","4","","","","","","","<div>
            <img class='stim' src=""pictures/food/2.jpg""></div><div class=""button_prompt"">
                    <b>请用数字键0-9回答</b>
                    </div>","","","","","","","","","","","","","","","","","","",""
"1387","null","sub_response","html-keyboard-response","255","424203","0.0-1.0-9.0-3.0-2.4","21:18:08","4","","","","","","","<div style='text-align: center;'>
                            <span style=""color: red; font-size: 40px""><b>错误！+0 pts</b></span></div>
                            ","","learn","2","2","2","learn","9","9","[0, 1, 2, 3, 4, 5, 6, 7, 8, 9]","4","1","setsize","3S10A","food","2","0","1","0",""
"null","null","fixation","html-keyboard-response","256","424705","0.0-1.0-9.0-3.0-0.5","21:18:08","4","","","","","","","fixation","","","","","","","","","","","","","","","","","","",""
"1807","3","pic_response","html-keyboard-response","257","426513","0.0-1.0-9.0-3.0-1.5","21:18:08","4","","","","","","","<div>
            <img class='stim' src=""pictures/food/1.jpg""></div><div class=""button_prompt"">
                    <b>请用数字键0-9回答</b>
                    </div>","","","","","","","","","","","","","","","","","","",""
"1807","null","sub_response","html-keyboard-response","258","427515","0.0-1.0-9.0-3.0-2.5","21:18:08","4","","","","","","","<div style='text-align: center;'>
                            <span style=""color: red; font-size: 40px""><b>错误！+0 pts</b></span></div>
                            ","","learn","1","1","1","learn","6","6","[0, 1, 2, 3, 4, 5, 6, 7, 8, 9]","5","1","setsize","3S10A","food","2","0","2","0",""
"null","null","fixation","html-keyboard-response","259","428025","0.0-1.0-9.0-3.0-0.6","21:18:08","4","","","","","","","fixation","","","","","","","","","","","","","","","","","","",""
"1359","2","pic_response","html-keyboard-response","260","429385","0.0-1.0-9.0-3.0-1.6","21:18:08","4","","","","","","","<div>
            <img class='stim' src=""pictures/food/2.jpg""></div><div class=""button_prompt"">
                    <b>请用数字键0-9回答</b>
                    </div>","","","","","","","","","","","","","","","","","","",""
"1359","null","sub_response","html-keyboard-response","261","430387","0.0-1.0-9.0-3.0-2.6","21:18:08","4","","","","","","","<div style='text-align: center;'>
                            <span style=""color: red; font-size: 40px""><b>错误！+0 pts</b></span></div>
                            ","","learn","2","2","2","learn","9","9","[0, 1, 2, 3, 4, 5, 6, 7, 8, 9]","6","2","setsize","3S10A","food","2","0","1","0",""
"null","null","fixation","html-keyboard-response","262","430889","0.0-1.0-9.0-3.0-0.7","21:18:08","4","","","","","","","fixation","","","","","","","","","","","","","","","","","","",""
"1379","3","pic_response","html-keyboard-response","263","432269","0.0-1.0-9.0-3.0-1.7","21:18:08","4","","","","","","","<div>
            <img class='stim' src=""pictures/food/0.jpg""></div><div class=""button_prompt"">
                    <b>请用数字键0-9回答</b>
                    </div>","","","","","","","","","","","","","","","","","","",""
"1379","null","sub_response","html-keyboard-response","264","433270","0.0-1.0-9.0-3.0-2.7","21:18:08","4","","","","","","","<div style='text-align: center;'>
                            <span style=""color: green; font-size: 40px""><b>正确！+1 pts</b></span></div>
                            ","","learn","0","0","0","learn","2","2","[0, 1, 2, 3, 4, 5, 6, 7, 8, 9]","7","2","setsize","3S10A","food","2","1","2","1",""
"null","null","fixation","html-keyboard-response","265","433783","0.0-1.0-9.0-3.0-0.8","21:18:08","4","","","","","","","fixation","","","","","","","","","","","","","","","","","","",""
"1091","1","pic_response","html-keyboard-response","266","434876","0.0-1.0-9.0-3.0-1.8","21:18:08","4","","","","","","","<div>
            <img class='stim' src=""pictures/food/1.jpg""></div><div class=""button_prompt"">
                    <b>请用数字键0-9回答</b>
                    </div>","","","","","","","","","","","","","","","","","","",""
"1091","null","sub_response","html-keyboard-response","267","435879","0.0-1.0-9.0-3.0-2.8","21:18:08","4","","","","","","","<div style='text-align: center;'>
                            <span style=""color: red; font-size: 40px""><b>错误！+0 pts</b></span></div>
                            ","","learn","1","1","1","learn","6","6","[0, 1, 2, 3, 4, 5, 6, 7, 8, 9]","8","2","setsize","3S10A","food","2","0","0","0",""
"null","null","fixation","html-keyboard-response","268","436382","0.0-1.0-9.0-3.0-0.9","21:18:08","4","","","","","","","fixation","","","","","","","","","","","","","","","","","","",""
"1019","3","pic_response","html-keyboard-response","269","437401","0.0-1.0-9.0-3.0-1.9","21:18:08","4","","","","","","","<div>
            <img class='stim' src=""pictures/food/2.jpg""></div><div class=""button_prompt"">
                    <b>请用数字键0-9回答</b>
                    </div>","","","","","","","","","","","","","","","","","","",""
"1019","null","sub_response","html-keyboard-response","270","438403","0.0-1.0-9.0-3.0-2.9","21:18:08","4","","","","","","","<div style='text-align: center;'>
                            <span style=""color: red; font-size: 40px""><b>错误！+0 pts</b></span></div>
                            ","","learn","2","2","2","learn","9","9","[0, 1, 2, 3, 4, 5, 6, 7, 8, 9]","9","3","setsize","3S10A","food","2","0","2","0",""
"null","null","fixation","html-keyboard-response","271","438906","0.0-1.0-9.0-3.0-0.10","21:18:08","4","","","","","","","fixation","","","","","","","","","","","","","","","","","","",""
"1520","3","pic_response","html-keyboard-response","272","440428","0.0-1.0-9.0-3.0-1.10","21:18:08","4","","","","","","","<div>
            <img class='stim' src=""pictures/food/0.jpg""></div><div class=""button_prompt"">
                    <b>请用数字键0-9回答</b>
                    </div>","","","","","","","","","","","","","","","","","","",""
"1520","null","sub_response","html-keyboard-response","273","441431","0.0-1.0-9.0-3.0-2.10","21:18:08","4","","","","","","","<div style='text-align: center;'>
                            <span style=""color: green; font-size: 40px""><b>正确！+1 pts</b></span></div>
                            ","","learn","0","0","0","learn","2","2","[0, 1, 2, 3, 4, 5, 6, 7, 8, 9]","10","3","setsize","3S10A","food","2","1","2","1",""
"null","null","fixation","html-keyboard-response","274","441932","0.0-1.0-9.0-3.0-0.11","21:18:08","4","","","","","","","fixation","","","","","","","","","","","","","","","","","","",""
"1172","1","pic_response","html-keyboard-response","275","443106","0.0-1.0-9.0-3.0-1.11","21:18:08","4","","","","","","","<div>
            <img class='stim' src=""pictures/food/1.jpg""></div><div class=""button_prompt"">
                    <b>请用数字键0-9回答</b>
                    </div>","","","","","","","","","","","","","","","","","","",""
"1172","null","sub_response","html-keyboard-response","276","444108","0.0-1.0-9.0-3.0-2.11","21:18:08","4","","","","","","","<div style='text-align: center;'>
                            <span style=""color: red; font-size: 40px""><b>错误！+0 pts</b></span></div>
                            ","","learn","1","1","1","learn","6","6","[0, 1, 2, 3, 4, 5, 6, 7, 8, 9]","11","3","setsize","3S10A","food","2","0","0","0",""
"null","null","fixation","html-keyboard-response","277","444625","0.0-1.0-9.0-3.0-0.12","21:18:08","4","","","","","","","fixation","","","","","","","","","","","","","","","","","","",""
"1392","3","pic_response","html-keyboard-response","278","446018","0.0-1.0-9.0-3.0-1.12","21:18:08","4","","","","","","","<div>
            <img class='stim' src=""pictures/food/0.jpg""></div><div class=""button_prompt"">
                    <b>请用数字键0-9回答</b>
                    </div>","","","","","","","","","","","","","","","","","","",""
"1392","null","sub_response","html-keyboard-response","279","447021","0.0-1.0-9.0-3.0-2.12","21:18:08","4","","","","","","","<div style='text-align: center;'>
                            <span style=""color: green; font-size: 40px""><b>正确！+1 pts</b></span></div>
                            ","","learn","0","0","0","learn","2","2","[0, 1, 2, 3, 4, 5, 6, 7, 8, 9]","12","4","setsize","3S10A","food","2","1","2","1",""
"null","null","fixation","html-keyboard-response","280","447522","0.0-1.0-9.0-3.0-0.13","21:18:08","4","","","","","","","fixation","","","","","","","","","","","","","","","","","","",""
"997","2","pic_response","html-keyboard-response","281","448521","0.0-1.0-9.0-3.0-1.13","21:18:08","4","","","","","","","<div>
            <img class='stim' src=""pictures/food/1.jpg""></div><div class=""button_prompt"">
                    <b>请用数字键0-9回答</b>
                    </div>","","","","","","","","","","","","","","","","","","",""
"997","null","sub_response","html-keyboard-response","282","449523","0.0-1.0-9.0-3.0-2.13","21:18:08","4","","","","","","","<div style='text-align: center;'>
                            <span style=""color: red; font-size: 40px""><b>错误！+0 pts</b></span></div>
                            ","","learn","1","1","1","learn","6","6","[0, 1, 2, 3, 4, 5, 6, 7, 8, 9]","13","4","setsize","3S10A","food","2","0","1","0",""
"null","null","fixation","html-keyboard-response","283","450025","0.0-1.0-9.0-3.0-0.14","21:18:08","4","","","","","","","fixation","","","","","","","","","","","","","","","","","","",""
"1999","2","pic_response","html-keyboard-response","284","452026","0.0-1.0-9.0-3.0-1.14","21:18:08","4","","","","","","","<div>
            <img class='stim' src=""pictures/food/2.jpg""></div><div class=""button_prompt"">
                    <b>请用数字键0-9回答</b>
                    </div>","","","","","","","","","","","","","","","","","","",""
"1999","null","sub_response","html-keyboard-response","285","453028","0.0-1.0-9.0-3.0-2.14","21:18:08","4","","","","","","","<div style='text-align: center;'>
                            <span style=""color: red; font-size: 40px""><b>错误！+0 pts</b></span></div>
                            ","","learn","2","2","2","learn","9","9","[0, 1, 2, 3, 4, 5, 6, 7, 8, 9]","14","4","setsize","3S10A","food","2","0","1","0",""
"null","null","fixation","html-keyboard-response","286","453531","0.0-1.0-9.0-3.0-0.15","21:18:08","4","","","","","","","fixation","","","","","","","","","","","","","","","","","","",""
"1016","3","pic_response","html-keyboard-response","287","454549","0.0-1.0-9.0-3.0-1.15","21:18:08","4","","","","","","","<div>
            <img class='stim' src=""pictures/food/0.jpg""></div><div class=""button_prompt"">
                    <b>请用数字键0-9回答</b>
                    </div>","","","","","","","","","","","","","","","","","","",""
"1016","null","sub_response","html-keyboard-response","288","455564","0.0-1.0-9.0-3.0-2.15","21:18:08","4","","","","","","","<div style='text-align: center;'>
                            <span style=""color: green; font-size: 40px""><b>正确！+1 pts</b></span></div>
                            ","","learn","0","0","0","learn","2","2","[0, 1, 2, 3, 4, 5, 6, 7, 8, 9]","15","5","setsize","3S10A","food","2","1","2","1",""
"null","null","fixation","html-keyboard-response","289","456065","0.0-1.0-9.0-3.0-0.16","21:18:08","4","","","","","","","fixation","","","","","","","","","","","","","","","","","","",""
"848","1","pic_response","html-keyboard-response","290","456914","0.0-1.0-9.0-3.0-1.16","21:18:08","4","","","","","","","<div>
            <img class='stim' src=""pictures/food/2.jpg""></div><div class=""button_prompt"">
                    <b>请用数字键0-9回答</b>
                    </div>","","","","","","","","","","","","","","","","","","",""
"848","null","sub_response","html-keyboard-response","291","457928","0.0-1.0-9.0-3.0-2.16","21:18:08","4","","","","","","","<div style='text-align: center;'>
                            <span style=""color: red; font-size: 40px""><b>错误！+0 pts</b></span></div>
                            ","","learn","2","2","2","learn","9","9","[0, 1, 2, 3, 4, 5, 6, 7, 8, 9]","16","5","setsize","3S10A","food","2","0","0","0",""
"null","null","fixation","html-keyboard-response","292","458430","0.0-1.0-9.0-3.0-0.17","21:18:08","4","","","","","","","fixation","","","","","","","","","","","","","","","","","","",""
"1499","2","pic_response","html-keyboard-response","293","459930","0.0-1.0-9.0-3.0-1.17","21:18:08","4","","","","","","","<div>
            <img class='stim' src=""pictures/food/1.jpg""></div><div class=""button_prompt"">
                    <b>请用数字键0-9回答</b>
                    </div>","","","","","","","","","","","","","","","","","","",""
"1499","null","sub_response","html-keyboard-response","294","460931","0.0-1.0-9.0-3.0-2.17","21:18:08","4","","","","","","","<div style='text-align: center;'>
                            <span style=""color: red; font-size: 40px""><b>错误！+0 pts</b></span></div>
                            ","","learn","1","1","1","learn","6","6","[0, 1, 2, 3, 4, 5, 6, 7, 8, 9]","17","5","setsize","3S10A","food","2","0","1","0",""
"null","null","fixation","html-keyboard-response","295","461432","0.0-1.0-9.0-3.0-0.18","21:18:08","4","","","","","","","fixation","","","","","","","","","","","","","","","","","","",""
"640","3","pic_response","html-keyboard-response","296","462073","0.0-1.0-9.0-3.0-1.18","21:18:08","4","","","","","","","<div>
            <img class='stim' src=""pictures/food/0.jpg""></div><div class=""button_prompt"">
                    <b>请用数字键0-9回答</b>
                    </div>","","","","","","","","","","","","","","","","","","",""
"640","null","sub_response","html-keyboard-response","297","463076","0.0-1.0-9.0-3.0-2.18","21:18:08","4","","","","","","","<div style='text-align: center;'>
                            <span style=""color: green; font-size: 40px""><b>正确！+1 pts</b></span></div>
                            ","","learn","0","0","0","learn","2","2","[0, 1, 2, 3, 4, 5, 6, 7, 8, 9]","18","6","setsize","3S10A","food","2","1","2","1",""
"null","null","fixation","html-keyboard-response","298","463577","0.0-1.0-9.0-3.0-0.19","21:18:08","4","","","","","","","fixation","","","","","","","","","","","","","","","","","","",""
"1753","1","pic_response","html-keyboard-response","299","465332","0.0-1.0-9.0-3.0-1.19","21:18:08","4","","","","","","","<div>
            <img class='stim' src=""pictures/food/1.jpg""></div><div class=""button_prompt"">
                    <b>请用数字键0-9回答</b>
                    </div>","","","","","","","","","","","","","","","","","","",""
"1753","null","sub_response","html-keyboard-response","300","466334","0.0-1.0-9.0-3.0-2.19","21:18:08","4","","","","","","","<div style='text-align: center;'>
                            <span style=""color: red; font-size: 40px""><b>错误！+0 pts</b></span></div>
                            ","","learn","1","1","1","learn","6","6","[0, 1, 2, 3, 4, 5, 6, 7, 8, 9]","19","6","setsize","3S10A","food","2","0","0","0",""
"null","null","fixation","html-keyboard-response","301","466835","0.0-1.0-9.0-3.0-0.20","21:18:08","4","","","","","","","fixation","","","","","","","","","","","","","","","","","","",""
"1373","4","pic_response","html-keyboard-response","302","468210","0.0-1.0-9.0-3.0-1.20","21:18:08","4","","","","","","","<div>
            <img class='stim' src=""pictures/food/2.jpg""></div><div class=""button_prompt"">
                    <b>请用数字键0-9回答</b>
                    </div>","","","","","","","","","","","","","","","","","","",""
"1373","null","sub_response","html-keyboard-response","303","469212","0.0-1.0-9.0-3.0-2.20","21:18:08","4","","","","","","","<div style='text-align: center;'>
                            <span style=""color: red; font-size: 40px""><b>错误！+0 pts</b></span></div>
                            ","","learn","2","2","2","learn","9","9","[0, 1, 2, 3, 4, 5, 6, 7, 8, 9]","20","6","setsize","3S10A","food","2","0","3","0",""
"null","null","fixation","html-keyboard-response","304","469714","0.0-1.0-9.0-3.0-0.21","21:18:08","4","","","","","","","fixation","","","","","","","","","","","","","","","","","","",""
"978","5","pic_response","html-keyboard-response","305","470693","0.0-1.0-9.0-3.0-1.21","21:18:08","4","","","","","","","<div>
            <img class='stim' src=""pictures/food/1.jpg""></div><div class=""button_prompt"">
                    <b>请用数字键0-9回答</b>
                    </div>","","","","","","","","","","","","","","","","","","",""
"978","null","sub_response","html-keyboard-response","306","471695","0.0-1.0-9.0-3.0-2.21","21:18:08","4","","","","","","","<div style='text-align: center;'>
                            <span style=""color: red; font-size: 40px""><b>错误！+0 pts</b></span></div>
                            ","","learn","1","1","1","learn","6","6","[0, 1, 2, 3, 4, 5, 6, 7, 8, 9]","21","7","setsize","3S10A","food","2","0","4","0",""
"null","null","fixation","html-keyboard-response","307","472197","0.0-1.0-9.0-3.0-0.22","21:18:08","4","","","","","","","fixation","","","","","","","","","","","","","","","","","","",""
"547","6","pic_response","html-keyboard-response","308","472746","0.0-1.0-9.0-3.0-1.22","21:18:08","4","","","","","","","<div>
            <img class='stim' src=""pictures/food/2.jpg""></div><div class=""button_prompt"">
                    <b>请用数字键0-9回答</b>
                    </div>","","","","","","","","","","","","","","","","","","",""
"547","null","sub_response","html-keyboard-response","309","473748","0.0-1.0-9.0-3.0-2.22","21:18:08","4","","","","","","","<div style='text-align: center;'>
                            <span style=""color: red; font-size: 40px""><b>错误！+0 pts</b></span></div>
                            ","","learn","2","2","2","learn","9","9","[0, 1, 2, 3, 4, 5, 6, 7, 8, 9]","22","7","setsize","3S10A","food","2","0","5","0",""
"null","null","fixation","html-keyboard-response","310","474251","0.0-1.0-9.0-3.0-0.23","21:18:08","4","","","","","","","fixation","","","","","","","","","","","","","","","","","","",""
"1468","3","pic_response","html-keyboard-response","311","475721","0.0-1.0-9.0-3.0-1.23","21:18:08","4","","","","","","","<div>
            <img class='stim' src=""pictures/food/0.jpg""></div><div class=""button_prompt"">
                    <b>请用数字键0-9回答</b>
                    </div>","","","","","","","","","","","","","","","","","","",""
"1468","null","sub_response","html-keyboard-response","312","476722","0.0-1.0-9.0-3.0-2.23","21:18:08","4","","","","","","","<div style='text-align: center;'>
                            <span style=""color: green; font-size: 40px""><b>正确！+1 pts</b></span></div>
                            ","","learn","0","0","0","learn","2","2","[0, 1, 2, 3, 4, 5, 6, 7, 8, 9]","23","7","setsize","3S10A","food","2","1","2","1",""
"null","null","fixation","html-keyboard-response","313","477224","0.0-1.0-9.0-3.0-0.24","21:18:08","4","","","","","","","fixation","","","","","","","","","","","","","","","","","","",""
"1090","7","pic_response","html-keyboard-response","314","478315","0.0-1.0-9.0-3.0-1.24","21:18:08","4","","","","","","","<div>
            <img class='stim' src=""pictures/food/1.jpg""></div><div class=""button_prompt"">
                    <b>请用数字键0-9回答</b>
                    </div>","","","","","","","","","","","","","","","","","","",""
"1090","null","sub_response","html-keyboard-response","315","479317","0.0-1.0-9.0-3.0-2.24","21:18:08","4","","","","","","","<div style='text-align: center;'>
                            <span style=""color: green; font-size: 40px""><b>正确！+1 pts</b></span></div>
                            ","","learn","1","1","1","learn","6","6","[0, 1, 2, 3, 4, 5, 6, 7, 8, 9]","24","8","setsize","3S10A","food","2","2","6","1",""
"null","null","fixation","html-keyboard-response","316","479827","0.0-1.0-9.0-3.0-0.25","21:18:08","4","","","","","","","fixation","","","","","","","","","","","","","","","","","","",""
"1173","8","pic_response","html-keyboard-response","317","481001","0.0-1.0-9.0-3.0-1.25","21:18:08","4","","","","","","","<div>
            <img class='stim' src=""pictures/food/2.jpg""></div><div class=""button_prompt"">
                    <b>请用数字键0-9回答</b>
                    </div>","","","","","","","","","","","","","","","","","","",""
"1173","null","sub_response","html-keyboard-response","318","482003","0.0-1.0-9.0-3.0-2.25","21:18:08","4","","","","","","","<div style='text-align: center;'>
                            <span style=""color: red; font-size: 40px""><b>错误！+0 pts</b></span></div>
                            ","","learn","2","2","2","learn","9","9","[0, 1, 2, 3, 4, 5, 6, 7, 8, 9]","25","8","setsize","3S10A","food","2","0","7","0",""
"null","null","fixation","html-keyboard-response","319","482505","0.0-1.0-9.0-3.0-0.26","21:18:08","4","","","","","","","fixation","","","","","","","","","","","","","","","","","","",""
"1423","3","pic_response","html-keyboard-response","320","483930","0.0-1.0-9.0-3.0-1.26","21:18:08","4","","","","","","","<div>
            <img class='stim' src=""pictures/food/0.jpg""></div><div class=""button_prompt"">
                    <b>请用数字键0-9回答</b>
