"rt","response","screen_id","trial_type","trial_index","time_elapsed","internal_node_id","start_time","n_Prac","success","timeout","failed_images","failed_audio","failed_video","view_history","stimulus","question_order","stage","s","word","word_id","phase","a_cor","a_real","a_ava","trial","tps","task_type","block_typ","pic_typ","block_id","cum_r","a","r","plugin_name"
"28959","{""sub_id"":""001"",""task_type"":""task1"",""name"":""林枫"",""gender"":""F""}","basic_info","survey-html-form","0","28963","0.0-0.0","17:56:49","3","","","","","","","","","","","","","","","","","","","","","","","","","",""
"","","","preload","1","29532","0.0-1.0-0.0","17:56:49","3","true","false","[]","[]","[]","","","","","","","","","","","","","","","","","","","","",""
"","","","preload","2","29755","0.0-1.0-1.0","17:56:49","3","true","false","[]","[]","[]","","","","","","","","","","","","","","","","","","","","",""
"","","","fullscreen","3","31474","0.0-1.0-2.0","17:56:49","3","true","","","","","","","","","","","","","","","","","","","","","","","","",""
"6591","","instruct","instructions","4","38065","0.0-1.0-3.0-0.0","17:56:49","3","","","","","","[{""page_index"":0,""viewing_time"":2694},{""page_index"":1,""viewing_time"":1416},{""page_index"":2,""viewing_time"":2480}]","","","","","","","","","","","","","","","","","","","",""
"26109","{""Q0"":"""",""task1"":""<span style='font-size: 24px'>学习图片和数字的对应关系</span>"",""task2"":""<span style='font-size: 24px'> 数字键1-3 </span>"",""task3"":""<span style='font-size: 24px'> 看到图片选出正确对应的数字 </span>""}","question","survey-multi-choice","5","64177","0.0-1.0-3.0-1.0","17:56:49","3","","","","","","","","[0,1,2,3]","","","","","","","","","","","","","","","","","",""
"2110"," ","inst_q","html-keyboard-response","6","66291","0.0-1.0-3.0-2.0","17:56:49","3","","","","","","","inst","","1","","","","","","","","","","","","","","","","",""
"8717","","instruct","instructions","7","75008","0.0-1.0-3.1-0.1","17:56:49","3","","","","","","[{""page_index"":0,""viewing_time"":3325},{""page_index"":1,""viewing_time"":3120},{""page_index"":2,""viewing_time"":2272}]","","","","","","","","","","","","","","","","","","","",""
"6295","{""Q0"":"""",""task1"":""<span style='font-size: 24px'>学习图片和数字的对应关系</span>"",""task2"":""<span style='font-size: 24px'> 图片下方标注为可用的数字键（数字键1-3或0-9） </span>"",""task3"":""<span style='font-size: 24px'> 看到图片选出正确对应的数字 </span>""}","question","survey-multi-choice","8","81305","0.0-1.0-3.1-1.1","17:56:49","3","","","","","","","","[0,1,2,3]","","","","","","","","","","","","","","","","","",""
"1670"," ","inst_q","html-keyboard-response","9","82978","0.0-1.0-3.1-2.1","17:56:49","3","","","","","","","inst","","1","","","","","","","","","","","","","","","","",""
"","","","preload","10","83075","0.0-1.0-4.0-0.0","17:56:49","3","true","false","[]","[]","[]","","","","","","","","","","","","","","","","","","","","",""
"767"," ","","html-keyboard-response","11","83842","0.0-1.0-4.0-1.0","17:56:49","3","","","","","","","<div style='font-size: 32px; text-align: center;'
                    <p>请学习图片和数字之间的对应关系</p>
                    <p>我们将<span style='color: blue'><b> 告诉 </b></span>您选择的对错。请根据反馈学习。</p>
                    <p>请按""空格""继续实验。</p></div>","","","","","","","","","","","","","","","","","","",""
"1680"," ","inst","html-keyboard-response","12","85522","0.0-1.0-4.0-2.0","17:56:49","3","","","","","","","<img class='instruct_stim' src=""instruction/prac3.PNG""></div>","","","","","","","","","","","","","","","","","","",""
"null","null","fixation","html-keyboard-response","13","86023","0.0-1.0-4.0-3.0-0.0","17:56:49","3","","","","","","","fixation","","","","","","","","","","","","","","","","","","",""
"2801","1","pic_response","html-keyboard-response","14","88826","0.0-1.0-4.0-3.0-1.0","17:56:49","3","","","","","","","<div>
            <img class='stim' src=""pictures/prac/0.jpg""></div><div class=""button_prompt"">
                        <b>请用数字键1-3回答</b>
                        </div>","","","","","","","","","","","","","","","","","","",""
"2801","null","sub_response","html-keyboard-response","15","89828","0.0-1.0-4.0-3.0-2.0","17:56:49","3","","","","","","","<div style='text-align: center;'>
                            <span style=""color: green; font-size: 40px""><b>正确！+1 pts</b></span></div>
                            ","","learn","0","0","0","learn","0","0","[0, 1, 2]","0","0","setsize","99","prac","0","1","0","1",""
"null","null","fixation","html-keyboard-response","16","90330","0.0-1.0-4.0-3.0-0.1","17:56:49","3","","","","","","","fixation","","","","","","","","","","","","","","","","","","",""
"1079","1","pic_response","html-keyboard-response","17","91410","0.0-1.0-4.0-3.0-1.1","17:56:49","3","","","","","","","<div>
            <img class='stim' src=""pictures/prac/2.jpg""></div><div class=""button_prompt"">
                        <b>请用数字键1-3回答</b>
                        </div>","","","","","","","","","","","","","","","","","","",""
"1079","null","sub_response","html-keyboard-response","18","92411","0.0-1.0-4.0-3.0-2.1","17:56:49","3","","","","","","","<div style='text-align: center;'>
                            <span style=""color: red; font-size: 40px""><b>错误！+0 pts</b></span></div>
                            ","","learn","2","2","2","learn","2","2","[0, 1, 2]","1","0","setsize","99","prac","0","0","0","0",""
"null","null","fixation","html-keyboard-response","19","92914","0.0-1.0-4.0-3.0-0.2","17:56:49","3","","","","","","","fixation","","","","","","","","","","","","","","","","","","",""
"1687","3","pic_response","html-keyboard-response","20","94602","0.0-1.0-4.0-3.0-1.2","17:56:49","3","","","","","","","<div>
            <img class='stim' src=""pictures/prac/1.jpg""></div><div class=""button_prompt"">
                        <b>请用数字键1-3回答</b>
                        </div>","","","","","","","","","","","","","","","","","","",""
"1687","null","sub_response","html-keyboard-response","21","95604","0.0-1.0-4.0-3.0-2.2","17:56:49","3","","","","","","","<div style='text-align: center;'>
                            <span style=""color: red; font-size: 40px""><b>错误！+0 pts</b></span></div>
                            ","","learn","1","1","1","learn","0","0","[0, 1, 2]","2","0","setsize","99","prac","0","0","2","0",""
"null","null","fixation","html-keyboard-response","22","96106","0.0-1.0-4.0-3.0-0.3","17:56:49","3","","","","","","","fixation","","","","","","","","","","","","","","","","","","",""
"368","1","pic_response","html-keyboard-response","23","96474","0.0-1.0-4.0-3.0-1.3","17:56:49","3","","","","","","","<div>
            <img class='stim' src=""pictures/prac/1.jpg""></div><div class=""button_prompt"">
                        <b>请用数字键1-3回答</b>
                        </div>","","","","","","","","","","","","","","","","","","",""
"368","null","sub_response","html-keyboard-response","24","97476","0.0-1.0-4.0-3.0-2.3","17:56:49","3","","","","","","","<div style='text-align: center;'>
                            <span style=""color: green; font-size: 40px""><b>正确！+1 pts</b></span></div>
                            ","","learn","1","1","1","learn","0","0","[0, 1, 2]","3","1","setsize","99","prac","0","1","0","1",""
"null","null","fixation","html-keyboard-response","25","97977","0.0-1.0-4.0-3.0-0.4","17:56:49","3","","","","","","","fixation","","","","","","","","","","","","","","","","","","",""
"768","1","pic_response","html-keyboard-response","26","98746","0.0-1.0-4.0-3.0-1.4","17:56:49","3","","","","","","","<div>
            <img class='stim' src=""pictures/prac/0.jpg""></div><div class=""button_prompt"">
                        <b>请用数字键1-3回答</b>
                        </div>","","","","","","","","","","","","","","","","","","",""
"768","null","sub_response","html-keyboard-response","27","99748","0.0-1.0-4.0-3.0-2.4","17:56:49","3","","","","","","","<div style='text-align: center;'>
                            <span style=""color: green; font-size: 40px""><b>正确！+1 pts</b></span></div>
                            ","","learn","0","0","0","learn","0","0","[0, 1, 2]","4","1","setsize","99","prac","0","2","0","1",""
"null","null","fixation","html-keyboard-response","28","100249","0.0-1.0-4.0-3.0-0.5","17:56:49","3","","","","","","","fixation","","","","","","","","","","","","","","","","","","",""
"514","3","pic_response","html-keyboard-response","29","100763","0.0-1.0-4.0-3.0-1.5","17:56:49","3","","","","","","","<div>
            <img class='stim' src=""pictures/prac/2.jpg""></div><div class=""button_prompt"">
                        <b>请用数字键1-3回答</b>
                        </div>","","","","","","","","","","","","","","","","","","",""
"514","null","sub_response","html-keyboard-response","30","101765","0.0-1.0-4.0-3.0-2.5","17:56:49","3","","","","","","","<div style='text-align: center;'>
                            <span style=""color: green; font-size: 40px""><b>正确！+1 pts</b></span></div>
                            ","","learn","2","2","2","learn","2","2","[0, 1, 2]","5","1","setsize","99","prac","0","3","2","1",""
"","","","preload","31","101769","0.0-1.0-4.1-0.1","17:56:49","3","true","false","[]","[]","[]","","","","","","","","","","","","","","","","","","","","",""
"841"," ","","html-keyboard-response","32","102611","0.0-1.0-4.1-1.1","17:56:49","3","","","","","","","<div style='font-size: 32px; text-align: center;'
                    <p>请学习图片和数字之间的对应关系</p>
                    <p>我们将<span style='color: blue'><b> 告诉 </b></span>您选择的对错。请根据反馈学习。</p>
                    <p>请按""空格""继续实验。</p></div>","","","","","","","","","","","","","","","","","","",""
"6831"," ","inst","html-keyboard-response","33","109442","0.0-1.0-4.1-2.1","17:56:49","3","","","","","","","<img class='instruct_stim' src=""instruction/prac3.PNG""></div>","","","","","","","","","","","","","","","","","","",""
"null","null","fixation","html-keyboard-response","34","109943","0.0-1.0-4.1-3.1-0.6","17:56:49","3","","","","","","","fixation","","","","","","","","","","","","","","","","","","",""
"818","3","pic_response","html-keyboard-response","35","110762","0.0-1.0-4.1-3.1-1.6","17:56:49","3","","","","","","","<div>
            <img class='stim' src=""pictures/prac/0.jpg""></div><div class=""button_prompt"">
                        <b>请用数字键1-3回答</b>
                        </div>","","","","","","","","","","","","","","","","","","",""
"818","null","sub_response","html-keyboard-response","36","111764","0.0-1.0-4.1-3.1-2.6","17:56:49","3","","","","","","","<div style='text-align: center;'>
                            <span style=""color: red; font-size: 40px""><b>错误！+0 pts</b></span></div>
                            ","","learn","0","0","0","learn","0","0","[0, 1, 2]","0","0","setsize","99","prac","0","0","2","0",""
"null","null","fixation","html-keyboard-response","37","112265","0.0-1.0-4.1-3.1-0.7","17:56:49","3","","","","","","","fixation","","","","","","","","","","","","","","","","","","",""
"857","3","pic_response","html-keyboard-response","38","113123","0.0-1.0-4.1-3.1-1.7","17:56:49","3","","","","","","","<div>
            <img class='stim' src=""pictures/prac/2.jpg""></div><div class=""button_prompt"">
                        <b>请用数字键1-3回答</b>
                        </div>","","","","","","","","","","","","","","","","","","",""
"857","null","sub_response","html-keyboard-response","39","114125","0.0-1.0-4.1-3.1-2.7","17:56:49","3","","","","","","","<div style='text-align: center;'>
                            <span style=""color: green; font-size: 40px""><b>正确！+1 pts</b></span></div>
                            ","","learn","2","2","2","learn","2","2","[0, 1, 2]","1","0","setsize","99","prac","0","1","2","1",""
"null","null","fixation","html-keyboard-response","40","114625","0.0-1.0-4.1-3.1-0.8","17:56:49","3","","","","","","","fixation","","","","","","","","","","","","","","","","","","",""
"992","1","pic_response","html-keyboard-response","41","115618","0.0-1.0-4.1-3.1-1.8","17:56:49","3","","","","","","","<div>
            <img class='stim' src=""pictures/prac/1.jpg""></div><div class=""button_prompt"">
                        <b>请用数字键1-3回答</b>
                        </div>","","","","","","","","","","","","","","","","","","",""
"992","null","sub_response","html-keyboard-response","42","116619","0.0-1.0-4.1-3.1-2.8","17:56:49","3","","","","","","","<div style='text-align: center;'>
                            <span style=""color: green; font-size: 40px""><b>正确！+1 pts</b></span></div>
                            ","","learn","1","1","1","learn","0","0","[0, 1, 2]","2","0","setsize","99","prac","0","2","0","1",""
"null","null","fixation","html-keyboard-response","43","117121","0.0-1.0-4.1-3.1-0.9","17:56:49","3","","","","","","","fixation","","","","","","","","","","","","","","","","","","",""
"432","1","pic_response","html-keyboard-response","44","117554","0.0-1.0-4.1-3.1-1.9","17:56:49","3","","","","","","","<div>
            <img class='stim' src=""pictures/prac/1.jpg""></div><div class=""button_prompt"">
                        <b>请用数字键1-3回答</b>
                        </div>","","","","","","","","","","","","","","","","","","",""
"432","null","sub_response","html-keyboard-response","45","118556","0.0-1.0-4.1-3.1-2.9","17:56:49","3","","","","","","","<div style='text-align: center;'>
                            <span style=""color: green; font-size: 40px""><b>正确！+1 pts</b></span></div>
                            ","","learn","1","1","1","learn","0","0","[0, 1, 2]","3","1","setsize","99","prac","0","3","0","1",""
"null","null","fixation","html-keyboard-response","46","119072","0.0-1.0-4.1-3.1-0.10","17:56:49","3","","","","","","","fixation","","","","","","","","","","","","","","","","","","",""
"666","3","pic_response","html-keyboard-response","47","119739","0.0-1.0-4.1-3.1-1.10","17:56:49","3","","","","","","","<div>
            <img class='stim' src=""pictures/prac/0.jpg""></div><div class=""button_prompt"">
                        <b>请用数字键1-3回答</b>
                        </div>","","","","","","","","","","","","","","","","","","",""
"666","null","sub_response","html-keyboard-response","48","120740","0.0-1.0-4.1-3.1-2.10","17:56:49","3","","","","","","","<div style='text-align: center;'>
                            <span style=""color: red; font-size: 40px""><b>错误！+0 pts</b></span></div>
                            ","","learn","0","0","0","learn","0","0","[0, 1, 2]","4","1","setsize","99","prac","0","0","2","0",""
"null","null","fixation","html-keyboard-response","49","121242","0.0-1.0-4.1-3.1-0.11","17:56:49","3","","","","","","","fixation","","","","","","","","","","","","","","","","","","",""
"664","3","pic_response","html-keyboard-response","50","121906","0.0-1.0-4.1-3.1-1.11","17:56:49","3","","","","","","","<div>
            <img class='stim' src=""pictures/prac/2.jpg""></div><div class=""button_prompt"">
                        <b>请用数字键1-3回答</b>
                        </div>","","","","","","","","","","","","","","","","","","",""
"664","null","sub_response","html-keyboard-response","51","122908","0.0-1.0-4.1-3.1-2.11","17:56:49","3","","","","","","","<div style='text-align: center;'>
                            <span style=""color: green; font-size: 40px""><b>正确！+1 pts</b></span></div>
                            ","","learn","2","2","2","learn","2","2","[0, 1, 2]","5","1","setsize","99","prac","0","1","2","1",""
"","","","preload","52","122910","0.0-1.0-4.2-0.2","17:56:49","3","true","false","[]","[]","[]","","","","","","","","","","","","","","","","","","","","",""
"652"," ","","html-keyboard-response","53","123562","0.0-1.0-4.2-1.2","17:56:49","3","","","","","","","<div style='font-size: 32px; text-align: center;'
                    <p>请学习图片和数字之间的对应关系</p>
                    <p>我们将<span style='color: blue'><b> 告诉 </b></span>您选择的对错。请根据反馈学习。</p>
                    <p>请按""空格""继续实验。</p></div>","","","","","","","","","","","","","","","","","","",""
"4984"," ","inst","html-keyboard-response","54","128546","0.0-1.0-4.2-2.2","17:56:49","3","","","","","","","<img class='instruct_stim' src=""instruction/prac3.PNG""></div>","","","","","","","","","","","","","","","","","","",""
"null","null","fixation","html-keyboard-response","55","129048","0.0-1.0-4.2-3.2-0.12","17:56:49","3","","","","","","","fixation","","","","","","","","","","","","","","","","","","",""
"656","1","pic_response","html-keyboard-response","56","129705","0.0-1.0-4.2-3.2-1.12","17:56:49","3","","","","","","","<div>
            <img class='stim' src=""pictures/prac/0.jpg""></div><div class=""button_prompt"">
                        <b>请用数字键1-3回答</b>
                        </div>","","","","","","","","","","","","","","","","","","",""
"656","null","sub_response","html-keyboard-response","57","130707","0.0-1.0-4.2-3.2-2.12","17:56:49","3","","","","","","","<div style='text-align: center;'>
                            <span style=""color: green; font-size: 40px""><b>正确！+1 pts</b></span></div>
                            ","","learn","0","0","0","learn","0","0","[0, 1, 2]","0","0","setsize","99","prac","0","2","0","1",""
"null","null","fixation","html-keyboard-response","58","131208","0.0-1.0-4.2-3.2-0.13","17:56:49","3","","","","","","","fixation","","","","","","","","","","","","","","","","","","",""
"1082","3","pic_response","html-keyboard-response","59","132291","0.0-1.0-4.2-3.2-1.13","17:56:49","3","","","","","","","<div>
            <img class='stim' src=""pictures/prac/2.jpg""></div><div class=""button_prompt"">
                        <b>请用数字键1-3回答</b>
                        </div>","","","","","","","","","","","","","","","","","","",""
"1082","null","sub_response","html-keyboard-response","60","133292","0.0-1.0-4.2-3.2-2.13","17:56:49","3","","","","","","","<div style='text-align: center;'>
                            <span style=""color: green; font-size: 40px""><b>正确！+1 pts</b></span></div>
                            ","","learn","2","2","2","learn","2","2","[0, 1, 2]","1","0","setsize","99","prac","0","3","2","1",""
"null","null","fixation","html-keyboard-response","61","133793","0.0-1.0-4.2-3.2-0.14","17:56:49","3","","","","","","","fixation","","","","","","","","","","","","","","","","","","",""
"472","1","pic_response","html-keyboard-response","62","134266","0.0-1.0-4.2-3.2-1.14","17:56:49","3","","","","","","","<div>
            <img class='stim' src=""pictures/prac/1.jpg""></div><div class=""button_prompt"">
                        <b>请用数字键1-3回答</b>
                        </div>","","","","","","","","","","","","","","","","","","",""
"472","null","sub_response","html-keyboard-response","63","135267","0.0-1.0-4.2-3.2-2.14","17:56:49","3","","","","","","","<div style='text-align: center;'>
                            <span style=""color: green; font-size: 40px""><b>正确！+1 pts</b></span></div>
                            ","","learn","1","1","1","learn","0","0","[0, 1, 2]","2","0","setsize","99","prac","0","4","0","1",""
"null","null","fixation","html-keyboard-response","64","135769","0.0-1.0-4.2-3.2-0.15","17:56:49","3","","","","","","","fixation","","","","","","","","","","","","","","","","","","",""
"528","1","pic_response","html-keyboard-response","65","136298","0.0-1.0-4.2-3.2-1.15","17:56:49","3","","","","","","","<div>
            <img class='stim' src=""pictures/prac/1.jpg""></div><div class=""button_prompt"">
                        <b>请用数字键1-3回答</b>
                        </div>","","","","","","","","","","","","","","","","","","",""
"528","null","sub_response","html-keyboard-response","66","137300","0.0-1.0-4.2-3.2-2.15","17:56:49","3","","","","","","","<div style='text-align: center;'>
                            <span style=""color: green; font-size: 40px""><b>正确！+1 pts</b></span></div>
                            ","","learn","1","1","1","learn","0","0","[0, 1, 2]","3","1","setsize","99","prac","0","5","0","1",""
"null","null","fixation","html-keyboard-response","67","137802","0.0-1.0-4.2-3.2-0.16","17:56:49","3","","","","","","","fixation","","","","","","","","","","","","","","","","","","",""
"576","1","pic_response","html-keyboard-response","68","138379","0.0-1.0-4.2-3.2-1.16","17:56:49","3","","","","","","","<div>
            <img class='stim' src=""pictures/prac/0.jpg""></div><div class=""button_prompt"">
                        <b>请用数字键1-3回答</b>
                        </div>","","","","","","","","","","","","","","","","","","",""
"576","null","sub_response","html-keyboard-response","69","139380","0.0-1.0-4.2-3.2-2.16","17:56:49","3","","","","","","","<div style='text-align: center;'>
                            <span style=""color: green; font-size: 40px""><b>正确！+1 pts</b></span></div>
                            ","","learn","0","0","0","learn","0","0","[0, 1, 2]","4","1","setsize","99","prac","0","6","0","1",""
"null","null","fixation","html-keyboard-response","70","139882","0.0-1.0-4.2-3.2-0.17","17:56:49","3","","","","","","","fixation","","","","","","","","","","","","","","","","","","",""
"288","3","pic_response","html-keyboard-response","71","140170","0.0-1.0-4.2-3.2-1.17","17:56:49","3","","","","","","","<div>
            <img class='stim' src=""pictures/prac/2.jpg""></div><div class=""button_prompt"">
                        <b>请用数字键1-3回答</b>
                        </div>","","","","","","","","","","","","","","","","","","",""
"288","null","sub_response","html-keyboard-response","72","141172","0.0-1.0-4.2-3.2-2.17","17:56:49","3","","","","","","","<div style='text-align: center;'>
                            <span style=""color: green; font-size: 40px""><b>正确！+1 pts</b></span></div>
                            ","","learn","2","2","2","learn","2","2","[0, 1, 2]","5","1","setsize","99","prac","0","7","2","1",""
"1646"," ","","html-keyboard-response","73","142818","0.0-1.0-5.0","17:56:49","3","","","","","","","<div style=""font-size: 25px""><p>距下一个实验开始还有</p><div style=""font-size: 50px; color: blue""><p><span id=""clock"">1:00</span></div></p><p>按""空格""跳过休息</p></div>","","","","","","","","","","","","","","","","","","",""
"503"," ","","html-keyboard-response","74","143322","0.0-1.0-6.0","17:56:49","3","","","","","","","<div style='font-size: 32px; text-align: center;'
                    <p>请按""空格""继续正式实验。</p></div>","","","","","","","","","","","","","","","","","","",""
"","","","preload","75","143497","0.0-1.0-7.0-0.0","17:56:49","3","true","false","[]","[]","[]","","","","","","","","","","","","","","","","","","","","",""
"562"," ","","html-keyboard-response","76","144059","0.0-1.0-7.0-1.0","17:56:49","3","","","","","","","<div style='font-size: 32px; text-align: center;'
                    <p>请学习图片和数字之间的对应关系</p>
                    <p>我们将<span style='color: blue'><b> 告诉 </b></span>您选择的对错。请根据反馈学习。</p>
                    <p>请按""空格""继续实验。</p></div>","","","","","","","","","","","","","","","","","","",""
"16478"," ","inst","html-keyboard-response","77","160538","0.0-1.0-7.0-2.0","17:56:49","3","","","","","","","<img class='instruct_stim' src=""instruction/furniture10.PNG""></div>","","","","","","","","","","","","","","","","","","",""
"null","null","fixation","html-keyboard-response","78","161040","0.0-1.0-7.0-3.0-0.0","17:56:49","3","","","","","","","fixation","","","","","","","","","","","","","","","","","","",""
"1698","1","pic_response","html-keyboard-response","79","162739","0.0-1.0-7.0-3.0-1.0","17:56:49","3","","","","","","","<div>
            <img class='stim' src=""pictures/furniture/8.jpg""></div><div class=""button_prompt"">
                        <b>请用数字键1-3回答</b>
                        </div>","","","","","","","","","","","","","","","","","","",""
"1698","null","sub_response","html-keyboard-response","80","163740","0.0-1.0-7.0-3.0-2.0","17:56:49","3","","","","","","","<div style='text-align: center;'>
                            <span style=""color: red; font-size: 40px""><b>错误！+0 pts</b></span></div>
                            ","","learn","8","8","8","learn","2","2","[0, 1, 2]","0","0","setsize","10S3A","furniture","1","0","0","0",""
"null","null","fixation","html-keyboard-response","81","164242","0.0-1.0-7.0-3.0-0.1","17:56:49","3","","","","","","","fixation","","","","","","","","","","","","","","","","","","",""
"1168","1","pic_response","html-keyboard-response","82","165411","0.0-1.0-7.0-3.0-1.1","17:56:49","3","","","","","","","<div>
            <img class='stim' src=""pictures/furniture/4.jpg""></div><div class=""button_prompt"">
                        <b>请用数字键1-3回答</b>
                        </div>","","","","","","","","","","","","","","","","","","",""
"1168","null","sub_response","html-keyboard-response","83","166412","0.0-1.0-7.0-3.0-2.1","17:56:49","3","","","","","","","<div style='text-align: center;'>
                            <span style=""color: red; font-size: 40px""><b>错误！+0 pts</b></span></div>
                            ","","learn","4","4","4","learn","1","1","[0, 1, 2]","1","0","setsize","10S3A","furniture","1","0","0","0",""
"null","null","fixation","html-keyboard-response","84","166915","0.0-1.0-7.0-3.0-0.2","17:56:49","3","","","","","","","fixation","","","","","","","","","","","","","","","","","","",""
"1294","1","pic_response","html-keyboard-response","85","168210","0.0-1.0-7.0-3.0-1.2","17:56:49","3","","","","","","","<div>
            <img class='stim' src=""pictures/furniture/2.jpg""></div><div class=""button_prompt"">
                        <b>请用数字键1-3回答</b>
                        </div>","","","","","","","","","","","","","","","","","","",""
"1294","null","sub_response","html-keyboard-response","86","169212","0.0-1.0-7.0-3.0-2.2","17:56:49","3","","","","","","","<div style='text-align: center;'>
                            <span style=""color: green; font-size: 40px""><b>正确！+1 pts</b></span></div>
                            ","","learn","2","2","2","learn","0","0","[0, 1, 2]","2","0","setsize","10S3A","furniture","1","1","0","1",""
"null","null","fixation","html-keyboard-response","87","169713","0.0-1.0-7.0-3.0-0.3","17:56:49","3","","","","","","","fixation","","","","","","","","","","","","","","","","","","",""
"1793","1","pic_response","html-keyboard-response","88","171507","0.0-1.0-7.0-3.0-1.3","17:56:49","3","","","","","","","<div>
            <img class='stim' src=""pictures/furniture/5.jpg""></div><div class=""button_prompt"">
                        <b>请用数字键1-3回答</b>
                        </div>","","","","","","","","","","","","","","","","","","",""
"1793","null","sub_response","html-keyboard-response","89","172509","0.0-1.0-7.0-3.0-2.3","17:56:49","3","","","","","","","<div style='text-align: center;'>
                            <span style=""color: red; font-size: 40px""><b>错误！+0 pts</b></span></div>
                            ","","learn","5","5","5","learn","1","1","[0, 1, 2]","3","0","setsize","10S3A","furniture","1","0","0","0",""
"null","null","fixation","html-keyboard-response","90","173011","0.0-1.0-7.0-3.0-0.4","17:56:49","3","","","","","","","fixation","","","","","","","","","","","","","","","","","","",""
"1623","1","pic_response","html-keyboard-response","91","174634","0.0-1.0-7.0-3.0-1.4","17:56:49","3","","","","","","","<div>
            <img class='stim' src=""pictures/furniture/0.jpg""></div><div class=""button_prompt"">
                        <b>请用数字键1-3回答</b>
                        </div>","","","","","","","","","","","","","","","","","","",""
"1623","null","sub_response","html-keyboard-response","92","175635","0.0-1.0-7.0-3.0-2.4","17:56:49","3","","","","","","","<div style='text-align: center;'>
                            <span style=""color: green; font-size: 40px""><b>正确！+1 pts</b></span></div>
                            ","","learn","0","0","0","learn","0","0","[0, 1, 2]","4","0","setsize","10S3A","furniture","1","1","0","1",""
"null","null","fixation","html-keyboard-response","93","176138","0.0-1.0-7.0-3.0-0.5","17:56:49","3","","","","","","","fixation","","","","","","","","","","","","","","","","","","",""
"1800","1","pic_response","html-keyboard-response","94","177938","0.0-1.0-7.0-3.0-1.5","17:56:49","3","","","","","","","<div>
            <img class='stim' src=""pictures/furniture/3.jpg""></div><div class=""button_prompt"">
                        <b>请用数字键1-3回答</b>
                        </div>","","","","","","","","","","","","","","","","","","",""
"1800","null","sub_response","html-keyboard-response","95","178939","0.0-1.0-7.0-3.0-2.5","17:56:49","3","","","","","","","<div style='text-align: center;'>
                            <span style=""color: red; font-size: 40px""><b>错误！+0 pts</b></span></div>
                            ","","learn","3","3","3","learn","1","1","[0, 1, 2]","5","0","setsize","10S3A","furniture","1","0","0","0",""
"null","null","fixation","html-keyboard-response","96","179441","0.0-1.0-7.0-3.0-0.6","17:56:49","3","","","","","","","fixation","","","","","","","","","","","","","","","","","","",""
"936","1","pic_response","html-keyboard-response","97","180378","0.0-1.0-7.0-3.0-1.6","17:56:49","3","","","","","","","<div>
            <img class='stim' src=""pictures/furniture/1.jpg""></div><div class=""button_prompt"">
                        <b>请用数字键1-3回答</b>
                        </div>","","","","","","","","","","","","","","","","","","",""
"936","null","sub_response","html-keyboard-response","98","181379","0.0-1.0-7.0-3.0-2.6","17:56:49","3","","","","","","","<div style='text-align: center;'>
                            <span style=""color: green; font-size: 40px""><b>正确！+1 pts</b></span></div>
                            ","","learn","1","1","1","learn","0","0","[0, 1, 2]","6","0","setsize","10S3A","furniture","1","1","0","1",""
"null","null","fixation","html-keyboard-response","99","181880","0.0-1.0-7.0-3.0-0.7","17:56:49","3","","","","","","","fixation","","","","","","","","","","","","","","","","","","",""
"1250","1","pic_response","html-keyboard-response","100","183130","0.0-1.0-7.0-3.0-1.7","17:56:49","3","","","","","","","<div>
            <img class='stim' src=""pictures/furniture/9.jpg""></div><div class=""button_prompt"">
                        <b>请用数字键1-3回答</b>
                        </div>","","","","","","","","","","","","","","","","","","",""
"1250","null","sub_response","html-keyboard-response","101","184152","0.0-1.0-7.0-3.0-2.7","17:56:49","3","","","","","","","<div style='text-align: center;'>
                            <span style=""color: red; font-size: 40px""><b>错误！+0 pts</b></span></div>
                            ","","learn","9","9","9","learn","2","2","[0, 1, 2]","7","0","setsize","10S3A","furniture","1","0","0","0",""
"null","null","fixation","html-keyboard-response","102","184654","0.0-1.0-7.0-3.0-0.8","17:56:49","3","","","","","","","fixation","","","","","","","","","","","","","","","","","","",""
"1035","1","pic_response","html-keyboard-response","103","185690","0.0-1.0-7.0-3.0-1.8","17:56:49","3","","","","","","","<div>
            <img class='stim' src=""pictures/furniture/6.jpg""></div><div class=""button_prompt"">
                        <b>请用数字键1-3回答</b>
                        </div>","","","","","","","","","","","","","","","","","","",""
"1035","null","sub_response","html-keyboard-response","104","186692","0.0-1.0-7.0-3.0-2.8","17:56:49","3","","","","","","","<div style='text-align: center;'>
                            <span style=""color: red; font-size: 40px""><b>错误！+0 pts</b></span></div>
                            ","","learn","6","6","6","learn","2","2","[0, 1, 2]","8","0","setsize","10S3A","furniture","1","0","0","0",""
"null","null","fixation","html-keyboard-response","105","187193","0.0-1.0-7.0-3.0-0.9","17:56:49","3","","","","","","","fixation","","","","","","","","","","","","","","","","","","",""
"1168","1","pic_response","html-keyboard-response","106","188362","0.0-1.0-7.0-3.0-1.9","17:56:49","3","","","","","","","<div>
            <img class='stim' src=""pictures/furniture/7.jpg""></div><div class=""button_prompt"">
                        <b>请用数字键1-3回答</b>
                        </div>","","","","","","","","","","","","","","","","","","",""
"1168","null","sub_response","html-keyboard-response","107","189364","0.0-1.0-7.0-3.0-2.9","17:56:49","3","","","","","","","<div style='text-align: center;'>
                            <span style=""color: red; font-size: 40px""><b>错误！+0 pts</b></span></div>
                            ","","learn","7","7","7","learn","2","2","[0, 1, 2]","9","0","setsize","10S3A","furniture","1","0","0","0",""
"null","null","fixation","html-keyboard-response","108","189865","0.0-1.0-7.0-3.0-0.10","17:56:49","3","","","","","","","fixation","","","","","","","","","","","","","","","","","","",""
"1858","1","pic_response","html-keyboard-response","109","191724","0.0-1.0-7.0-3.0-1.10","17:56:49","3","","","","","","","<div>
            <img class='stim' src=""pictures/furniture/2.jpg""></div><div class=""button_prompt"">
                        <b>请用数字键1-3回答</b>
                        </div>","","","","","","","","","","","","","","","","","","",""
"1858","null","sub_response","html-keyboard-response","110","192725","0.0-1.0-7.0-3.0-2.10","17:56:49","3","","","","","","","<div style='text-align: center;'>
                            <span style=""color: green; font-size: 40px""><b>正确！+1 pts</b></span></div>
                            ","","learn","2","2","2","learn","0","0","[0, 1, 2]","10","1","setsize","10S3A","furniture","1","1","0","1",""
"null","null","fixation","html-keyboard-response","111","193226","0.0-1.0-7.0-3.0-0.11","17:56:49","3","","","","","","","fixation","","","","","","","","","","","","","","","","","","",""
"1338","1","pic_response","html-keyboard-response","112","194564","0.0-1.0-7.0-3.0-1.11","17:56:49","3","","","","","","","<div>
            <img class='stim' src=""pictures/furniture/1.jpg""></div><div class=""button_prompt"">
                        <b>请用数字键1-3回答</b>
                        </div>","","","","","","","","","","","","","","","","","","",""
"1338","null","sub_response","html-keyboard-response","113","195566","0.0-1.0-7.0-3.0-2.11","17:56:49","3","","","","","","","<div style='text-align: center;'>
                            <span style=""color: green; font-size: 40px""><b>正确！+1 pts</b></span></div>
                            ","","learn","1","1","1","learn","0","0","[0, 1, 2]","11","1","setsize","10S3A","furniture","1","2","0","1",""
"null","null","fixation","html-keyboard-response","114","196068","0.0-1.0-7.0-3.0-0.12","17:56:49","3","","","","","","","fixation","","","","","","","","","","","","","","","","","","",""
"1415","3","pic_response","html-keyboard-response","115","197483","0.0-1.0-7.0-3.0-1.12","17:56:49","3","","","","","","","<div>
            <img class='stim' src=""pictures/furniture/3.jpg""></div><div class=""button_prompt"">
                        <b>请用数字键1-3回答</b>
                        </div>","","","","","","","","","","","","","","","","","","",""
"1415","null","sub_response","html-keyboard-response","116","198485","0.0-1.0-7.0-3.0-2.12","17:56:49","3","","","","","","","<div style='text-align: center;'>
                            <span style=""color: red; font-size: 40px""><b>错误！+0 pts</b></span></div>
                            ","","learn","3","3","3","learn","1","1","[0, 1, 2]","12","1","setsize","10S3A","furniture","1","0","2","0",""
"null","null","fixation","html-keyboard-response","117","198987","0.0-1.0-7.0-3.0-0.13","17:56:49","3","","","","","","","fixation","","","","","","","","","","","","","","","","","","",""
"null","null","pic_response","html-keyboard-response","118","201989","0.0-1.0-7.0-3.0-1.13","17:56:49","3","","","","","","","<div>
            <img class='stim' src=""pictures/furniture/8.jpg""></div><div class=""button_prompt"">
                        <b>请用数字键1-3回答</b>
                        </div>","","","","","","","","","","","","","","","","","","",""
"null","null","sub_response","html-keyboard-response","119","202991","0.0-1.0-7.0-3.0-2.13","17:56:49","3","","","","","","","<div style='text-align: center;'>
                            <span style=""color: red; font-size: 40px""><b>错误！+0 pts</b></span></div>
                            ","","learn","8","8","8","learn","2","2","[0, 1, 2]","13","1","setsize","10S3A","furniture","1","0","999","0",""
"null","null","fixation","html-keyboard-response","120","203492","0.0-1.0-7.0-3.0-0.14","17:56:49","3","","","","","","","fixation","","","","","","","","","","","","","","","","","","",""
"1367","3","pic_response","html-keyboard-response","121","204859","0.0-1.0-7.0-3.0-1.14","17:56:49","3","","","","","","","<div>
            <img class='stim' src=""pictures/furniture/7.jpg""></div><div class=""button_prompt"">
                        <b>请用数字键1-3回答</b>
                        </div>","","","","","","","","","","","","","","","","","","",""
"1367","null","sub_response","html-keyboard-response","122","205861","0.0-1.0-7.0-3.0-2.14","17:56:49","3","","","","","","","<div style='text-align: center;'>
                            <span style=""color: green; font-size: 40px""><b>正确！+1 pts</b></span></div>
                            ","","learn","7","7","7","learn","2","2","[0, 1, 2]","14","1","setsize","10S3A","furniture","1","1","2","1",""
"null","null","fixation","html-keyboard-response","123","206362","0.0-1.0-7.0-3.0-0.15","17:56:49","3","","","","","","","fixation","","","","","","","","","","","","","","","","","","",""
"2408","3","pic_response","html-keyboard-response","124","208771","0.0-1.0-7.0-3.0-1.15","17:56:49","3","","","","","","","<div>
            <img class='stim' src=""pictures/furniture/5.jpg""></div><div class=""button_prompt"">
                        <b>请用数字键1-3回答</b>
                        </div>","","","","","","","","","","","","","","","","","","",""
"2408","null","sub_response","html-keyboard-response","125","209772","0.0-1.0-7.0-3.0-2.15","17:56:49","3","","","","","","","<div style='text-align: center;'>
                            <span style=""color: red; font-size: 40px""><b>错误！+0 pts</b></span></div>
                            ","","learn","5","5","5","learn","1","1","[0, 1, 2]","15","1","setsize","10S3A","furniture","1","0","2","0",""
"null","null","fixation","html-keyboard-response","126","210274","0.0-1.0-7.0-3.0-0.16","17:56:49","3","","","","","","","fixation","","","","","","","","","","","","","","","","","","",""
"2577","1","pic_response","html-keyboard-response","127","212851","0.0-1.0-7.0-3.0-1.16","17:56:49","3","","","","","","","<div>
            <img class='stim' src=""pictures/furniture/0.jpg""></div><div class=""button_prompt"">
                        <b>请用数字键1-3回答</b>
                        </div>","","","","","","","","","","","","","","","","","","",""
"2577","null","sub_response","html-keyboard-response","128","213853","0.0-1.0-7.0-3.0-2.16","17:56:49","3","","","","","","","<div style='text-align: center;'>
                            <span style=""color: green; font-size: 40px""><b>正确！+1 pts</b></span></div>
                            ","","learn","0","0","0","learn","0","0","[0, 1, 2]","16","1","setsize","10S3A","furniture","1","1","0","1",""
"null","null","fixation","html-keyboard-response","129","214355","0.0-1.0-7.0-3.0-0.17","17:56:49","3","","","","","","","fixation","","","","","","","","","","","","","","","","","","",""
"1207","3","pic_response","html-keyboard-response","130","215563","0.0-1.0-7.0-3.0-1.17","17:56:49","3","","","","","","","<div>
            <img class='stim' src=""pictures/furniture/4.jpg""></div><div class=""button_prompt"">
                        <b>请用数字键1-3回答</b>
                        </div>","","","","","","","","","","","","","","","","","","",""
"1207","null","sub_response","html-keyboard-response","131","216577","0.0-1.0-7.0-3.0-2.17","17:56:49","3","","","","","","","<div style='text-align: center;'>
                            <span style=""color: red; font-size: 40px""><b>错误！+0 pts</b></span></div>
                            ","","learn","4","4","4","learn","1","1","[0, 1, 2]","17","1","setsize","10S3A","furniture","1","0","2","0",""
"null","null","fixation","html-keyboard-response","132","217078","0.0-1.0-7.0-3.0-0.18","17:56:49","3","","","","","","","fixation","","","","","","","","","","","","","","","","","","",""
"1382","3","pic_response","html-keyboard-response","133","218460","0.0-1.0-7.0-3.0-1.18","17:56:49","3","","","","","","","<div>
            <img class='stim' src=""pictures/furniture/9.jpg""></div><div class=""button_prompt"">
                        <b>请用数字键1-3回答</b>
                        </div>","","","","","","","","","","","","","","","","","","",""
"1382","null","sub_response","html-keyboard-response","134","219462","0.0-1.0-7.0-3.0-2.18","17:56:49","3","","","","","","","<div style='text-align: center;'>
                            <span style=""color: green; font-size: 40px""><b>正确！+1 pts</b></span></div>
                            ","","learn","9","9","9","learn","2","2","[0, 1, 2]","18","1","setsize","10S3A","furniture","1","1","2","1",""
"null","null","fixation","html-keyboard-response","135","219963","0.0-1.0-7.0-3.0-0.19","17:56:49","3","","","","","","","fixation","","","","","","","","","","","","","","","","","","",""
"1016","3","pic_response","html-keyboard-response","136","220979","0.0-1.0-7.0-3.0-1.19","17:56:49","3","","","","","","","<div>
            <img class='stim' src=""pictures/furniture/6.jpg""></div><div class=""button_prompt"">
                        <b>请用数字键1-3回答</b>
                        </div>","","","","","","","","","","","","","","","","","","",""
"1016","null","sub_response","html-keyboard-response","137","221980","0.0-1.0-7.0-3.0-2.19","17:56:49","3","","","","","","","<div style='text-align: center;'>
                            <span style=""color: green; font-size: 40px""><b>正确！+1 pts</b></span></div>
                            ","","learn","6","6","6","learn","2","2","[0, 1, 2]","19","1","setsize","10S3A","furniture","1","2","2","1",""
"null","null","fixation","html-keyboard-response","138","222481","0.0-1.0-7.0-3.0-0.20","17:56:49","3","","","","","","","fixation","","","","","","","","","","","","","","","","","","",""
"null","null","pic_response","html-keyboard-response","139","225483","0.0-1.0-7.0-3.0-1.20","17:56:49","3","","","","","","","<div>
            <img class='stim' src=""pictures/furniture/3.jpg""></div><div class=""button_prompt"">
                        <b>请用数字键1-3回答</b>
                        </div>","","","","","","","","","","","","","","","","","","",""
"null","null","sub_response","html-keyboard-response","140","226483","0.0-1.0-7.0-3.0-2.20","17:56:49","3","","","","","","","<div style='text-align: center;'>
                            <span style=""color: red; font-size: 40px""><b>错误！+0 pts</b></span></div>
                            ","","learn","3","3","3","learn","1","1","[0, 1, 2]","20","2","setsize","10S3A","furniture","1","0","999","0",""
"null","null","fixation","html-keyboard-response","141","226984","0.0-1.0-7.0-3.0-0.21","17:56:49","3","","","","","","","fixation","","","","","","","","","","","","","","","","","","",""
"1146","3","pic_response","html-keyboard-response","142","228131","0.0-1.0-7.0-3.0-1.21","17:56:49","3","","","","","","","<div>
            <img class='stim' src=""pictures/furniture/9.jpg""></div><div class=""button_prompt"">
                        <b>请用数字键1-3回答</b>
                        </div>","","","","","","","","","","","","","","","","","","",""
"1146","null","sub_response","html-keyboard-response","143","229132","0.0-1.0-7.0-3.0-2.21","17:56:49","3","","","","","","","<div style='text-align: center;'>
                            <span style=""color: green; font-size: 40px""><b>正确！+1 pts</b></span></div>
                            ","","learn","9","9","9","learn","2","2","[0, 1, 2]","21","2","setsize","10S3A","furniture","1","1","2","1",""
"null","null","fixation","html-keyboard-response","144","229633","0.0-1.0-7.0-3.0-0.22","17:56:49","3","","","","","","","fixation","","","","","","","","","","","","","","","","","","",""
"930","3","pic_response","html-keyboard-response","145","230563","0.0-1.0-7.0-3.0-1.22","17:56:49","3","","","","","","","<div>
            <img class='stim' src=""pictures/furniture/6.jpg""></div><div class=""button_prompt"">
                        <b>请用数字键1-3回答</b>
                        </div>","","","","","","","","","","","","","","","","","","",""
"930","null","sub_response","html-keyboard-response","146","231564","0.0-1.0-7.0-3.0-2.22","17:56:49","3","","","","","","","<div style='text-align: center;'>
                            <span style=""color: green; font-size: 40px""><b>正确！+1 pts</b></span></div>
                            ","","learn","6","6","6","learn","2","2","[0, 1, 2]","22","2","setsize","10S3A","furniture","1","2","2","1",""
"null","null","fixation","html-keyboard-response","147","232066","0.0-1.0-7.0-3.0-0.23","17:56:49","3","","","","","","","fixation","","","","","","","","","","","","","","","","","","",""
"1256","1","pic_response","html-keyboard-response","148","233323","0.0-1.0-7.0-3.0-1.23","17:56:49","3","","","","","","","<div>
            <img class='stim' src=""pictures/furniture/0.jpg""></div><div class=""button_prompt"">
                        <b>请用数字键1-3回答</b>
                        </div>","","","","","","","","","","","","","","","","","","",""
"1256","null","sub_response","html-keyboard-response","149","234324","0.0-1.0-7.0-3.0-2.23","17:56:49","3","","","","","","","<div style='text-align: center;'>
                            <span style=""color: green; font-size: 40px""><b>正确！+1 pts</b></span></div>
                            ","","learn","0","0","0","learn","0","0","[0, 1, 2]","23","2","setsize","10S3A","furniture","1","3","0","1",""
"null","null","fixation","html-keyboard-response","150","234826","0.0-1.0-7.0-3.0-0.24","17:56:49","3","","","","","","","fixation","","","","","","","","","","","","","","","","","","",""
"1209","3","pic_response","html-keyboard-response","151","236036","0.0-1.0-7.0-3.0-1.24","17:56:49","3","","","","","","","<div>
            <img class='stim' src=""pictures/furniture/7.jpg""></div><div class=""button_prompt"">
                        <b>请用数字键1-3回答</b>
                        </div>","","","","","","","","","","","","","","","","","","",""
"1209","null","sub_response","html-keyboard-response","152","237042","0.0-1.0-7.0-3.0-2.24","17:56:49","3","","","","","","","<div style='text-align: center;'>
                            <span style=""color: green; font-size: 40px""><b>正确！+1 pts</b></span></div>
                            ","","learn","7","7","7","learn","2","2","[0, 1, 2]","24","2","setsize","10S3A","furniture","1","4","2","1",""
"null","null","fixation","html-keyboard-response","153","237542","0.0-1.0-7.0-3.0-0.25","17:56:49","3","","","","","","","fixation","","","","","","","","","","","","","","","","","","",""
"1556","1","pic_response","html-keyboard-response","154","239099","0.0-1.0-7.0-3.0-1.25","17:56:49","3","","","","","","","<div>
            <img class='stim' src=""pictures/furniture/2.jpg""></div><div class=""button_prompt"">
                        <b>请用数字键1-3回答</b>
                        </div>","","","","","","","","","","","","","","","","","","",""
"1556","null","sub_response","html-keyboard-response","155","240100","0.0-1.0-7.0-3.0-2.25","17:56:49","3","","","","","","","<div style='text-align: center;'>
                            <span style=""color: green; font-size: 40px""><b>正确！+1 pts</b></span></div>
                            ","","learn","2","2","2","learn","0","0","[0, 1, 2]","25","2","setsize","10S3A","furniture","1","5","0","1",""
"null","null","fixation","html-keyboard-response","156","240601","0.0-1.0-7.0-3.0-0.26","17:56:49","3","","","","","","","fixation","","","","","","","","","","","","","","","","","","",""
"1185","1","pic_response","html-keyboard-response","157","241787","0.0-1.0-7.0-3.0-1.26","17:56:49","3","","","","","","","<div>
            <img class='stim' src=""pictures/furniture/1.jpg""></div><div class=""button_prompt"">
                        <b>请用数字键1-3回答</b>
                        </div>","","","","","","","","","","","","","","","","","","",""
"1185","null","sub_response","html-keyboard-response","158","242788","0.0-1.0-7.0-3.0-2.26","17:56:49","3","","","","","","","<div style='text-align: center;'>
                            <span style=""color: green; font-size: 40px""><b>正确！+1 pts</b></span></div>
                            ","","learn","1","1","1","learn","0","0","[0, 1, 2]","26","2","setsize","10S3A","furniture","1","6","0","1",""
"null","null","fixation","html-keyboard-response","159","243289","0.0-1.0-7.0-3.0-0.27","17:56:49","3","","","","","","","fixation","","","","","","","","","","","","","","","","","","",""
"537","2","pic_response","html-keyboard-response","160","243827","0.0-1.0-7.0-3.0-1.27","17:56:49","3","","","","","","","<div>
            <img class='stim' src=""pictures/furniture/8.jpg""></div><div class=""button_prompt"">
                        <b>请用数字键1-3回答</b>
                        </div>","","","","","","","","","","","","","","","","","","",""
"537","null","sub_response","html-keyboard-response","161","244828","0.0-1.0-7.0-3.0-2.27","17:56:49","3","","","","","","","<div style='text-align: center;'>
                            <span style=""color: red; font-size: 40px""><b>错误！+0 pts</b></span></div>
                            ","","learn","8","8","8","learn","2","2","[0, 1, 2]","27","2","setsize","10S3A","furniture","1","0","1","0",""
"null","null","fixation","html-keyboard-response","162","245329","0.0-1.0-7.0-3.0-0.28","17:56:49","3","","","","","","","fixation","","","","","","","","","","","","","","","","","","",""
"1753","2","pic_response","html-keyboard-response","163","247083","0.0-1.0-7.0-3.0-1.28","17:56:49","3","","","","","","","<div>
            <img class='stim' src=""pictures/furniture/4.jpg""></div><div class=""button_prompt"">
                        <b>请用数字键1-3回答</b>
                        </div>","","","","","","","","","","","","","","","","","","",""
"1753","null","sub_response","html-keyboard-response","164","248084","0.0-1.0-7.0-3.0-2.28","17:56:49","3","","","","","","","<div style='text-align: center;'>
                            <span style=""color: green; font-size: 40px""><b>正确！+1 pts</b></span></div>
                            ","","learn","4","4","4","learn","1","1","[0, 1, 2]","28","2","setsize","10S3A","furniture","1","1","1","1",""
"null","null","fixation","html-keyboard-response","165","248585","0.0-1.0-7.0-3.0-0.29","17:56:49","3","","","","","","","fixation","","","","","","","","","","","","","","","","","","",""
"2049","2","pic_response","html-keyboard-response","166","250635","0.0-1.0-7.0-3.0-1.29","17:56:49","3","","","","","","","<div>
            <img class='stim' src=""pictures/furniture/5.jpg""></div><div class=""button_prompt"">
                        <b>请用数字键1-3回答</b>
                        </div>","","","","","","","","","","","","","","","","","","",""
"2049","null","sub_response","html-keyboard-response","167","251636","0.0-1.0-7.0-3.0-2.29","17:56:49","3","","","","","","","<div style='text-align: center;'>
                            <span style=""color: green; font-size: 40px""><b>正确！+1 pts</b></span></div>
                            ","","learn","5","5","5","learn","1","1","[0, 1, 2]","29","2","setsize","10S3A","furniture","1","2","1","1",""
"null","null","fixation","html-keyboard-response","168","252138","0.0-1.0-7.0-3.0-0.30","17:56:49","3","","","","","","","fixation","","","","","","","","","","","","","","","","","","",""
"896","3","pic_response","html-keyboard-response","169","253034","0.0-1.0-7.0-3.0-1.30","17:56:49","3","","","","","","","<div>
            <img class='stim' src=""pictures/furniture/8.jpg""></div><div class=""button_prompt"">
                        <b>请用数字键1-3回答</b>
                        </div>","","","","","","","","","","","","","","","","","","",""
"896","null","sub_response","html-keyboard-response","170","254036","0.0-1.0-7.0-3.0-2.30","17:56:49","3","","","","","","","<div style='text-align: center;'>
                            <span style=""color: green; font-size: 40px""><b>正确！+1 pts</b></span></div>
                            ","","learn","8","8","8","learn","2","2","[0, 1, 2]","30","3","setsize","10S3A","furniture","1","3","2","1",""
"null","null","fixation","html-keyboard-response","171","254538","0.0-1.0-7.0-3.0-0.31","17:56:49","3","","","","","","","fixation","","","","","","","","","","","","","","","","","","",""
"1335","1","pic_response","html-keyboard-response","172","255874","0.0-1.0-7.0-3.0-1.31","17:56:49","3","","","","","","","<div>
            <img class='stim' src=""pictures/furniture/2.jpg""></div><div class=""button_prompt"">
                        <b>请用数字键1-3回答</b>
                        </div>","","","","","","","","","","","","","","","","","","",""
"1335","null","sub_response","html-keyboard-response","173","256876","0.0-1.0-7.0-3.0-2.31","17:56:49","3","","","","","","","<div style='text-align: center;'>
                            <span style=""color: green; font-size: 40px""><b>正确！+1 pts</b></span></div>
                            ","","learn","2","2","2","learn","0","0","[0, 1, 2]","31","3","setsize","10S3A","furniture","1","4","0","1",""
"null","null","fixation","html-keyboard-response","174","257376","0.0-1.0-7.0-3.0-0.32","17:56:49","3","","","","","","","fixation","","","","","","","","","","","","","","","","","","",""
"1266","1","pic_response","html-keyboard-response","175","258643","0.0-1.0-7.0-3.0-1.32","17:56:49","3","","","","","","","<div>
            <img class='stim' src=""pictures/furniture/1.jpg""></div><div class=""button_prompt"">
                        <b>请用数字键1-3回答</b>
                        </div>","","","","","","","","","","","","","","","","","","",""
"1266","null","sub_response","html-keyboard-response","176","259644","0.0-1.0-7.0-3.0-2.32","17:56:49","3","","","","","","","<div style='text-align: center;'>
                            <span style=""color: green; font-size: 40px""><b>正确！+1 pts</b></span></div>
                            ","","learn","1","1","1","learn","0","0","[0, 1, 2]","32","3","setsize","10S3A","furniture","1","5","0","1",""
"null","null","fixation","html-keyboard-response","177","260144","0.0-1.0-7.0-3.0-0.33","17:56:49","3","","","","","","","fixation","","","","","","","","","","","","","","","","","","",""
"2602","2","pic_response","html-keyboard-response","178","262747","0.0-1.0-7.0-3.0-1.33","17:56:49","3","","","","","","","<div>
            <img class='stim' src=""pictures/furniture/5.jpg""></div><div class=""button_prompt"">
                        <b>请用数字键1-3回答</b>
                        </div>","","","","","","","","","","","","","","","","","","",""
"2602","null","sub_response","html-keyboard-response","179","263748","0.0-1.0-7.0-3.0-2.33","17:56:49","3","","","","","","","<div style='text-align: center;'>
                            <span style=""color: green; font-size: 40px""><b>正确！+1 pts</b></span></div>
                            ","","learn","5","5","5","learn","1","1","[0, 1, 2]","33","3","setsize","10S3A","furniture","1","6","1","1",""
"null","null","fixation","html-keyboard-response","180","264251","0.0-1.0-7.0-3.0-0.34","17:56:49","3","","","","","","","fixation","","","","","","","","","","","","","","","","","","",""
"1208","3","pic_response","html-keyboard-response","181","265459","0.0-1.0-7.0-3.0-1.34","17:56:49","3","","","","","","","<div>
            <img class='stim' src=""pictures/furniture/6.jpg""></div><div class=""button_prompt"">
                        <b>请用数字键1-3回答</b>
                        </div>","","","","","","","","","","","","","","","","","","",""
"1208","null","sub_response","html-keyboard-response","182","266469","0.0-1.0-7.0-3.0-2.34","17:56:49","3","","","","","","","<div style='text-align: center;'>
                            <span style=""color: green; font-size: 40px""><b>正确！+1 pts</b></span></div>
                            ","","learn","6","6","6","learn","2","2","[0, 1, 2]","34","3","setsize","10S3A","furniture","1","7","2","1",""
"null","null","fixation","html-keyboard-response","183","266971","0.0-1.0-7.0-3.0-0.35","17:56:49","3","","","","","","","fixation","","","","","","","","","","","","","","","","","","",""
"1615","2","pic_response","html-keyboard-response","184","268587","0.0-1.0-7.0-3.0-1.35","17:56:49","3","","","","","","","<div>
            <img class='stim' src=""pictures/furniture/4.jpg""></div><div class=""button_prompt"">
                        <b>请用数字键1-3回答</b>
                        </div>","","","","","","","","","","","","","","","","","","",""
"1615","null","sub_response","html-keyboard-response","185","269588","0.0-1.0-7.0-3.0-2.35","17:56:49","3","","","","","","","<div style='text-align: center;'>
                            <span style=""color: green; font-size: 40px""><b>正确！+1 pts</b></span></div>
                            ","","learn","4","4","4","learn","1","1","[0, 1, 2]","35","3","setsize","10S3A","furniture","1","8","1","1",""
"null","null","fixation","html-keyboard-response","186","270089","0.0-1.0-7.0-3.0-0.36","17:56:49","3","","","","","","","fixation","","","","","","","","","","","","","","","","","","",""
"1081","1","pic_response","html-keyboard-response","187","271171","0.0-1.0-7.0-3.0-1.36","17:56:49","3","","","","","","","<div>
            <img class='stim' src=""pictures/furniture/0.jpg""></div><div class=""button_prompt"">
                        <b>请用数字键1-3回答</b>
                        </div>","","","","","","","","","","","","","","","","","","",""
"1081","null","sub_response","html-keyboard-response","188","272173","0.0-1.0-7.0-3.0-2.36","17:56:49","3","","","","","","","<div style='text-align: center;'>
                            <span style=""color: green; font-size: 40px""><b>正确！+1 pts</b></span></div>
                            ","","learn","0","0","0","learn","0","0","[0, 1, 2]","36","3","setsize","10S3A","furniture","1","9","0","1",""
"null","null","fixation","html-keyboard-response","189","272674","0.0-1.0-7.0-3.0-0.37","17:56:49","3","","","","","","","fixation","","","","","","","","","","","","","","","","","","",""
"1168","3","pic_response","html-keyboard-response","190","273843","0.0-1.0-7.0-3.0-1.37","17:56:49","3","","","","","","","<div>
            <img class='stim' src=""pictures/furniture/9.jpg""></div><div class=""button_prompt"">
                        <b>请用数字键1-3回答</b>
                        </div>","","","","","","","","","","","","","","","","","","",""
"1168","null","sub_response","html-keyboard-response","191","274843","0.0-1.0-7.0-3.0-2.37","17:56:49","3","","","","","","","<div style='text-align: center;'>
                            <span style=""color: green; font-size: 40px""><b>正确！+1 pts</b></span></div>
                            ","","learn","9","9","9","learn","2","2","[0, 1, 2]","37","3","setsize","10S3A","furniture","1","10","2","1",""
"null","null","fixation","html-keyboard-response","192","275346","0.0-1.0-7.0-3.0-0.38","17:56:49","3","","","","","","","fixation","","","","","","","","","","","","","","","","","","",""
"null","null","pic_response","html-keyboard-response","193","278347","0.0-1.0-7.0-3.0-1.38","17:56:49","3","","","","","","","<div>
            <img class='stim' src=""pictures/furniture/3.jpg""></div><div class=""button_prompt"">
                        <b>请用数字键1-3回答</b>
                        </div>","","","","","","","","","","","","","","","","","","",""
"null","null","sub_response","html-keyboard-response","194","279349","0.0-1.0-7.0-3.0-2.38","17:56:49","3","","","","","","","<div style='text-align: center;'>
                            <span style=""color: red; font-size: 40px""><b>错误！+0 pts</b></span></div>
                            ","","learn","3","3","3","learn","1","1","[0, 1, 2]","38","3","setsize","10S3A","furniture","1","0","999","0",""
"null","null","fixation","html-keyboard-response","195","279850","0.0-1.0-7.0-3.0-0.39","17:56:49","3","","","","","","","fixation","","","","","","","","","","","","","","","","","","",""
"1601","3","pic_response","html-keyboard-response","196","281451","0.0-1.0-7.0-3.0-1.39","17:56:49","3","","","","","","","<div>
            <img class='stim' src=""pictures/furniture/7.jpg""></div><div class=""button_prompt"">
                        <b>请用数字键1-3回答</b>
                        </div>","","","","","","","","","","","","","","","","","","",""
"1601","null","sub_response","html-keyboard-response","197","282453","0.0-1.0-7.0-3.0-2.39","17:56:49","3","","","","","","","<div style='text-align: center;'>
                            <span style=""color: green; font-size: 40px""><b>正确！+1 pts</b></span></div>
                            ","","learn","7","7","7","learn","2","2","[0, 1, 2]","39","3","setsize","10S3A","furniture","1","1","2","1",""
"null","null","fixation","html-keyboard-response","198","282954","0.0-1.0-7.0-3.0-0.40","17:56:49","3","","","","","","","fixation","","","","","","","","","","","","","","","","","","",""
"1856","2","pic_response","html-keyboard-response","199","284811","0.0-1.0-7.0-3.0-1.40","17:56:49","3","","","","","","","<div>
            <img class='stim' src=""pictures/furniture/5.jpg""></div><div class=""button_prompt"">
                        <b>请用数字键1-3回答</b>
                        </div>","","","","","","","","","","","","","","","","","","",""
"1856","null","sub_response","html-keyboard-response","200","285812","0.0-1.0-7.0-3.0-2.40","17:56:49","3","","","","","","","<div style='text-align: center;'>
                            <span style=""color: green; font-size: 40px""><b>正确！+1 pts</b></span></div>
                            ","","learn","5","5","5","learn","1","1","[0, 1, 2]","40","4","setsize","10S3A","furniture","1","2","1","1",""
"null","null","fixation","html-keyboard-response","201","286313","0.0-1.0-7.0-3.0-0.41","17:56:49","3","","","","","","","fixation","","","","","","","","","","","","","","","","","","",""
"2937","1","pic_response","html-keyboard-response","202","289251","0.0-1.0-7.0-3.0-1.41","17:56:49","3","","","","","","","<div>
            <img class='stim' src=""pictures/furniture/1.jpg""></div><div class=""button_prompt"">
                        <b>请用数字键1-3回答</b>
                        </div>","","","","","","","","","","","","","","","","","","",""
"2937","null","sub_response","html-keyboard-response","203","290252","0.0-1.0-7.0-3.0-2.41","17:56:49","3","","","","","","","<div style='text-align: center;'>
                            <span style=""color: green; font-size: 40px""><b>正确！+1 pts</b></span></div>
                            ","","learn","1","1","1","learn","0","0","[0, 1, 2]","41","4","setsize","10S3A","furniture","1","3","0","1",""
"null","null","fixation","html-keyboard-response","204","290754","0.0-1.0-7.0-3.0-0.42","17:56:49","3","","","","","","","fixation","","","","","","","","","","","","","","","","","","",""
"1544","1","pic_response","html-keyboard-response","205","292299","0.0-1.0-7.0-3.0-1.42","17:56:49","3","","","","","","","<div>
            <img class='stim' src=""pictures/furniture/0.jpg""></div><div class=""button_prompt"">
                        <b>请用数字键1-3回答</b>
                        </div>","","","","","","","","","","","","","","","","","","",""
"1544","null","sub_response","html-keyboard-response","206","293301","0.0-1.0-7.0-3.0-2.42","17:56:49","3","","","","","","","<div style='text-align: center;'>
                            <span style=""color: green; font-size: 40px""><b>正确！+1 pts</b></span></div>
                            ","","learn","0","0","0","learn","0","0","[0, 1, 2]","42","4","setsize","10S3A","furniture","1","4","0","1",""
"null","null","fixation","html-keyboard-response","207","293802","0.0-1.0-7.0-3.0-0.43","17:56:49","3","","","","","","","fixation","","","","","","","","","","","","","","","","","","",""
"848","2","pic_response","html-keyboard-response","208","294651","0.0-1.0-7.0-3.0-1.43","17:56:49","3","","","","","","","<div>
            <img class='stim' src=""pictures/furniture/3.jpg""></div><div class=""button_prompt"">
                        <b>请用数字键1-3回答</b>
                        </div>","","","","","","","","","","","","","","","","","","",""
"848","null","sub_response","html-keyboard-response","209","295652","0.0-1.0-7.0-3.0-2.43","17:56:49","3","","","","","","","<div style='text-align: center;'>
                            <span style=""color: green; font-size: 40px""><b>正确！+1 pts</b></span></div>
                            ","","learn","3","3","3","learn","1","1","[0, 1, 2]","43","4","setsize","10S3A","furniture","1","5","1","1",""
"null","null","fixation","html-keyboard-response","210","296153","0.0-1.0-7.0-3.0-0.44","17:56:49","3","","","","","","","fixation","","","","","","","","","","","","","","","","","","",""
"1120","3","pic_response","html-keyboard-response","211","297275","0.0-1.0-7.0-3.0-1.44","17:56:49","3","","","","","","","<div>
            <img class='stim' src=""pictures/furniture/9.jpg""></div><div class=""button_prompt"">
                        <b>请用数字键1-3回答</b>
                        </div>","","","","","","","","","","","","","","","","","","",""
"1120","null","sub_response","html-keyboard-response","212","298277","0.0-1.0-7.0-3.0-2.44","17:56:49","3","","","","","","","<div style='text-align: center;'>
                            <span style=""color: green; font-size: 40px""><b>正确！+1 pts</b></span></div>
                            ","","learn","9","9","9","learn","2","2","[0, 1, 2]","44","4","setsize","10S3A","furniture","1","6","2","1",""
"null","null","fixation","html-keyboard-response","213","298779","0.0-1.0-7.0-3.0-0.45","17:56:49","3","","","","","","","fixation","","","","","","","","","","","","","","","","","","",""
"1311","2","pic_response","html-keyboard-response","214","300091","0.0-1.0-7.0-3.0-1.45","17:56:49","3","","","","","","","<div>
            <img class='stim' src=""pictures/furniture/4.jpg""></div><div class=""button_prompt"">
                        <b>请用数字键1-3回答</b>
                        </div>","","","","","","","","","","","","","","","","","","",""
"1311","null","sub_response","html-keyboard-response","215","301092","0.0-1.0-7.0-3.0-2.45","17:56:49","3","","","","","","","<div style='text-align: center;'>
                            <span style=""color: green; font-size: 40px""><b>正确！+1 pts</b></span></div>
                            ","","learn","4","4","4","learn","1","1","[0, 1, 2]","45","4","setsize","10S3A","furniture","1","7","1","1",""
"null","null","fixation","html-keyboard-response","216","301593","0.0-1.0-7.0-3.0-0.46","17:56:49","3","","","","","","","fixation","","","","","","","","","","","","","","","","","","",""
"937","3","pic_response","html-keyboard-response","217","302531","0.0-1.0-7.0-3.0-1.46","17:56:49","3","","","","","","","<div>
            <img class='stim' src=""pictures/furniture/6.jpg""></div><div class=""button_prompt"">
                        <b>请用数字键1-3回答</b>
                        </div>","","","","","","","","","","","","","","","","","","",""
"937","null","sub_response","html-keyboard-response","218","303543","0.0-1.0-7.0-3.0-2.46","17:56:49","3","","","","","","","<div style='text-align: center;'>
                            <span style=""color: green; font-size: 40px""><b>正确！+1 pts</b></span></div>
                            ","","learn","6","6","6","learn","2","2","[0, 1, 2]","46","4","setsize","10S3A","furniture","1","8","2","1",""
"null","null","fixation","html-keyboard-response","219","304044","0.0-1.0-7.0-3.0-0.47","17:56:49","3","","","","","","","fixation","","","","","","","","","","","","","","","","","","",""
"927","3","pic_response","html-keyboard-response","220","304971","0.0-1.0-7.0-3.0-1.47","17:56:49","3","","","","","","","<div>
            <img class='stim' src=""pictures/furniture/8.jpg""></div><div class=""button_prompt"">
                        <b>请用数字键1-3回答</b>
                        </div>","","","","","","","","","","","","","","","","","","",""
"927","null","sub_response","html-keyboard-response","221","305973","0.0-1.0-7.0-3.0-2.47","17:56:49","3","","","","","","","<div style='text-align: center;'>
                            <span style=""color: green; font-size: 40px""><b>正确！+1 pts</b></span></div>
                            ","","learn","8","8","8","learn","2","2","[0, 1, 2]","47","4","setsize","10S3A","furniture","1","9","2","1",""
"null","null","fixation","html-keyboard-response","222","306474","0.0-1.0-7.0-3.0-0.48","17:56:49","3","","","","","","","fixation","","","","","","","","","","","","","","","","","","",""
"936","3","pic_response","html-keyboard-response","223","307411","0.0-1.0-7.0-3.0-1.48","17:56:49","3","","","","","","","<div>
            <img class='stim' src=""pictures/furniture/7.jpg""></div><div class=""button_prompt"">
                        <b>请用数字键1-3回答</b>
                        </div>","","","","","","","","","","","","","","","","","","",""
"936","null","sub_response","html-keyboard-response","224","308412","0.0-1.0-7.0-3.0-2.48","17:56:49","3","","","","","","","<div style='text-align: center;'>
                            <span style=""color: green; font-size: 40px""><b>正确！+1 pts</b></span></div>
                            ","","learn","7","7","7","learn","2","2","[0, 1, 2]","48","4","setsize","10S3A","furniture","1","10","2","1",""
"null","null","fixation","html-keyboard-response","225","308914","0.0-1.0-7.0-3.0-0.49","17:56:49","3","","","","","","","fixation","","","","","","","","","","","","","","","","","","",""
"1369","1","pic_response","html-keyboard-response","226","310283","0.0-1.0-7.0-3.0-1.49","17:56:49","3","","","","","","","<div>
            <img class='stim' src=""pictures/furniture/2.jpg""></div><div class=""button_prompt"">
                        <b>请用数字键1-3回答</b>
                        </div>","","","","","","","","","","","","","","","","","","",""
"1369","null","sub_response","html-keyboard-response","227","311285","0.0-1.0-7.0-3.0-2.49","17:56:49","3","","","","","","","<div style='text-align: center;'>
                            <span style=""color: green; font-size: 40px""><b>正确！+1 pts</b></span></div>
                            ","","learn","2","2","2","learn","0","0","[0, 1, 2]","49","4","setsize","10S3A","furniture","1","11","0","1",""
"null","null","fixation","html-keyboard-response","228","311787","0.0-1.0-7.0-3.0-0.50","17:56:49","3","","","","","","","fixation","","","","","","","","","","","","","","","","","","",""
"1088","1","pic_response","html-keyboard-response","229","312876","0.0-1.0-7.0-3.0-1.50","17:56:49","3","","","","","","","<div>
            <img class='stim' src=""pictures/furniture/0.jpg""></div><div class=""button_prompt"">
                        <b>请用数字键1-3回答</b>
                        </div>","","","","","","","","","","","","","","","","","","",""
"1088","null","sub_response","html-keyboard-response","230","313878","0.0-1.0-7.0-3.0-2.50","17:56:49","3","","","","","","","<div style='text-align: center;'>
                            <span style=""color: green; font-size: 40px""><b>正确！+1 pts</b></span></div>
                            ","","learn","0","0","0","learn","0","0","[0, 1, 2]","50","5","setsize","10S3A","furniture","1","12","0","1",""
"null","null","fixation","html-keyboard-response","231","314379","0.0-1.0-7.0-3.0-0.51","17:56:49","3","","","","","","","fixation","","","","","","","","","","","","","","","","","","",""
"888","3","pic_response","html-keyboard-response","232","315267","0.0-1.0-7.0-3.0-1.51","17:56:49","3","","","","","","","<div>
            <img class='stim' src=""pictures/furniture/8.jpg""></div><div class=""button_prompt"">
                        <b>请用数字键1-3回答</b>
                        </div>","","","","","","","","","","","","","","","","","","",""
"888","null","sub_response","html-keyboard-response","233","316269","0.0-1.0-7.0-3.0-2.51","17:56:49","3","","","","","","","<div style='text-align: center;'>
                            <span style=""color: green; font-size: 40px""><b>正确！+1 pts</b></span></div>
                            ","","learn","8","8","8","learn","2","2","[0, 1, 2]","51","5","setsize","10S3A","furniture","1","13","2","1",""
"null","null","fixation","html-keyboard-response","234","316771","0.0-1.0-7.0-3.0-0.52","17:56:49","3","","","","","","","fixation","","","","","","","","","","","","","","","","","","",""
"1081","2","pic_response","html-keyboard-response","235","317852","0.0-1.0-7.0-3.0-1.52","17:56:49","3","","","","","","","<div>
            <img class='stim' src=""pictures/furniture/3.jpg""></div><div class=""button_prompt"">
                        <b>请用数字键1-3回答</b>
                        </div>","","","","","","","","","","","","","","","","","","",""
"1081","null","sub_response","html-keyboard-response","236","318853","0.0-1.0-7.0-3.0-2.52","17:56:49","3","","","","","","","<div style='text-align: center;'>
                            <span style=""color: green; font-size: 40px""><b>正确！+1 pts</b></span></div>
                            ","","learn","3","3","3","learn","1","1","[0, 1, 2]","52","5","setsize","10S3A","furniture","1","14","1","1",""
"null","null","fixation","html-keyboard-response","237","319356","0.0-1.0-7.0-3.0-0.53","17:56:49","3","","","","","","","fixation","","","","","","","","","","","","","","","","","","",""
"999","2","pic_response","html-keyboard-response","238","320356","0.0-1.0-7.0-3.0-1.53","17:56:49","3","","","","","","","<div>
            <img class='stim' src=""pictures/furniture/4.jpg""></div><div class=""button_prompt"">
                        <b>请用数字键1-3回答</b>
                        </div>","","","","","","","","","","","","","","","","","","",""
"999","null","sub_response","html-keyboard-response","239","321357","0.0-1.0-7.0-3.0-2.53","17:56:49","3","","","","","","","<div style='text-align: center;'>
                            <span style=""color: green; font-size: 40px""><b>正确！+1 pts</b></span></div>
                            ","","learn","4","4","4","learn","1","1","[0, 1, 2]","53","5","setsize","10S3A","furniture","1","15","1","1",""
"null","null","fixation","html-keyboard-response","240","321858","0.0-1.0-7.0-3.0-0.54","17:56:49","3","","","","","","","fixation","","","","","","","","","","","","","","","","","","",""
"1185","1","pic_response","html-keyboard-response","241","323043","0.0-1.0-7.0-3.0-1.54","17:56:49","3","","","","","","","<div>
            <img class='stim' src=""pictures/furniture/2.jpg""></div><div class=""button_prompt"">
                        <b>请用数字键1-3回答</b>
                        </div>","","","","","","","","","","","","","","","","","","",""
"1185","null","sub_response","html-keyboard-response","242","324045","0.0-1.0-7.0-3.0-2.54","17:56:49","3","","","","","","","<div style='text-align: center;'>
                            <span style=""color: green; font-size: 40px""><b>正确！+1 pts</b></span></div>
                            ","","learn","2","2","2","learn","0","0","[0, 1, 2]","54","5","setsize","10S3A","furniture","1","16","0","1",""
"null","null","fixation","html-keyboard-response","243","324547","0.0-1.0-7.0-3.0-0.55","17:56:49","3","","","","","","","fixation","","","","","","","","","","","","","","","","","","",""
"1247","3","pic_response","html-keyboard-response","244","325795","0.0-1.0-7.0-3.0-1.55","17:56:49","3","","","","","","","<div>
            <img class='stim' src=""pictures/furniture/9.jpg""></div><div class=""button_prompt"">
                        <b>请用数字键1-3回答</b>
                        </div>","","","","","","","","","","","","","","","","","","",""
"1247","null","sub_response","html-keyboard-response","245","326796","0.0-1.0-7.0-3.0-2.55","17:56:49","3","","","","","","","<div style='text-align: center;'>
                            <span style=""color: green; font-size: 40px""><b>正确！+1 pts</b></span></div>
                            ","","learn","9","9","9","learn","2","2","[0, 1, 2]","55","5","setsize","10S3A","furniture","1","17","2","1",""
"null","null","fixation","html-keyboard-response","246","327298","0.0-1.0-7.0-3.0-0.56","17:56:49","3","","","","","","","fixation","","","","","","","","","","","","","","","","","","",""
"1593","2","pic_response","html-keyboard-response","247","328892","0.0-1.0-7.0-3.0-1.56","17:56:49","3","","","","","","","<div>
            <img class='stim' src=""pictures/furniture/5.jpg""></div><div class=""button_prompt"">
                        <b>请用数字键1-3回答</b>
                        </div>","","","","","","","","","","","","","","","","","","",""
"1593","null","sub_response","html-keyboard-response","248","329904","0.0-1.0-7.0-3.0-2.56","17:56:49","3","","","","","","","<div style='text-align: center;'>
                            <span style=""color: green; font-size: 40px""><b>正确！+1 pts</b></span></div>
                            ","","learn","5","5","5","learn","1","1","[0, 1, 2]","56","5","setsize","10S3A","furniture","1","18","1","1",""
"null","null","fixation","html-keyboard-response","249","330406","0.0-1.0-7.0-3.0-0.57","17:56:49","3","","","","","","","fixation","","","","","","","","","","","","","","","","","","",""
"875","3","pic_response","html-keyboard-response","250","331282","0.0-1.0-7.0-3.0-1.57","17:56:49","3","","","","","","","<div>
            <img class='stim' src=""pictures/furniture/6.jpg""></div><div class=""button_prompt"">
                        <b>请用数字键1-3回答</b>
                        </div>","","","","","","","","","","","","","","","","","","",""
"875","null","sub_response","html-keyboard-response","251","332284","0.0-1.0-7.0-3.0-2.57","17:56:49","3","","","","","","","<div style='text-align: center;'>
                            <span style=""color: green; font-size: 40px""><b>正确！+1 pts</b></span></div>
                            ","","learn","6","6","6","learn","2","2","[0, 1, 2]","57","5","setsize","10S3A","furniture","1","19","2","1",""
"null","null","fixation","html-keyboard-response","252","332785","0.0-1.0-7.0-3.0-0.58","17:56:49","3","","","","","","","fixation","","","","","","","","","","","","","","","","","","",""
"913","3","pic_response","html-keyboard-response","253","333699","0.0-1.0-7.0-3.0-1.58","17:56:49","3","","","","","","","<div>
            <img class='stim' src=""pictures/furniture/7.jpg""></div><div class=""button_prompt"">
                        <b>请用数字键1-3回答</b>
                        </div>","","","","","","","","","","","","","","","","","","",""
"913","null","sub_response","html-keyboard-response","254","334701","0.0-1.0-7.0-3.0-2.58","17:56:49","3","","","","","","","<div style='text-align: center;'>
                            <span style=""color: green; font-size: 40px""><b>正确！+1 pts</b></span></div>
                            ","","learn","7","7","7","learn","2","2","[0, 1, 2]","58","5","setsize","10S3A","furniture","1","20","2","1",""
"null","null","fixation","html-keyboard-response","255","335202","0.0-1.0-7.0-3.0-0.59","17:56:49","3","","","","","","","fixation","","","","","","","","","","","","","","","","","","",""
"1109","1","pic_response","html-keyboard-response","256","336312","0.0-1.0-7.0-3.0-1.59","17:56:49","3","","","","","","","<div>
            <img class='stim' src=""pictures/furniture/1.jpg""></div><div class=""button_prompt"">
                        <b>请用数字键1-3回答</b>
                        </div>","","","","","","","","","","","","","","","","","","",""
"1109","null","sub_response","html-keyboard-response","257","337314","0.0-1.0-7.0-3.0-2.59","17:56:49","3","","","","","","","<div style='text-align: center;'>
                            <span style=""color: green; font-size: 40px""><b>正确！+1 pts</b></span></div>
                            ","","learn","1","1","1","learn","0","0","[0, 1, 2]","59","5","setsize","10S3A","furniture","1","21","0","1",""
"null","null","fixation","html-keyboard-response","258","337815","0.0-1.0-7.0-3.0-0.60","17:56:49","3","","","","","","","fixation","","","","","","","","","","","","","","","","","","",""
"1811","2","pic_response","html-keyboard-response","259","339627","0.0-1.0-7.0-3.0-1.60","17:56:49","3","","","","","","","<div>
            <img class='stim' src=""pictures/furniture/5.jpg""></div><div class=""button_prompt"">
                        <b>请用数字键1-3回答</b>
                        </div>","","","","","","","","","","","","","","","","","","",""
"1811","null","sub_response","html-keyboard-response","260","340628","0.0-1.0-7.0-3.0-2.60","17:56:49","3","","","","","","","<div style='text-align: center;'>
                            <span style=""color: green; font-size: 40px""><b>正确！+1 pts</b></span></div>
                            ","","learn","5","5","5","learn","1","1","[0, 1, 2]","60","6","setsize","10S3A","furniture","1","22","1","1",""
"null","null","fixation","html-keyboard-response","261","341130","0.0-1.0-7.0-3.0-0.61","17:56:49","3","","","","","","","fixation","","","","","","","","","","","","","","","","","","",""
"976","3","pic_response","html-keyboard-response","262","342107","0.0-1.0-7.0-3.0-1.61","17:56:49","3","","","","","","","<div>
            <img class='stim' src=""pictures/furniture/8.jpg""></div><div class=""button_prompt"">
                        <b>请用数字键1-3回答</b>
                        </div>","","","","","","","","","","","","","","","","","","",""
"976","null","sub_response","html-keyboard-response","263","343108","0.0-1.0-7.0-3.0-2.61","17:56:49","3","","","","","","","<div style='text-align: center;'>
                            <span style=""color: green; font-size: 40px""><b>正确！+1 pts</b></span></div>
                            ","","learn","8","8","8","learn","2","2","[0, 1, 2]","61","6","setsize","10S3A","furniture","1","23","2","1",""
"null","null","fixation","html-keyboard-response","264","343609","0.0-1.0-7.0-3.0-0.62","17:56:49","3","","","","","","","fixation","","","","","","","","","","","","","","","","","","",""
"1186","1","pic_response","html-keyboard-response","265","344796","0.0-1.0-7.0-3.0-1.62","17:56:49","3","","","","","","","<div>
            <img class='stim' src=""pictures/furniture/2.jpg""></div><div class=""button_prompt"">
                        <b>请用数字键1-3回答</b>
                        </div>","","","","","","","","","","","","","","","","","","",""
"1186","null","sub_response","html-keyboard-response","266","345797","0.0-1.0-7.0-3.0-2.62","17:56:49","3","","","","","","","<div style='text-align: center;'>
                            <span style=""color: green; font-size: 40px""><b>正确！+1 pts</b></span></div>
                            ","","learn","2","2","2","learn","0","0","[0, 1, 2]","62","6","setsize","10S3A","furniture","1","24","0","1",""
"null","null","fixation","html-keyboard-response","267","346302","0.0-1.0-7.0-3.0-0.63","17:56:49","3","","","","","","","fixation","","","","","","","","","","","","","","","","","","",""
"1165","1","pic_response","html-keyboard-response","268","347468","0.0-1.0-7.0-3.0-1.63","17:56:49","3","","","","","","","<div>
            <img class='stim' src=""pictures/furniture/1.jpg""></div><div class=""button_prompt"">
                        <b>请用数字键1-3回答</b>
                        </div>","","","","","","","","","","","","","","","","","","",""
"1165","null","sub_response","html-keyboard-response","269","348469","0.0-1.0-7.0-3.0-2.63","17:56:49","3","","","","","","","<div style='text-align: center;'>
                            <span style=""color: green; font-size: 40px""><b>正确！+1 pts</b></span></div>
                            ","","learn","1","1","1","learn","0","0","[0, 1, 2]","63","6","setsize","10S3A","furniture","1","25","0","1",""
"null","null","fixation","html-keyboard-response","270","348970","0.0-1.0-7.0-3.0-0.64","17:56:49","3","","","","","","","fixation","","","","","","","","","","","","","","","","","","",""
"1712","2","pic_response","html-keyboard-response","271","350683","0.0-1.0-7.0-3.0-1.64","17:56:49","3","","","","","","","<div>
            <img class='stim' src=""pictures/furniture/3.jpg""></div><div class=""button_prompt"">
                        <b>请用数字键1-3回答</b>
                        </div>","","","","","","","","","","","","","","","","","","",""
"1712","null","sub_response","html-keyboard-response","272","351684","0.0-1.0-7.0-3.0-2.64","17:56:49","3","","","","","","","<div style='text-align: center;'>
                            <span style=""color: green; font-size: 40px""><b>正确！+1 pts</b></span></div>
                            ","","learn","3","3","3","learn","1","1","[0, 1, 2]","64","6","setsize","10S3A","furniture","1","26","1","1",""
"null","null","fixation","html-keyboard-response","273","352186","0.0-1.0-7.0-3.0-0.65","17:56:49","3","","","","","","","fixation","","","","","","","","","","","","","","","","","","",""
"1376","2","pic_response","html-keyboard-response","274","353563","0.0-1.0-7.0-3.0-1.65","17:56:49","3","","","","","","","<div>
            <img class='stim' src=""pictures/furniture/4.jpg""></div><div class=""button_prompt"">
                        <b>请用数字键1-3回答</b>
                        </div>","","","","","","","","","","","","","","","","","","",""
"1376","null","sub_response","html-keyboard-response","275","354564","0.0-1.0-7.0-3.0-2.65","17:56:49","3","","","","","","","<div style='text-align: center;'>
                            <span style=""color: green; font-size: 40px""><b>正确！+1 pts</b></span></div>
                            ","","learn","4","4","4","learn","1","1","[0, 1, 2]","65","6","setsize","10S3A","furniture","1","27","1","1",""
"null","null","fixation","html-keyboard-response","276","355065","0.0-1.0-7.0-3.0-0.66","17:56:49","3","","","","","","","fixation","","","","","","","","","","","","","","","","","","",""
"1040","3","pic_response","html-keyboard-response","277","356106","0.0-1.0-7.0-3.0-1.66","17:56:49","3","","","","","","","<div>
            <img class='stim' src=""pictures/furniture/6.jpg""></div><div class=""button_prompt"">
                        <b>请用数字键1-3回答</b>
                        </div>","","","","","","","","","","","","","","","","","","",""
"1040","null","sub_response","html-keyboard-response","278","357108","0.0-1.0-7.0-3.0-2.66","17:56:49","3","","","","","","","<div style='text-align: center;'>
                            <span style=""color: green; font-size: 40px""><b>正确！+1 pts</b></span></div>
                            ","","learn","6","6","6","learn","2","2","[0, 1, 2]","66","6","setsize","10S3A","furniture","1","28","2","1",""
"null","null","fixation","html-keyboard-response","279","357609","0.0-1.0-7.0-3.0-0.67","17:56:49","3","","","","","","","fixation","","","","","","","","","","","","","","","","","","",""
"1440","3","pic_response","html-keyboard-response","280","359051","0.0-1.0-7.0-3.0-1.67","17:56:49","3","","","","","","","<div>
            <img class='stim' src=""pictures/furniture/7.jpg""></div><div class=""button_prompt"">
                        <b>请用数字键1-3回答</b>
                        </div>","","","","","","","","","","","","","","","","","","",""
"1440","null","sub_response","html-keyboard-response","281","360052","0.0-1.0-7.0-3.0-2.67","17:56:49","3","","","","","","","<div style='text-align: center;'>
                            <span style=""color: green; font-size: 40px""><b>正确！+1 pts</b></span></div>
                            ","","learn","7","7","7","learn","2","2","[0, 1, 2]","67","6","setsize","10S3A","furniture","1","29","2","1",""
"null","null","fixation","html-keyboard-response","282","360553","0.0-1.0-7.0-3.0-0.68","17:56:49","3","","","","","","","fixation","","","","","","","","","","","","","","","","","","",""
"1544","3","pic_response","html-keyboard-response","283","362099","0.0-1.0-7.0-3.0-1.68","17:56:49","3","","","","","","","<div>
            <img class='stim' src=""pictures/furniture/9.jpg""></div><div class=""button_prompt"">
                        <b>请用数字键1-3回答</b>
                        </div>","","","","","","","","","","","","","","","","","","",""
"1544","null","sub_response","html-keyboard-response","284","363101","0.0-1.0-7.0-3.0-2.68","17:56:49","3","","","","","","","<div style='text-align: center;'>
                            <span style=""color: green; font-size: 40px""><b>正确！+1 pts</b></span></div>
                            ","","learn","9","9","9","learn","2","2","[0, 1, 2]","68","6","setsize","10S3A","furniture","1","30","2","1",""
"null","null","fixation","html-keyboard-response","285","363601","0.0-1.0-7.0-3.0-0.69","17:56:49","3","","","","","","","fixation","","","","","","","","","","","","","","","","","","",""
"1145","1","pic_response","html-keyboard-response","286","364746","0.0-1.0-7.0-3.0-1.69","17:56:49","3","","","","","","","<div>
            <img class='stim' src=""pictures/furniture/0.jpg""></div><div class=""button_prompt"">
                        <b>请用数字键1-3回答</b>
                        </div>","","","","","","","","","","","","","","","","","","",""
"1145","null","sub_response","html-keyboard-response","287","365747","0.0-1.0-7.0-3.0-2.69","17:56:49","3","","","","","","","<div style='text-align: center;'>
                            <span style=""color: green; font-size: 40px""><b>正确！+1 pts</b></span></div>
                            ","","learn","0","0","0","learn","0","0","[0, 1, 2]","69","6","setsize","10S3A","furniture","1","31","0","1",""
"null","null","fixation","html-keyboard-response","288","366248","0.0-1.0-7.0-3.0-0.70","17:56:49","3","","","","","","","fixation","","","","","","","","","","","","","","","","","","",""
"1251","1","pic_response","html-keyboard-response","289","367499","0.0-1.0-7.0-3.0-1.70","17:56:49","3","","","","","","","<div>
            <img class='stim' src=""pictures/furniture/2.jpg""></div><div class=""button_prompt"">
                        <b>请用数字键1-3回答</b>
                        </div>","","","","","","","","","","","","","","","","","","",""
"1251","null","sub_response","html-keyboard-response","290","368502","0.0-1.0-7.0-3.0-2.70","17:56:49","3","","","","","","","<div style='text-align: center;'>
                            <span style=""color: green; font-size: 40px""><b>正确！+1 pts</b></span></div>
                            ","","learn","2","2","2","learn","0","0","[0, 1, 2]","70","7","setsize","10S3A","furniture","1","32","0","1",""
"null","null","fixation","html-keyboard-response","291","369003","0.0-1.0-7.0-3.0-0.71","17:56:49","3","","","","","","","fixation","","","","","","","","","","","","","","","","","","",""
"1143","3","pic_response","html-keyboard-response","292","370146","0.0-1.0-7.0-3.0-1.71","17:56:49","3","","","","","","","<div>
            <img class='stim' src=""pictures/furniture/8.jpg""></div><div class=""button_prompt"">
                        <b>请用数字键1-3回答</b>
                        </div>","","","","","","","","","","","","","","","","","","",""
"1143","null","sub_response","html-keyboard-response","293","371148","0.0-1.0-7.0-3.0-2.71","17:56:49","3","","","","","","","<div style='text-align: center;'>
                            <span style=""color: green; font-size: 40px""><b>正确！+1 pts</b></span></div>
                            ","","learn","8","8","8","learn","2","2","[0, 1, 2]","71","7","setsize","10S3A","furniture","1","33","2","1",""
"null","null","fixation","html-keyboard-response","294","371650","0.0-1.0-7.0-3.0-0.72","17:56:49","3","","","","","","","fixation","","","","","","","","","","","","","","","","","","",""
"1146","1","pic_response","html-keyboard-response","295","372796","0.0-1.0-7.0-3.0-1.72","17:56:49","3","","","","","","","<div>
            <img class='stim' src=""pictures/furniture/1.jpg""></div><div class=""button_prompt"">
                        <b>请用数字键1-3回答</b>
                        </div>","","","","","","","","","","","","","","","","","","",""
"1146","null","sub_response","html-keyboard-response","296","373797","0.0-1.0-7.0-3.0-2.72","17:56:49","3","","","","","","","<div style='text-align: center;'>
                            <span style=""color: green; font-size: 40px""><b>正确！+1 pts</b></span></div>
                            ","","learn","1","1","1","learn","0","0","[0, 1, 2]","72","7","setsize","10S3A","furniture","1","34","0","1",""
"null","null","fixation","html-keyboard-response","297","374299","0.0-1.0-7.0-3.0-0.73","17:56:49","3","","","","","","","fixation","","","","","","","","","","","","","","","","","","",""
"991","3","pic_response","html-keyboard-response","298","375291","0.0-1.0-7.0-3.0-1.73","17:56:49","3","","","","","","","<div>
            <img class='stim' src=""pictures/furniture/7.jpg""></div><div class=""button_prompt"">
                        <b>请用数字键1-3回答</b>
                        </div>","","","","","","","","","","","","","","","","","","",""
"991","null","sub_response","html-keyboard-response","299","376292","0.0-1.0-7.0-3.0-2.73","17:56:49","3","","","","","","","<div style='text-align: center;'>
                            <span style=""color: green; font-size: 40px""><b>正确！+1 pts</b></span></div>
                            ","","learn","7","7","7","learn","2","2","[0, 1, 2]","73","7","setsize","10S3A","furniture","1","35","2","1",""
"null","null","fixation","html-keyboard-response","300","376795","0.0-1.0-7.0-3.0-0.74","17:56:49","3","","","","","","","fixation","","","","","","","","","","","","","","","","","","",""
"2047","2","pic_response","html-keyboard-response","301","378843","0.0-1.0-7.0-3.0-1.74","17:56:49","3","","","","","","","<div>
            <img class='stim' src=""pictures/furniture/5.jpg""></div><div class=""button_prompt"">
                        <b>请用数字键1-3回答</b>
                        </div>","","","","","","","","","","","","","","","","","","",""
"2047","null","sub_response","html-keyboard-response","302","379843","0.0-1.0-7.0-3.0-2.74","17:56:49","3","","","","","","","<div style='text-align: center;'>
                            <span style=""color: green; font-size: 40px""><b>正确！+1 pts</b></span></div>
                            ","","learn","5","5","5","learn","1","1","[0, 1, 2]","74","7","setsize","10S3A","furniture","1","36","1","1",""
"null","null","fixation","html-keyboard-response","303","380345","0.0-1.0-7.0-3.0-0.75","17:56:49","3","","","","","","","fixation","","","","","","","","","","","","","","","","","","",""
"921","2","pic_response","html-keyboard-response","304","381267","0.0-1.0-7.0-3.0-1.75","17:56:49","3","","","","","","","<div>
            <img class='stim' src=""pictures/furniture/3.jpg""></div><div class=""button_prompt"">
                        <b>请用数字键1-3回答</b>
                        </div>","","","","","","","","","","","","","","","","","","",""
"921","null","sub_response","html-keyboard-response","305","382268","0.0-1.0-7.0-3.0-2.75","17:56:49","3","","","","","","","<div style='text-align: center;'>
                            <span style=""color: green; font-size: 40px""><b>正确！+1 pts</b></span></div>
                            ","","learn","3","3","3","learn","1","1","[0, 1, 2]","75","7","setsize","10S3A","furniture","1","37","1","1",""
"null","null","fixation","html-keyboard-response","306","382769","0.0-1.0-7.0-3.0-0.76","17:56:49","3","","","","","","","fixation","","","","","","","","","","","","","","","","","","",""
"657","3","pic_response","html-keyboard-response","307","383427","0.0-1.0-7.0-3.0-1.76","17:56:49","3","","","","","","","<div>
            <img class='stim' src=""pictures/furniture/6.jpg""></div><div class=""button_prompt"">
                        <b>请用数字键1-3回答</b>
                        </div>","","","","","","","","","","","","","","","","","","",""
"657","null","sub_response","html-keyboard-response","308","384428","0.0-1.0-7.0-3.0-2.76","17:56:49","3","","","","","","","<div style='text-align: center;'>
                            <span style=""color: green; font-size: 40px""><b>正确！+1 pts</b></span></div>
                            ","","learn","6","6","6","learn","2","2","[0, 1, 2]","76","7","setsize","10S3A","furniture","1","38","2","1",""
"null","null","fixation","html-keyboard-response","309","384930","0.0-1.0-7.0-3.0-0.77","17:56:49","3","","","","","","","fixation","","","","","","","","","","","","","","","","","","",""
"1016","1","pic_response","html-keyboard-response","310","385947","0.0-1.0-7.0-3.0-1.77","17:56:49","3","","","","","","","<div>
            <img class='stim' src=""pictures/furniture/0.jpg""></div><div class=""button_prompt"">
                        <b>请用数字键1-3回答</b>
                        </div>","","","","","","","","","","","","","","","","","","",""
"1016","null","sub_response","html-keyboard-response","311","386948","0.0-1.0-7.0-3.0-2.77","17:56:49","3","","","","","","","<div style='text-align: center;'>
                            <span style=""color: green; font-size: 40px""><b>正确！+1 pts</b></span></div>
                            ","","learn","0","0","0","learn","0","0","[0, 1, 2]","77","7","setsize","10S3A","furniture","1","39","0","1",""
"null","null","fixation","html-keyboard-response","312","387448","0.0-1.0-7.0-3.0-0.78","17:56:49","3","","","","","","","fixation","","","","","","","","","","","","","","","","","","",""
"978","3","pic_response","html-keyboard-response","313","388427","0.0-1.0-7.0-3.0-1.78","17:56:49","3","","","","","","","<div>
            <img class='stim' src=""pictures/furniture/9.jpg""></div><div class=""button_prompt"">
                        <b>请用数字键1-3回答</b>
                        </div>","","","","","","","","","","","","","","","","","","",""
"978","null","sub_response","html-keyboard-response","314","389434","0.0-1.0-7.0-3.0-2.78","17:56:49","3","","","","","","","<div style='text-align: center;'>
                            <span style=""color: green; font-size: 40px""><b>正确！+1 pts</b></span></div>
                            ","","learn","9","9","9","learn","2","2","[0, 1, 2]","78","7","setsize","10S3A","furniture","1","40","2","1",""
"null","null","fixation","html-keyboard-response","315","389936","0.0-1.0-7.0-3.0-0.79","17:56:49","3","","","","","","","fixation","","","","","","","","","","","","","","","","","","",""
"1435","2","pic_response","html-keyboard-response","316","391372","0.0-1.0-7.0-3.0-1.79","17:56:49","3","","","","","","","<div>
            <img class='stim' src=""pictures/furniture/4.jpg""></div><div class=""button_prompt"">
                        <b>请用数字键1-3回答</b>
                        </div>","","","","","","","","","","","","","","","","","","",""
"1435","null","sub_response","html-keyboard-response","317","392373","0.0-1.0-7.0-3.0-2.79","17:56:49","3","","","","","","","<div style='text-align: center;'>
                            <span style=""color: green; font-size: 40px""><b>正确！+1 pts</b></span></div>
                            ","","learn","4","4","4","learn","1","1","[0, 1, 2]","79","7","setsize","10S3A","furniture","1","41","1","1",""
"null","null","fixation","html-keyboard-response","318","392874","0.0-1.0-7.0-3.0-0.80","17:56:49","3","","","","","","","fixation","","","","","","","","","","","","","","","","","","",""
"1024","1","pic_response","html-keyboard-response","319","393899","0.0-1.0-7.0-3.0-1.80","17:56:49","3","","","","","","","<div>
            <img class='stim' src=""pictures/furniture/0.jpg""></div><div class=""button_prompt"">
                        <b>请用数字键1-3回答</b>
