"rt","response","screen_id","trial_type","trial_index","time_elapsed","internal_node_id","start_time","n_Prac","success","timeout","failed_images","failed_audio","failed_video","view_history","stimulus","question_order","stage","s","word","word_id","phase","a_cor","a_real","a_ava","trial","tps","task_type","block_typ","pic_typ","block_id","cum_r","a","r","plugin_name"
"44483","{""sub_id"":""用户82356"",""task_type"":""task1"",""name"":""周晓萱"",""gender"":""M""}","basic_info","survey-html-form","0","44484","0.0-0.0","10:08:26","2","","","","","","","","","","","","","","","","","","","","","","","","","",""
"","","","preload","1","45219","0.0-1.0-0.0","10:08:26","2","true","false","[]","[]","[]","","","","","","","","","","","","","","","","","","","","",""
"","","","preload","2","45347","0.0-1.0-1.0","10:08:26","2","true","false","[]","[]","[]","","","","","","","","","","","","","","","","","","","","",""
"","","","fullscreen","3","48014","0.0-1.0-2.0","10:08:26","2","true","","","","","","","","","","","","","","","","","","","","","","","","",""
"23641","","instruct","instructions","4","71656","0.0-1.0-3.0-0.0","10:08:26","2","","","","","","[{""page_index"":0,""viewing_time"":7565},{""page_index"":1,""viewing_time"":8618},{""page_index"":2,""viewing_time"":7458}]","","","","","","","","","","","","","","","","","","","",""
"9073","{""Q0"":"""",""task1"":""<span style='font-size: 24px'>学习图片和数字的对应关系</span>"",""task2"":""<span style='font-size: 24px'> 数字键1-3 </span>"",""task3"":""<span style='font-size: 24px'> 看到图片选出正确对应的数字 </span>""}","question","survey-multi-choice","5","80730","0.0-1.0-3.0-1.0","10:08:26","2","","","","","","","","[0,1,2,3]","","","","","","","","","","","","","","","","","",""
"3236"," ","inst_q","html-keyboard-response","6","83967","0.0-1.0-3.0-2.0","10:08:26","2","","","","","","","inst","","1","","","","","","","","","","","","","","","","",""
"17809","","instruct","instructions","7","101776","0.0-1.0-3.1-0.1","10:08:26","2","","","","","","[{""page_index"":0,""viewing_time"":6682},{""page_index"":1,""viewing_time"":5863},{""page_index"":2,""viewing_time"":5264}]","","","","","","","","","","","","","","","","","","","",""
"22682","{""Q0"":"""",""task1"":""<span style='font-size: 24px'>学习图片和数字的对应关系</span>"",""task2"":""<span style='font-size: 24px'> 数字键1-3 </span>"",""task3"":""<span style='font-size: 24px'> 看到图片选出正确对应的数字 </span>""}","question","survey-multi-choice","8","124459","0.0-1.0-3.1-1.1","10:08:26","2","","","","","","","","[0,1,2,3]","","","","","","","","","","","","","","","","","",""
"1521"," ","inst_q","html-keyboard-response","9","125980","0.0-1.0-3.1-2.1","10:08:26","2","","","","","","","inst","","1","","","","","","","","","","","","","","","","",""
"11909","","instruct","instructions","10","137889","0.0-1.0-3.2-0.2","10:08:26","2","","","","","","[{""page_index"":0,""viewing_time"":2596},{""page_index"":1,""viewing_time"":2139},{""page_index"":2,""viewing_time"":7174}]","","","","","","","","","","","","","","","","","","","",""
"5805","{""Q0"":"""",""task1"":""<span style='font-size: 24px'>学习图片和数字的对应关系</span>"",""task2"":""<span style='font-size: 24px'> 数字键1-3 </span>"",""task3"":""<span style='font-size: 24px'> 猜测Queen Elizabeth住在哪一栋房子里 </span>""}","question","survey-multi-choice","11","143696","0.0-1.0-3.2-1.2","10:08:26","2","","","","","","","","[0,1,2,3]","","","","","","","","","","","","","","","","","",""
"2889"," ","inst_q","html-keyboard-response","12","146586","0.0-1.0-3.2-2.2","10:08:26","2","","","","","","","inst","","1","","","","","","","","","","","","","","","","",""
"6327","","instruct","instructions","13","152913","0.0-1.0-3.3-0.3","10:08:26","2","","","","","","[{""page_index"":0,""viewing_time"":2042},{""page_index"":1,""viewing_time"":2842},{""page_index"":2,""viewing_time"":1443}]","","","","","","","","","","","","","","","","","","","",""
"4488","{""Q0"":"""",""task1"":""<span style='font-size: 24px'>学习图片和数字的对应关系</span>"",""task2"":""<span style='font-size: 24px'> ←, → </span>"",""task3"":""<span style='font-size: 24px'> 找到伦敦桥 </span>""}","question","survey-multi-choice","14","157402","0.0-1.0-3.3-1.3","10:08:26","2","","","","","","","","[0,1,2,3]","","","","","","","","","","","","","","","","","",""
"898"," ","inst_q","html-keyboard-response","15","158301","0.0-1.0-3.3-2.3","10:08:26","2","","","","","","","inst","","1","","","","","","","","","","","","","","","","",""
"1906","","instruct","instructions","16","160207","0.0-1.0-3.4-0.4","10:08:26","2","","","","","","[{""page_index"":0,""viewing_time"":884},{""page_index"":1,""viewing_time"":392},{""page_index"":2,""viewing_time"":630}]","","","","","","","","","","","","","","","","","","","",""
"3870","{""Q0"":"""",""task1"":""<span style='font-size: 24px'>学习图片和数字的对应关系</span>"",""task2"":""<span style='font-size: 24px'> ←, → </span>"",""task3"":""<span style='font-size: 24px'> 猜测Queen Elizabeth住在哪一栋房子里 </span>""}","question","survey-multi-choice","17","164078","0.0-1.0-3.4-1.4","10:08:26","2","","","","","","","","[0,1,2,3]","","","","","","","","","","","","","","","","","",""
"813"," ","inst_q","html-keyboard-response","18","164891","0.0-1.0-3.4-2.4","10:08:26","2","","","","","","","inst","","1","","","","","","","","","","","","","","","","",""
"1531","","instruct","instructions","19","166423","0.0-1.0-3.5-0.5","10:08:26","2","","","","","","[{""page_index"":0,""viewing_time"":955},{""page_index"":1,""viewing_time"":216},{""page_index"":2,""viewing_time"":360}]","","","","","","","","","","","","","","","","","","","",""
"6557","{""Q0"":"""",""task1"":""<span style='font-size: 24px'>学习图片和数字的对应关系</span>"",""task2"":""<span style='font-size: 24px'> ←, → </span>"",""task3"":""<span style='font-size: 24px'> 看到图片选出正确对应的数字 </span>""}","question","survey-multi-choice","20","172980","0.0-1.0-3.5-1.5","10:08:26","2","","","","","","","","[0,1,2,3]","","","","","","","","","","","","","","","","","",""
"882"," ","inst_q","html-keyboard-response","21","173862","0.0-1.0-3.5-2.5","10:08:26","2","","","","","","","inst","","1","","","","","","","","","","","","","","","","",""
"1622","","instruct","instructions","22","175485","0.0-1.0-3.6-0.6","10:08:26","2","","","","","","[{""page_index"":0,""viewing_time"":896},{""page_index"":1,""viewing_time"":382},{""page_index"":2,""viewing_time"":344}]","","","","","","","","","","","","","","","","","","","",""
"6604","{""Q0"":"""",""task1"":""<span style='font-size: 24px'>学习图片和数字的对应关系</span>"",""task2"":""<span style='font-size: 24px'> 图片下方标注为可用的数字键（数字键1-3或0-9） </span>"",""task3"":""<span style='font-size: 24px'> 找到伦敦桥 </span>""}","question","survey-multi-choice","23","182090","0.0-1.0-3.6-1.6","10:08:26","2","","","","","","","","[0,1,2,3]","","","","","","","","","","","","","","","","","",""
"867"," ","inst_q","html-keyboard-response","24","182958","0.0-1.0-3.6-2.6","10:08:26","2","","","","","","","inst","","1","","","","","","","","","","","","","","","","",""
"2563","","instruct","instructions","25","185521","0.0-1.0-3.7-0.7","10:08:26","2","","","","","","[{""page_index"":0,""viewing_time"":1249},{""page_index"":1,""viewing_time"":748},{""page_index"":2,""viewing_time"":566}]","","","","","","","","","","","","","","","","","","","",""
"5630","{""Q0"":"""",""task1"":""<span style='font-size: 24px'>学习图片和数字的对应关系</span>"",""task2"":""<span style='font-size: 24px'> 图片下方标注为可用的数字键（数字键1-3或0-9） </span>"",""task3"":""<span style='font-size: 24px'> 猜测Queen Elizabeth住在哪一栋房子里 </span>""}","question","survey-multi-choice","26","191153","0.0-1.0-3.7-1.7","10:08:26","2","","","","","","","","[0,1,2,3]","","","","","","","","","","","","","","","","","",""
"728"," ","inst_q","html-keyboard-response","27","191881","0.0-1.0-3.7-2.7","10:08:26","2","","","","","","","inst","","1","","","","","","","","","","","","","","","","",""
"1393","","instruct","instructions","28","193275","0.0-1.0-3.8-0.8","10:08:26","2","","","","","","[{""page_index"":0,""viewing_time"":673},{""page_index"":1,""viewing_time"":210},{""page_index"":2,""viewing_time"":509}]","","","","","","","","","","","","","","","","","","","",""
"9306","{""Q0"":"""",""task1"":""<span style='font-size: 24px'>学习图片和数字的对应关系</span>"",""task2"":""<span style='font-size: 24px'> 图片下方标注为可用的数字键（数字键1-3或0-9） </span>"",""task3"":""<span style='font-size: 24px'> 看到图片选出正确对应的数字 </span>""}","question","survey-multi-choice","29","202582","0.0-1.0-3.8-1.8","10:08:26","2","","","","","","","","[0,1,2,3]","","","","","","","","","","","","","","","","","",""
"7158"," ","inst_q","html-keyboard-response","30","209741","0.0-1.0-3.8-2.8","10:08:26","2","","","","","","","inst","","1","","","","","","","","","","","","","","","","",""
"","","","preload","31","209800","0.0-1.0-4.0-0.0","10:08:26","2","true","false","[]","[]","[]","","","","","","","","","","","","","","","","","","","","",""
"8308"," ","","html-keyboard-response","32","218108","0.0-1.0-4.0-1.0","10:08:26","2","","","","","","","<div style='font-size: 32px; text-align: center;'
                    <p>请学习图片和数字之间的对应关系</p>
                    <p>我们将<span style='color: blue'><b> 告诉 </b></span>您选择的对错。请根据反馈学习。</p>
                    <p>请按""空格""继续实验。</p></div>","","","","","","","","","","","","","","","","","","",""
"5801"," ","inst","html-keyboard-response","33","223910","0.0-1.0-4.0-2.0","10:08:26","2","","","","","","","<img class='instruct_stim' src=""instruction/prac3.PNG""></div>","","","","","","","","","","","","","","","","","","",""
"null","null","fixation","html-keyboard-response","34","224411","0.0-1.0-4.0-3.0-0.0","10:08:26","2","","","","","","","fixation","","","","","","","","","","","","","","","","","","",""
"1311","1","pic_response","html-keyboard-response","35","225723","0.0-1.0-4.0-3.0-1.0","10:08:26","2","","","","","","","<div>
            <img class='stim' src=""pictures/prac/0.jpg""></div><div class=""button_prompt"">
                        <b>请用数字键1-3回答</b>
                        </div>","","","","","","","","","","","","","","","","","","",""
"1311","null","sub_response","html-keyboard-response","36","226725","0.0-1.0-4.0-3.0-2.0","10:08:26","2","","","","","","","<div style='text-align: center;'>
                            <span style=""color: green; font-size: 40px""><b>正确！+1 pts</b></span></div>
                            ","","learn","0","0","0","learn","0","0","[0, 1, 2]","0","0","setsize","99","prac","0","1","0","1",""
"null","null","fixation","html-keyboard-response","37","227227","0.0-1.0-4.0-3.0-0.1","10:08:26","2","","","","","","","fixation","","","","","","","","","","","","","","","","","","",""
"1317","2","pic_response","html-keyboard-response","38","228545","0.0-1.0-4.0-3.0-1.1","10:08:26","2","","","","","","","<div>
            <img class='stim' src=""pictures/prac/2.jpg""></div><div class=""button_prompt"">
                        <b>请用数字键1-3回答</b>
                        </div>","","","","","","","","","","","","","","","","","","",""
"1317","null","sub_response","html-keyboard-response","39","229546","0.0-1.0-4.0-3.0-2.1","10:08:26","2","","","","","","","<div style='text-align: center;'>
                            <span style=""color: red; font-size: 40px""><b>错误！+0 pts</b></span></div>
                            ","","learn","2","2","2","learn","2","2","[0, 1, 2]","1","0","setsize","99","prac","0","0","1","0",""
"null","null","fixation","html-keyboard-response","40","230048","0.0-1.0-4.0-3.0-0.2","10:08:26","2","","","","","","","fixation","","","","","","","","","","","","","","","","","","",""
"1143","1","pic_response","html-keyboard-response","41","231192","0.0-1.0-4.0-3.0-1.2","10:08:26","2","","","","","","","<div>
            <img class='stim' src=""pictures/prac/1.jpg""></div><div class=""button_prompt"">
                        <b>请用数字键1-3回答</b>
                        </div>","","","","","","","","","","","","","","","","","","",""
"1143","null","sub_response","html-keyboard-response","42","232194","0.0-1.0-4.0-3.0-2.2","10:08:26","2","","","","","","","<div style='text-align: center;'>
                            <span style=""color: green; font-size: 40px""><b>正确！+1 pts</b></span></div>
                            ","","learn","1","1","1","learn","0","0","[0, 1, 2]","2","0","setsize","99","prac","0","1","0","1",""
"null","null","fixation","html-keyboard-response","43","232695","0.0-1.0-4.0-3.0-0.3","10:08:26","2","","","","","","","fixation","","","","","","","","","","","","","","","","","","",""
"2206","1","pic_response","html-keyboard-response","44","234901","0.0-1.0-4.0-3.0-1.3","10:08:26","2","","","","","","","<div>
            <img class='stim' src=""pictures/prac/1.jpg""></div><div class=""button_prompt"">
                        <b>请用数字键1-3回答</b>
                        </div>","","","","","","","","","","","","","","","","","","",""
"2206","null","sub_response","html-keyboard-response","45","235903","0.0-1.0-4.0-3.0-2.3","10:08:26","2","","","","","","","<div style='text-align: center;'>
                            <span style=""color: green; font-size: 40px""><b>正确！+1 pts</b></span></div>
                            ","","learn","1","1","1","learn","0","0","[0, 1, 2]","3","1","setsize","99","prac","0","2","0","1",""
"null","null","fixation","html-keyboard-response","46","236404","0.0-1.0-4.0-3.0-0.4","10:08:26","2","","","","","","","fixation","","","","","","","","","","","","","","","","","","",""
"892","1","pic_response","html-keyboard-response","47","237297","0.0-1.0-4.0-3.0-1.4","10:08:26","2","","","","","","","<div>
            <img class='stim' src=""pictures/prac/0.jpg""></div><div class=""button_prompt"">
                        <b>请用数字键1-3回答</b>
                        </div>","","","","","","","","","","","","","","","","","","",""
"892","null","sub_response","html-keyboard-response","48","238298","0.0-1.0-4.0-3.0-2.4","10:08:26","2","","","","","","","<div style='text-align: center;'>
                            <span style=""color: green; font-size: 40px""><b>正确！+1 pts</b></span></div>
                            ","","learn","0","0","0","learn","0","0","[0, 1, 2]","4","1","setsize","99","prac","0","3","0","1",""
"null","null","fixation","html-keyboard-response","49","238799","0.0-1.0-4.0-3.0-0.5","10:08:26","2","","","","","","","fixation","","","","","","","","","","","","","","","","","","",""
"1507","1","pic_response","html-keyboard-response","50","240307","0.0-1.0-4.0-3.0-1.5","10:08:26","2","","","","","","","<div>
            <img class='stim' src=""pictures/prac/2.jpg""></div><div class=""button_prompt"">
                        <b>请用数字键1-3回答</b>
                        </div>","","","","","","","","","","","","","","","","","","",""
"1507","null","sub_response","html-keyboard-response","51","241308","0.0-1.0-4.0-3.0-2.5","10:08:26","2","","","","","","","<div style='text-align: center;'>
                            <span style=""color: red; font-size: 40px""><b>错误！+0 pts</b></span></div>
                            ","","learn","2","2","2","learn","2","2","[0, 1, 2]","5","1","setsize","99","prac","0","0","0","0",""
"","","","preload","52","241310","0.0-1.0-4.1-0.1","10:08:26","2","true","false","[]","[]","[]","","","","","","","","","","","","","","","","","","","","",""
"2704"," ","","html-keyboard-response","53","244014","0.0-1.0-4.1-1.1","10:08:26","2","","","","","","","<div style='font-size: 32px; text-align: center;'
                    <p>请学习图片和数字之间的对应关系</p>
                    <p>我们将<span style='color: blue'><b> 告诉 </b></span>您选择的对错。请根据反馈学习。</p>
                    <p>请按""空格""继续实验。</p></div>","","","","","","","","","","","","","","","","","","",""
"1786"," ","inst","html-keyboard-response","54","245801","0.0-1.0-4.1-2.1","10:08:26","2","","","","","","","<img class='instruct_stim' src=""instruction/prac3.PNG""></div>","","","","","","","","","","","","","","","","","","",""
"null","null","fixation","html-keyboard-response","55","246301","0.0-1.0-4.1-3.1-0.6","10:08:26","2","","","","","","","fixation","","","","","","","","","","","","","","","","","","",""
"507","1","pic_response","html-keyboard-response","56","246809","0.0-1.0-4.1-3.1-1.6","10:08:26","2","","","","","","","<div>
            <img class='stim' src=""pictures/prac/0.jpg""></div><div class=""button_prompt"">
                        <b>请用数字键1-3回答</b>
                        </div>","","","","","","","","","","","","","","","","","","",""
"507","null","sub_response","html-keyboard-response","57","247810","0.0-1.0-4.1-3.1-2.6","10:08:26","2","","","","","","","<div style='text-align: center;'>
                            <span style=""color: green; font-size: 40px""><b>正确！+1 pts</b></span></div>
                            ","","learn","0","0","0","learn","0","0","[0, 1, 2]","0","0","setsize","99","prac","0","1","0","1",""
"null","null","fixation","html-keyboard-response","58","248312","0.0-1.0-4.1-3.1-0.7","10:08:26","2","","","","","","","fixation","","","","","","","","","","","","","","","","","","",""
"675","3","pic_response","html-keyboard-response","59","248988","0.0-1.0-4.1-3.1-1.7","10:08:26","2","","","","","","","<div>
            <img class='stim' src=""pictures/prac/2.jpg""></div><div class=""button_prompt"">
                        <b>请用数字键1-3回答</b>
                        </div>","","","","","","","","","","","","","","","","","","",""
"675","null","sub_response","html-keyboard-response","60","249989","0.0-1.0-4.1-3.1-2.7","10:08:26","2","","","","","","","<div style='text-align: center;'>
                            <span style=""color: green; font-size: 40px""><b>正确！+1 pts</b></span></div>
                            ","","learn","2","2","2","learn","2","2","[0, 1, 2]","1","0","setsize","99","prac","0","2","2","1",""
"null","null","fixation","html-keyboard-response","61","250490","0.0-1.0-4.1-3.1-0.8","10:08:26","2","","","","","","","fixation","","","","","","","","","","","","","","","","","","",""
"640","1","pic_response","html-keyboard-response","62","251131","0.0-1.0-4.1-3.1-1.8","10:08:26","2","","","","","","","<div>
            <img class='stim' src=""pictures/prac/1.jpg""></div><div class=""button_prompt"">
                        <b>请用数字键1-3回答</b>
                        </div>","","","","","","","","","","","","","","","","","","",""
"640","null","sub_response","html-keyboard-response","63","252132","0.0-1.0-4.1-3.1-2.8","10:08:26","2","","","","","","","<div style='text-align: center;'>
                            <span style=""color: green; font-size: 40px""><b>正确！+1 pts</b></span></div>
                            ","","learn","1","1","1","learn","0","0","[0, 1, 2]","2","0","setsize","99","prac","0","3","0","1",""
"null","null","fixation","html-keyboard-response","64","252634","0.0-1.0-4.1-3.1-0.9","10:08:26","2","","","","","","","fixation","","","","","","","","","","","","","","","","","","",""
"665","1","pic_response","html-keyboard-response","65","253300","0.0-1.0-4.1-3.1-1.9","10:08:26","2","","","","","","","<div>
            <img class='stim' src=""pictures/prac/1.jpg""></div><div class=""button_prompt"">
                        <b>请用数字键1-3回答</b>
                        </div>","","","","","","","","","","","","","","","","","","",""
"665","null","sub_response","html-keyboard-response","66","254301","0.0-1.0-4.1-3.1-2.9","10:08:26","2","","","","","","","<div style='text-align: center;'>
                            <span style=""color: green; font-size: 40px""><b>正确！+1 pts</b></span></div>
                            ","","learn","1","1","1","learn","0","0","[0, 1, 2]","3","1","setsize","99","prac","0","4","0","1",""
"null","null","fixation","html-keyboard-response","67","254803","0.0-1.0-4.1-3.1-0.10","10:08:26","2","","","","","","","fixation","","","","","","","","","","","","","","","","","","",""
"563","1","pic_response","html-keyboard-response","68","255366","0.0-1.0-4.1-3.1-1.10","10:08:26","2","","","","","","","<div>
            <img class='stim' src=""pictures/prac/0.jpg""></div><div class=""button_prompt"">
                        <b>请用数字键1-3回答</b>
                        </div>","","","","","","","","","","","","","","","","","","",""
"563","null","sub_response","html-keyboard-response","69","256367","0.0-1.0-4.1-3.1-2.10","10:08:26","2","","","","","","","<div style='text-align: center;'>
                            <span style=""color: green; font-size: 40px""><b>正确！+1 pts</b></span></div>
                            ","","learn","0","0","0","learn","0","0","[0, 1, 2]","4","1","setsize","99","prac","0","5","0","1",""
"null","null","fixation","html-keyboard-response","70","256869","0.0-1.0-4.1-3.1-0.11","10:08:26","2","","","","","","","fixation","","","","","","","","","","","","","","","","","","",""
"907","3","pic_response","html-keyboard-response","71","257777","0.0-1.0-4.1-3.1-1.11","10:08:26","2","","","","","","","<div>
            <img class='stim' src=""pictures/prac/2.jpg""></div><div class=""button_prompt"">
                        <b>请用数字键1-3回答</b>
                        </div>","","","","","","","","","","","","","","","","","","",""
"907","null","sub_response","html-keyboard-response","72","258778","0.0-1.0-4.1-3.1-2.11","10:08:26","2","","","","","","","<div style='text-align: center;'>
                            <span style=""color: green; font-size: 40px""><b>正确！+1 pts</b></span></div>
                            ","","learn","2","2","2","learn","2","2","[0, 1, 2]","5","1","setsize","99","prac","0","6","2","1",""
"2084"," ","","html-keyboard-response","73","260862","0.0-1.0-5.0","10:08:26","2","","","","","","","<div style=""font-size: 25px""><p>距下一个实验开始还有</p><div style=""font-size: 50px; color: blue""><p><span id=""clock"">1:00</span></div></p><p>按""空格""跳过休息</p></div>","","","","","","","","","","","","","","","","","","",""
"1481"," ","","html-keyboard-response","74","262344","0.0-1.0-6.0","10:08:26","2","","","","","","","<div style='font-size: 32px; text-align: center;'
                    <p>请按""空格""继续正式实验。</p></div>","","","","","","","","","","","","","","","","","","",""
"","","","preload","75","262541","0.0-1.0-7.0-0.0","10:08:26","2","true","false","[]","[]","[]","","","","","","","","","","","","","","","","","","","","",""
"1319"," ","","html-keyboard-response","76","263860","0.0-1.0-7.0-1.0","10:08:26","2","","","","","","","<div style='font-size: 32px; text-align: center;'
                    <p>请学习图片和数字之间的对应关系</p>
                    <p>我们将<span style='color: blue'><b> 告诉 </b></span>您选择的对错。请根据反馈学习。</p>
                    <p>请按""空格""继续实验。</p></div>","","","","","","","","","","","","","","","","","","",""
"3312"," ","inst","html-keyboard-response","77","267172","0.0-1.0-7.0-2.0","10:08:26","2","","","","","","","<img class='instruct_stim' src=""instruction/food3.PNG""></div>","","","","","","","","","","","","","","","","","","",""
"null","null","fixation","html-keyboard-response","78","267673","0.0-1.0-7.0-3.0-0.0","10:08:26","2","","","","","","","fixation","","","","","","","","","","","","","","","","","","",""
"857","2","pic_response","html-keyboard-response","79","268531","0.0-1.0-7.0-3.0-1.0","10:08:26","2","","","","","","","<div>
            <img class='stim' src=""pictures/food/1.jpg""></div><div class=""button_prompt"">
                        <b>请用数字键1-3回答</b>
                        </div>","","","","","","","","","","","","","","","","","","",""
"857","null","sub_response","html-keyboard-response","80","269532","0.0-1.0-7.0-3.0-2.0","10:08:26","2","","","","","","","<div style='text-align: center;'>
                            <span style=""color: red; font-size: 40px""><b>错误！+0 pts</b></span></div>
                            ","","learn","1","1","1","learn","0","0","[0, 1, 2]","0","0","setsize","3S3A","food","1","0","1","0",""
"null","null","fixation","html-keyboard-response","81","270034","0.0-1.0-7.0-3.0-0.1","10:08:26","2","","","","","","","fixation","","","","","","","","","","","","","","","","","","",""
"744","1","pic_response","html-keyboard-response","82","270778","0.0-1.0-7.0-3.0-1.1","10:08:26","2","","","","","","","<div>
            <img class='stim' src=""pictures/food/2.jpg""></div><div class=""button_prompt"">
                        <b>请用数字键1-3回答</b>
                        </div>","","","","","","","","","","","","","","","","","","",""
"744","null","sub_response","html-keyboard-response","83","271780","0.0-1.0-7.0-3.0-2.1","10:08:26","2","","","","","","","<div style='text-align: center;'>
                            <span style=""color: red; font-size: 40px""><b>错误！+0 pts</b></span></div>
                            ","","learn","2","2","2","learn","2","2","[0, 1, 2]","1","0","setsize","3S3A","food","1","0","0","0",""
"null","null","fixation","html-keyboard-response","84","272282","0.0-1.0-7.0-3.0-0.2","10:08:26","2","","","","","","","fixation","","","","","","","","","","","","","","","","","","",""
"674","1","pic_response","html-keyboard-response","85","272956","0.0-1.0-7.0-3.0-1.2","10:08:26","2","","","","","","","<div>
            <img class='stim' src=""pictures/food/0.jpg""></div><div class=""button_prompt"">
                        <b>请用数字键1-3回答</b>
                        </div>","","","","","","","","","","","","","","","","","","",""
"674","null","sub_response","html-keyboard-response","86","273957","0.0-1.0-7.0-3.0-2.2","10:08:26","2","","","","","","","<div style='text-align: center;'>
                            <span style=""color: green; font-size: 40px""><b>正确！+1 pts</b></span></div>
                            ","","learn","0","0","0","learn","0","0","[0, 1, 2]","2","0","setsize","3S3A","food","1","1","0","1",""
"null","null","fixation","html-keyboard-response","87","274463","0.0-1.0-7.0-3.0-0.3","10:08:26","2","","","","","","","fixation","","","","","","","","","","","","","","","","","","",""
"850","1","pic_response","html-keyboard-response","88","275313","0.0-1.0-7.0-3.0-1.3","10:08:26","2","","","","","","","<div>
            <img class='stim' src=""pictures/food/0.jpg""></div><div class=""button_prompt"">
                        <b>请用数字键1-3回答</b>
                        </div>","","","","","","","","","","","","","","","","","","",""
"850","null","sub_response","html-keyboard-response","89","276314","0.0-1.0-7.0-3.0-2.3","10:08:26","2","","","","","","","<div style='text-align: center;'>
                            <span style=""color: green; font-size: 40px""><b>正确！+1 pts</b></span></div>
                            ","","learn","0","0","0","learn","0","0","[0, 1, 2]","3","1","setsize","3S3A","food","1","2","0","1",""
"null","null","fixation","html-keyboard-response","90","276815","0.0-1.0-7.0-3.0-0.4","10:08:26","2","","","","","","","fixation","","","","","","","","","","","","","","","","","","",""
"342","1","pic_response","html-keyboard-response","91","277158","0.0-1.0-7.0-3.0-1.4","10:08:26","2","","","","","","","<div>
            <img class='stim' src=""pictures/food/1.jpg""></div><div class=""button_prompt"">
                        <b>请用数字键1-3回答</b>
                        </div>","","","","","","","","","","","","","","","","","","",""
"342","null","sub_response","html-keyboard-response","92","278160","0.0-1.0-7.0-3.0-2.4","10:08:26","2","","","","","","","<div style='text-align: center;'>
                            <span style=""color: green; font-size: 40px""><b>正确！+1 pts</b></span></div>
                            ","","learn","1","1","1","learn","0","0","[0, 1, 2]","4","1","setsize","3S3A","food","1","3","0","1",""
"null","null","fixation","html-keyboard-response","93","278661","0.0-1.0-7.0-3.0-0.5","10:08:26","2","","","","","","","fixation","","","","","","","","","","","","","","","","","","",""
"451","1","pic_response","html-keyboard-response","94","279112","0.0-1.0-7.0-3.0-1.5","10:08:26","2","","","","","","","<div>
            <img class='stim' src=""pictures/food/2.jpg""></div><div class=""button_prompt"">
                        <b>请用数字键1-3回答</b>
                        </div>","","","","","","","","","","","","","","","","","","",""
"451","null","sub_response","html-keyboard-response","95","280114","0.0-1.0-7.0-3.0-2.5","10:08:26","2","","","","","","","<div style='text-align: center;'>
                            <span style=""color: red; font-size: 40px""><b>错误！+0 pts</b></span></div>
                            ","","learn","2","2","2","learn","2","2","[0, 1, 2]","5","1","setsize","3S3A","food","1","0","0","0",""
"null","null","fixation","html-keyboard-response","96","280615","0.0-1.0-7.0-3.0-0.6","10:08:26","2","","","","","","","fixation","","","","","","","","","","","","","","","","","","",""
"626","1","pic_response","html-keyboard-response","97","281241","0.0-1.0-7.0-3.0-1.6","10:08:26","2","","","","","","","<div>
            <img class='stim' src=""pictures/food/0.jpg""></div><div class=""button_prompt"">
                        <b>请用数字键1-3回答</b>
                        </div>","","","","","","","","","","","","","","","","","","",""
"626","null","sub_response","html-keyboard-response","98","282242","0.0-1.0-7.0-3.0-2.6","10:08:26","2","","","","","","","<div style='text-align: center;'>
                            <span style=""color: green; font-size: 40px""><b>正确！+1 pts</b></span></div>
                            ","","learn","0","0","0","learn","0","0","[0, 1, 2]","6","2","setsize","3S3A","food","1","1","0","1",""
"null","null","fixation","html-keyboard-response","99","282744","0.0-1.0-7.0-3.0-0.7","10:08:26","2","","","","","","","fixation","","","","","","","","","","","","","","","","","","",""
"639","1","pic_response","html-keyboard-response","100","283384","0.0-1.0-7.0-3.0-1.7","10:08:26","2","","","","","","","<div>
            <img class='stim' src=""pictures/food/1.jpg""></div><div class=""button_prompt"">
                        <b>请用数字键1-3回答</b>
                        </div>","","","","","","","","","","","","","","","","","","",""
"639","null","sub_response","html-keyboard-response","101","284384","0.0-1.0-7.0-3.0-2.7","10:08:26","2","","","","","","","<div style='text-align: center;'>
                            <span style=""color: green; font-size: 40px""><b>正确！+1 pts</b></span></div>
                            ","","learn","1","1","1","learn","0","0","[0, 1, 2]","7","2","setsize","3S3A","food","1","2","0","1",""
"null","null","fixation","html-keyboard-response","102","284885","0.0-1.0-7.0-3.0-0.8","10:08:26","2","","","","","","","fixation","","","","","","","","","","","","","","","","","","",""
"342","3","pic_response","html-keyboard-response","103","285228","0.0-1.0-7.0-3.0-1.8","10:08:26","2","","","","","","","<div>
            <img class='stim' src=""pictures/food/2.jpg""></div><div class=""button_prompt"">
                        <b>请用数字键1-3回答</b>
                        </div>","","","","","","","","","","","","","","","","","","",""
"342","null","sub_response","html-keyboard-response","104","286229","0.0-1.0-7.0-3.0-2.8","10:08:26","2","","","","","","","<div style='text-align: center;'>
                            <span style=""color: green; font-size: 40px""><b>正确！+1 pts</b></span></div>
                            ","","learn","2","2","2","learn","2","2","[0, 1, 2]","8","2","setsize","3S3A","food","1","3","2","1",""
"null","null","fixation","html-keyboard-response","105","286730","0.0-1.0-7.0-3.0-0.9","10:08:26","2","","","","","","","fixation","","","","","","","","","","","","","","","","","","",""
"1498","1","pic_response","html-keyboard-response","106","288228","0.0-1.0-7.0-3.0-1.9","10:08:26","2","","","","","","","<div>
            <img class='stim' src=""pictures/food/2.jpg""></div><div class=""button_prompt"">
                        <b>请用数字键1-3回答</b>
                        </div>","","","","","","","","","","","","","","","","","","",""
"1498","null","sub_response","html-keyboard-response","107","289230","0.0-1.0-7.0-3.0-2.9","10:08:26","2","","","","","","","<div style='text-align: center;'>
                            <span style=""color: red; font-size: 40px""><b>错误！+0 pts</b></span></div>
                            ","","learn","2","2","2","learn","2","2","[0, 1, 2]","9","3","setsize","3S3A","food","1","0","0","0",""
"null","null","fixation","html-keyboard-response","108","289731","0.0-1.0-7.0-3.0-0.10","10:08:26","2","","","","","","","fixation","","","","","","","","","","","","","","","","","","",""
"1052","1","pic_response","html-keyboard-response","109","290783","0.0-1.0-7.0-3.0-1.10","10:08:26","2","","","","","","","<div>
            <img class='stim' src=""pictures/food/0.jpg""></div><div class=""button_prompt"">
                        <b>请用数字键1-3回答</b>
                        </div>","","","","","","","","","","","","","","","","","","",""
"1052","null","sub_response","html-keyboard-response","110","291784","0.0-1.0-7.0-3.0-2.10","10:08:26","2","","","","","","","<div style='text-align: center;'>
                            <span style=""color: green; font-size: 40px""><b>正确！+1 pts</b></span></div>
                            ","","learn","0","0","0","learn","0","0","[0, 1, 2]","10","3","setsize","3S3A","food","1","1","0","1",""
"null","null","fixation","html-keyboard-response","111","292285","0.0-1.0-7.0-3.0-0.11","10:08:26","2","","","","","","","fixation","","","","","","","","","","","","","","","","","","",""
"2115","1","pic_response","html-keyboard-response","112","294400","0.0-1.0-7.0-3.0-1.11","10:08:26","2","","","","","","","<div>
            <img class='stim' src=""pictures/food/1.jpg""></div><div class=""button_prompt"">
                        <b>请用数字键1-3回答</b>
                        </div>","","","","","","","","","","","","","","","","","","",""
"2115","null","sub_response","html-keyboard-response","113","295402","0.0-1.0-7.0-3.0-2.11","10:08:26","2","","","","","","","<div style='text-align: center;'>
                            <span style=""color: green; font-size: 40px""><b>正确！+1 pts</b></span></div>
                            ","","learn","1","1","1","learn","0","0","[0, 1, 2]","11","3","setsize","3S3A","food","1","2","0","1",""
"null","null","fixation","html-keyboard-response","114","295903","0.0-1.0-7.0-3.0-0.12","10:08:26","2","","","","","","","fixation","","","","","","","","","","","","","","","","","","",""
"530","3","pic_response","html-keyboard-response","115","296434","0.0-1.0-7.0-3.0-1.12","10:08:26","2","","","","","","","<div>
            <img class='stim' src=""pictures/food/0.jpg""></div><div class=""button_prompt"">
                        <b>请用数字键1-3回答</b>
                        </div>","","","","","","","","","","","","","","","","","","",""
"530","null","sub_response","html-keyboard-response","116","297434","0.0-1.0-7.0-3.0-2.12","10:08:26","2","","","","","","","<div style='text-align: center;'>
                            <span style=""color: red; font-size: 40px""><b>错误！+0 pts</b></span></div>
                            ","","learn","0","0","0","learn","0","0","[0, 1, 2]","12","4","setsize","3S3A","food","1","0","2","0",""
"null","null","fixation","html-keyboard-response","117","297935","0.0-1.0-7.0-3.0-0.13","10:08:26","2","","","","","","","fixation","","","","","","","","","","","","","","","","","","",""
"1610","1","pic_response","html-keyboard-response","118","299546","0.0-1.0-7.0-3.0-1.13","10:08:26","2","","","","","","","<div>
            <img class='stim' src=""pictures/food/1.jpg""></div><div class=""button_prompt"">
                        <b>请用数字键1-3回答</b>
                        </div>","","","","","","","","","","","","","","","","","","",""
"1610","null","sub_response","html-keyboard-response","119","300547","0.0-1.0-7.0-3.0-2.13","10:08:26","2","","","","","","","<div style='text-align: center;'>
                            <span style=""color: green; font-size: 40px""><b>正确！+1 pts</b></span></div>
                            ","","learn","1","1","1","learn","0","0","[0, 1, 2]","13","4","setsize","3S3A","food","1","1","0","1",""
"null","null","fixation","html-keyboard-response","120","301048","0.0-1.0-7.0-3.0-0.14","10:08:26","2","","","","","","","fixation","","","","","","","","","","","","","","","","","","",""
"1440","3","pic_response","html-keyboard-response","121","302488","0.0-1.0-7.0-3.0-1.14","10:08:26","2","","","","","","","<div>
            <img class='stim' src=""pictures/food/2.jpg""></div><div class=""button_prompt"">
                        <b>请用数字键1-3回答</b>
                        </div>","","","","","","","","","","","","","","","","","","",""
"1440","null","sub_response","html-keyboard-response","122","303488","0.0-1.0-7.0-3.0-2.14","10:08:26","2","","","","","","","<div style='text-align: center;'>
                            <span style=""color: green; font-size: 40px""><b>正确！+1 pts</b></span></div>
                            ","","learn","2","2","2","learn","2","2","[0, 1, 2]","14","4","setsize","3S3A","food","1","2","2","1",""
"null","null","fixation","html-keyboard-response","123","303990","0.0-1.0-7.0-3.0-0.15","10:08:26","2","","","","","","","fixation","","","","","","","","","","","","","","","","","","",""
"552","2","pic_response","html-keyboard-response","124","304542","0.0-1.0-7.0-3.0-1.15","10:08:26","2","","","","","","","<div>
            <img class='stim' src=""pictures/food/0.jpg""></div><div class=""button_prompt"">
                        <b>请用数字键1-3回答</b>
                        </div>","","","","","","","","","","","","","","","","","","",""
"552","null","sub_response","html-keyboard-response","125","305543","0.0-1.0-7.0-3.0-2.15","10:08:26","2","","","","","","","<div style='text-align: center;'>
                            <span style=""color: red; font-size: 40px""><b>错误！+0 pts</b></span></div>
                            ","","learn","0","0","0","learn","0","0","[0, 1, 2]","15","5","setsize","3S3A","food","1","0","1","0",""
"null","null","fixation","html-keyboard-response","126","306045","0.0-1.0-7.0-3.0-0.16","10:08:26","2","","","","","","","fixation","","","","","","","","","","","","","","","","","","",""
"882","1","pic_response","html-keyboard-response","127","306928","0.0-1.0-7.0-3.0-1.16","10:08:26","2","","","","","","","<div>
            <img class='stim' src=""pictures/food/1.jpg""></div><div class=""button_prompt"">
                        <b>请用数字键1-3回答</b>
                        </div>","","","","","","","","","","","","","","","","","","",""
"882","null","sub_response","html-keyboard-response","128","307929","0.0-1.0-7.0-3.0-2.16","10:08:26","2","","","","","","","<div style='text-align: center;'>
                            <span style=""color: green; font-size: 40px""><b>正确！+1 pts</b></span></div>
                            ","","learn","1","1","1","learn","0","0","[0, 1, 2]","16","5","setsize","3S3A","food","1","1","0","1",""
"null","null","fixation","html-keyboard-response","129","308431","0.0-1.0-7.0-3.0-0.17","10:08:26","2","","","","","","","fixation","","","","","","","","","","","","","","","","","","",""
"742","3","pic_response","html-keyboard-response","130","309174","0.0-1.0-7.0-3.0-1.17","10:08:26","2","","","","","","","<div>
            <img class='stim' src=""pictures/food/2.jpg""></div><div class=""button_prompt"">
                        <b>请用数字键1-3回答</b>
                        </div>","","","","","","","","","","","","","","","","","","",""
"742","null","sub_response","html-keyboard-response","131","310175","0.0-1.0-7.0-3.0-2.17","10:08:26","2","","","","","","","<div style='text-align: center;'>
                            <span style=""color: green; font-size: 40px""><b>正确！+1 pts</b></span></div>
                            ","","learn","2","2","2","learn","2","2","[0, 1, 2]","17","5","setsize","3S3A","food","1","2","2","1",""
"null","null","fixation","html-keyboard-response","132","310677","0.0-1.0-7.0-3.0-0.18","10:08:26","2","","","","","","","fixation","","","","","","","","","","","","","","","","","","",""
"1316","3","pic_response","html-keyboard-response","133","311993","0.0-1.0-7.0-3.0-1.18","10:08:26","2","","","","","","","<div>
            <img class='stim' src=""pictures/food/2.jpg""></div><div class=""button_prompt"">
                        <b>请用数字键1-3回答</b>
                        </div>","","","","","","","","","","","","","","","","","","",""
"1316","null","sub_response","html-keyboard-response","134","312994","0.0-1.0-7.0-3.0-2.18","10:08:26","2","","","","","","","<div style='text-align: center;'>
                            <span style=""color: green; font-size: 40px""><b>正确！+1 pts</b></span></div>
                            ","","learn","2","2","2","learn","2","2","[0, 1, 2]","18","6","setsize","3S3A","food","1","3","2","1",""
"null","null","fixation","html-keyboard-response","135","313495","0.0-1.0-7.0-3.0-0.19","10:08:26","2","","","","","","","fixation","","","","","","","","","","","","","","","","","","",""
"2183","2","pic_response","html-keyboard-response","136","315679","0.0-1.0-7.0-3.0-1.19","10:08:26","2","","","","","","","<div>
            <img class='stim' src=""pictures/food/0.jpg""></div><div class=""button_prompt"">
                        <b>请用数字键1-3回答</b>
                        </div>","","","","","","","","","","","","","","","","","","",""
"2183","null","sub_response","html-keyboard-response","137","316679","0.0-1.0-7.0-3.0-2.19","10:08:26","2","","","","","","","<div style='text-align: center;'>
                            <span style=""color: red; font-size: 40px""><b>错误！+0 pts</b></span></div>
                            ","","learn","0","0","0","learn","0","0","[0, 1, 2]","19","6","setsize","3S3A","food","1","0","1","0",""
"null","null","fixation","html-keyboard-response","138","317181","0.0-1.0-7.0-3.0-0.20","10:08:26","2","","","","","","","fixation","","","","","","","","","","","","","","","","","","",""
"1954","1","pic_response","html-keyboard-response","139","319135","0.0-1.0-7.0-3.0-1.20","10:08:26","2","","","","","","","<div>
            <img class='stim' src=""pictures/food/1.jpg""></div><div class=""button_prompt"">
                        <b>请用数字键1-3回答</b>
                        </div>","","","","","","","","","","","","","","","","","","",""
"1954","null","sub_response","html-keyboard-response","140","320137","0.0-1.0-7.0-3.0-2.20","10:08:26","2","","","","","","","<div style='text-align: center;'>
                            <span style=""color: green; font-size: 40px""><b>正确！+1 pts</b></span></div>
                            ","","learn","1","1","1","learn","0","0","[0, 1, 2]","20","6","setsize","3S3A","food","1","1","0","1",""
"null","null","fixation","html-keyboard-response","141","320639","0.0-1.0-7.0-3.0-0.21","10:08:26","2","","","","","","","fixation","","","","","","","","","","","","","","","","","","",""
"689","1","pic_response","html-keyboard-response","142","321328","0.0-1.0-7.0-3.0-1.21","10:08:26","2","","","","","","","<div>
            <img class='stim' src=""pictures/food/1.jpg""></div><div class=""button_prompt"">
                        <b>请用数字键1-3回答</b>
                        </div>","","","","","","","","","","","","","","","","","","",""
"689","null","sub_response","html-keyboard-response","143","322329","0.0-1.0-7.0-3.0-2.21","10:08:26","2","","","","","","","<div style='text-align: center;'>
                            <span style=""color: green; font-size: 40px""><b>正确！+1 pts</b></span></div>
                            ","","learn","1","1","1","learn","0","0","[0, 1, 2]","21","7","setsize","3S3A","food","1","2","0","1",""
"null","null","fixation","html-keyboard-response","144","322831","0.0-1.0-7.0-3.0-0.22","10:08:26","2","","","","","","","fixation","","","","","","","","","","","","","","","","","","",""
"837","1","pic_response","html-keyboard-response","145","323669","0.0-1.0-7.0-3.0-1.22","10:08:26","2","","","","","","","<div>
            <img class='stim' src=""pictures/food/0.jpg""></div><div class=""button_prompt"">
                        <b>请用数字键1-3回答</b>
                        </div>","","","","","","","","","","","","","","","","","","",""
"837","null","sub_response","html-keyboard-response","146","324670","0.0-1.0-7.0-3.0-2.22","10:08:26","2","","","","","","","<div style='text-align: center;'>
                            <span style=""color: green; font-size: 40px""><b>正确！+1 pts</b></span></div>
                            ","","learn","0","0","0","learn","0","0","[0, 1, 2]","22","7","setsize","3S3A","food","1","3","0","1",""
"null","null","fixation","html-keyboard-response","147","325172","0.0-1.0-7.0-3.0-0.23","10:08:26","2","","","","","","","fixation","","","","","","","","","","","","","","","","","","",""
"703","3","pic_response","html-keyboard-response","148","325876","0.0-1.0-7.0-3.0-1.23","10:08:26","2","","","","","","","<div>
            <img class='stim' src=""pictures/food/2.jpg""></div><div class=""button_prompt"">
                        <b>请用数字键1-3回答</b>
                        </div>","","","","","","","","","","","","","","","","","","",""
"703","null","sub_response","html-keyboard-response","149","326881","0.0-1.0-7.0-3.0-2.23","10:08:26","2","","","","","","","<div style='text-align: center;'>
                            <span style=""color: green; font-size: 40px""><b>正确！+1 pts</b></span></div>
                            ","","learn","2","2","2","learn","2","2","[0, 1, 2]","23","7","setsize","3S3A","food","1","4","2","1",""
"null","null","fixation","html-keyboard-response","150","327382","0.0-1.0-7.0-3.0-0.24","10:08:26","2","","","","","","","fixation","","","","","","","","","","","","","","","","","","",""
"618","1","pic_response","html-keyboard-response","151","328001","0.0-1.0-7.0-3.0-1.24","10:08:26","2","","","","","","","<div>
            <img class='stim' src=""pictures/food/1.jpg""></div><div class=""button_prompt"">
                        <b>请用数字键1-3回答</b>
                        </div>","","","","","","","","","","","","","","","","","","",""
"618","null","sub_response","html-keyboard-response","152","329002","0.0-1.0-7.0-3.0-2.24","10:08:26","2","","","","","","","<div style='text-align: center;'>
                            <span style=""color: green; font-size: 40px""><b>正确！+1 pts</b></span></div>
                            ","","learn","1","1","1","learn","0","0","[0, 1, 2]","24","8","setsize","3S3A","food","1","5","0","1",""
"null","null","fixation","html-keyboard-response","153","329504","0.0-1.0-7.0-3.0-0.25","10:08:26","2","","","","","","","fixation","","","","","","","","","","","","","","","","","","",""
"953","3","pic_response","html-keyboard-response","154","330457","0.0-1.0-7.0-3.0-1.25","10:08:26","2","","","","","","","<div>
            <img class='stim' src=""pictures/food/2.jpg""></div><div class=""button_prompt"">
                        <b>请用数字键1-3回答</b>
                        </div>","","","","","","","","","","","","","","","","","","",""
"953","null","sub_response","html-keyboard-response","155","331460","0.0-1.0-7.0-3.0-2.25","10:08:26","2","","","","","","","<div style='text-align: center;'>
                            <span style=""color: green; font-size: 40px""><b>正确！+1 pts</b></span></div>
                            ","","learn","2","2","2","learn","2","2","[0, 1, 2]","25","8","setsize","3S3A","food","1","6","2","1",""
"null","null","fixation","html-keyboard-response","156","331961","0.0-1.0-7.0-3.0-0.26","10:08:26","2","","","","","","","fixation","","","","","","","","","","","","","","","","","","",""
"685","1","pic_response","html-keyboard-response","157","332647","0.0-1.0-7.0-3.0-1.26","10:08:26","2","","","","","","","<div>
            <img class='stim' src=""pictures/food/0.jpg""></div><div class=""button_prompt"">
                        <b>请用数字键1-3回答</b>
                        </div>","","","","","","","","","","","","","","","","","","",""
"685","null","sub_response","html-keyboard-response","158","333647","0.0-1.0-7.0-3.0-2.26","10:08:26","2","","","","","","","<div style='text-align: center;'>
                            <span style=""color: green; font-size: 40px""><b>正确！+1 pts</b></span></div>
                            ","","learn","0","0","0","learn","0","0","[0, 1, 2]","26","8","setsize","3S3A","food","1","7","0","1",""
"null","null","fixation","html-keyboard-response","159","334148","0.0-1.0-7.0-3.0-0.27","10:08:26","2","","","","","","","fixation","","","","","","","","","","","","","","","","","","",""
"894","1","pic_response","html-keyboard-response","160","335042","0.0-1.0-7.0-3.0-1.27","10:08:26","2","","","","","","","<div>
            <img class='stim' src=""pictures/food/0.jpg""></div><div class=""button_prompt"">
                        <b>请用数字键1-3回答</b>
                        </div>","","","","","","","","","","","","","","","","","","",""
"894","null","sub_response","html-keyboard-response","161","336044","0.0-1.0-7.0-3.0-2.27","10:08:26","2","","","","","","","<div style='text-align: center;'>
                            <span style=""color: green; font-size: 40px""><b>正确！+1 pts</b></span></div>
                            ","","learn","0","0","0","learn","0","0","[0, 1, 2]","27","9","setsize","3S3A","food","1","8","0","1",""
"null","null","fixation","html-keyboard-response","162","336545","0.0-1.0-7.0-3.0-0.28","10:08:26","2","","","","","","","fixation","","","","","","","","","","","","","","","","","","",""
"1238","1","pic_response","html-keyboard-response","163","337783","0.0-1.0-7.0-3.0-1.28","10:08:26","2","","","","","","","<div>
            <img class='stim' src=""pictures/food/1.jpg""></div><div class=""button_prompt"">
                        <b>请用数字键1-3回答</b>
                        </div>","","","","","","","","","","","","","","","","","","",""
"1238","null","sub_response","html-keyboard-response","164","338785","0.0-1.0-7.0-3.0-2.28","10:08:26","2","","","","","","","<div style='text-align: center;'>
                            <span style=""color: green; font-size: 40px""><b>正确！+1 pts</b></span></div>
                            ","","learn","1","1","1","learn","0","0","[0, 1, 2]","28","9","setsize","3S3A","food","1","9","0","1",""
"null","null","fixation","html-keyboard-response","165","339286","0.0-1.0-7.0-3.0-0.29","10:08:26","2","","","","","","","fixation","","","","","","","","","","","","","","","","","","",""
"545","3","pic_response","html-keyboard-response","166","339832","0.0-1.0-7.0-3.0-1.29","10:08:26","2","","","","","","","<div>
            <img class='stim' src=""pictures/food/2.jpg""></div><div class=""button_prompt"">
                        <b>请用数字键1-3回答</b>
                        </div>","","","","","","","","","","","","","","","","","","",""
"545","null","sub_response","html-keyboard-response","167","340832","0.0-1.0-7.0-3.0-2.29","10:08:26","2","","","","","","","<div style='text-align: center;'>
                            <span style=""color: green; font-size: 40px""><b>正确！+1 pts</b></span></div>
                            ","","learn","2","2","2","learn","2","2","[0, 1, 2]","29","9","setsize","3S3A","food","1","10","2","1",""
"null","null","fixation","html-keyboard-response","168","341334","0.0-1.0-7.0-3.0-0.30","10:08:26","2","","","","","","","fixation","","","","","","","","","","","","","","","","","","",""
"615","1","pic_response","html-keyboard-response","169","341949","0.0-1.0-7.0-3.0-1.30","10:08:26","2","","","","","","","<div>
            <img class='stim' src=""pictures/food/0.jpg""></div><div class=""button_prompt"">
                        <b>请用数字键1-3回答</b>
                        </div>","","","","","","","","","","","","","","","","","","",""
"615","null","sub_response","html-keyboard-response","170","342950","0.0-1.0-7.0-3.0-2.30","10:08:26","2","","","","","","","<div style='text-align: center;'>
                            <span style=""color: green; font-size: 40px""><b>正确！+1 pts</b></span></div>
                            ","","learn","0","0","0","learn","0","0","[0, 1, 2]","30","10","setsize","3S3A","food","1","11","0","1",""
"null","null","fixation","html-keyboard-response","171","343451","0.0-1.0-7.0-3.0-0.31","10:08:26","2","","","","","","","fixation","","","","","","","","","","","","","","","","","","",""
"581","3","pic_response","html-keyboard-response","172","344033","0.0-1.0-7.0-3.0-1.31","10:08:26","2","","","","","","","<div>
            <img class='stim' src=""pictures/food/2.jpg""></div><div class=""button_prompt"">
                        <b>请用数字键1-3回答</b>
                        </div>","","","","","","","","","","","","","","","","","","",""
"581","null","sub_response","html-keyboard-response","173","345034","0.0-1.0-7.0-3.0-2.31","10:08:26","2","","","","","","","<div style='text-align: center;'>
                            <span style=""color: green; font-size: 40px""><b>正确！+1 pts</b></span></div>
                            ","","learn","2","2","2","learn","2","2","[0, 1, 2]","31","10","setsize","3S3A","food","1","12","2","1",""
"null","null","fixation","html-keyboard-response","174","345536","0.0-1.0-7.0-3.0-0.32","10:08:26","2","","","","","","","fixation","","","","","","","","","","","","","","","","","","",""
"789","1","pic_response","html-keyboard-response","175","346325","0.0-1.0-7.0-3.0-1.32","10:08:26","2","","","","","","","<div>
            <img class='stim' src=""pictures/food/1.jpg""></div><div class=""button_prompt"">
                        <b>请用数字键1-3回答</b>
                        </div>","","","","","","","","","","","","","","","","","","",""
"789","null","sub_response","html-keyboard-response","176","347326","0.0-1.0-7.0-3.0-2.32","10:08:26","2","","","","","","","<div style='text-align: center;'>
                            <span style=""color: green; font-size: 40px""><b>正确！+1 pts</b></span></div>
                            ","","learn","1","1","1","learn","0","0","[0, 1, 2]","32","10","setsize","3S3A","food","1","13","0","1",""
"null","null","fixation","html-keyboard-response","177","347828","0.0-1.0-7.0-3.0-0.33","10:08:26","2","","","","","","","fixation","","","","","","","","","","","","","","","","","","",""
"783","1","pic_response","html-keyboard-response","178","348611","0.0-1.0-7.0-3.0-1.33","10:08:26","2","","","","","","","<div>
            <img class='stim' src=""pictures/food/1.jpg""></div><div class=""button_prompt"">
                        <b>请用数字键1-3回答</b>
                        </div>","","","","","","","","","","","","","","","","","","",""
"783","null","sub_response","html-keyboard-response","179","349612","0.0-1.0-7.0-3.0-2.33","10:08:26","2","","","","","","","<div style='text-align: center;'>
                            <span style=""color: green; font-size: 40px""><b>正确！+1 pts</b></span></div>
                            ","","learn","1","1","1","learn","0","0","[0, 1, 2]","33","11","setsize","3S3A","food","1","14","0","1",""
"null","null","fixation","html-keyboard-response","180","350114","0.0-1.0-7.0-3.0-0.34","10:08:26","2","","","","","","","fixation","","","","","","","","","","","","","","","","","","",""
"559","3","pic_response","html-keyboard-response","181","350673","0.0-1.0-7.0-3.0-1.34","10:08:26","2","","","","","","","<div>
            <img class='stim' src=""pictures/food/2.jpg""></div><div class=""button_prompt"">
                        <b>请用数字键1-3回答</b>
                        </div>","","","","","","","","","","","","","","","","","","",""
"559","null","sub_response","html-keyboard-response","182","351675","0.0-1.0-7.0-3.0-2.34","10:08:26","2","","","","","","","<div style='text-align: center;'>
                            <span style=""color: green; font-size: 40px""><b>正确！+1 pts</b></span></div>
                            ","","learn","2","2","2","learn","2","2","[0, 1, 2]","34","11","setsize","3S3A","food","1","15","2","1",""
"null","null","fixation","html-keyboard-response","183","352177","0.0-1.0-7.0-3.0-0.35","10:08:26","2","","","","","","","fixation","","","","","","","","","","","","","","","","","","",""
"991","1","pic_response","html-keyboard-response","184","353168","0.0-1.0-7.0-3.0-1.35","10:08:26","2","","","","","","","<div>
            <img class='stim' src=""pictures/food/0.jpg""></div><div class=""button_prompt"">
                        <b>请用数字键1-3回答</b>
                        </div>","","","","","","","","","","","","","","","","","","",""
"991","null","sub_response","html-keyboard-response","185","354169","0.0-1.0-7.0-3.0-2.35","10:08:26","2","","","","","","","<div style='text-align: center;'>
                            <span style=""color: green; font-size: 40px""><b>正确！+1 pts</b></span></div>
                            ","","learn","0","0","0","learn","0","0","[0, 1, 2]","35","11","setsize","3S3A","food","1","16","0","1",""
"null","null","fixation","html-keyboard-response","186","354670","0.0-1.0-7.0-3.0-0.36","10:08:26","2","","","","","","","fixation","","","","","","","","","","","","","","","","","","",""
"655","3","pic_response","html-keyboard-response","187","355326","0.0-1.0-7.0-3.0-1.36","10:08:26","2","","","","","","","<div>
            <img class='stim' src=""pictures/food/2.jpg""></div><div class=""button_prompt"">
                        <b>请用数字键1-3回答</b>
                        </div>","","","","","","","","","","","","","","","","","","",""
"655","null","sub_response","html-keyboard-response","188","356327","0.0-1.0-7.0-3.0-2.36","10:08:26","2","","","","","","","<div style='text-align: center;'>
                            <span style=""color: green; font-size: 40px""><b>正确！+1 pts</b></span></div>
                            ","","learn","2","2","2","learn","2","2","[0, 1, 2]","36","12","setsize","3S3A","food","1","17","2","1",""
"null","null","fixation","html-keyboard-response","189","356828","0.0-1.0-7.0-3.0-0.37","10:08:26","2","","","","","","","fixation","","","","","","","","","","","","","","","","","","",""
"572","1","pic_response","html-keyboard-response","190","357402","0.0-1.0-7.0-3.0-1.37","10:08:26","2","","","","","","","<div>
            <img class='stim' src=""pictures/food/0.jpg""></div><div class=""button_prompt"">
                        <b>请用数字键1-3回答</b>
                        </div>","","","","","","","","","","","","","","","","","","",""
"572","null","sub_response","html-keyboard-response","191","358403","0.0-1.0-7.0-3.0-2.37","10:08:26","2","","","","","","","<div style='text-align: center;'>
                            <span style=""color: green; font-size: 40px""><b>正确！+1 pts</b></span></div>
                            ","","learn","0","0","0","learn","0","0","[0, 1, 2]","37","12","setsize","3S3A","food","1","18","0","1",""
"null","null","fixation","html-keyboard-response","192","358904","0.0-1.0-7.0-3.0-0.38","10:08:26","2","","","","","","","fixation","","","","","","","","","","","","","","","","","","",""
"562","1","pic_response","html-keyboard-response","193","359466","0.0-1.0-7.0-3.0-1.38","10:08:26","2","","","","","","","<div>
            <img class='stim' src=""pictures/food/1.jpg""></div><div class=""button_prompt"">
                        <b>请用数字键1-3回答</b>
                        </div>","","","","","","","","","","","","","","","","","","",""
"562","null","sub_response","html-keyboard-response","194","360467","0.0-1.0-7.0-3.0-2.38","10:08:26","2","","","","","","","<div style='text-align: center;'>
                            <span style=""color: green; font-size: 40px""><b>正确！+1 pts</b></span></div>
                            ","","learn","1","1","1","learn","0","0","[0, 1, 2]","38","12","setsize","3S3A","food","1","19","0","1",""
"null","null","fixation","html-keyboard-response","195","360969","0.0-1.0-7.0-3.0-0.39","10:08:26","2","","","","","","","fixation","","","","","","","","","","","","","","","","","","",""
"1970","3","pic_response","html-keyboard-response","196","362939","0.0-1.0-7.0-3.0-1.39","10:08:26","2","","","","","","","<div>
            <img class='stim' src=""pictures/food/0.jpg""></div><div class=""button_prompt"">
                        <b>请用数字键1-3回答</b>
                        </div>","","","","","","","","","","","","","","","","","","",""
"1970","null","sub_response","html-keyboard-response","197","363940","0.0-1.0-7.0-3.0-2.39","10:08:26","2","","","","","","","<div style='text-align: center;'>
                            <span style=""color: red; font-size: 40px""><b>错误！+0 pts</b></span></div>
                            ","","learn","0","0","0","learn","0","0","[0, 1, 2]","39","13","setsize","3S3A","food","1","0","2","0",""
"null","null","fixation","html-keyboard-response","198","364441","0.0-1.0-7.0-3.0-0.40","10:08:26","2","","","","","","","fixation","","","","","","","","","","","","","","","","","","",""
"687","3","pic_response","html-keyboard-response","199","365129","0.0-1.0-7.0-3.0-1.40","10:08:26","2","","","","","","","<div>
            <img class='stim' src=""pictures/food/2.jpg""></div><div class=""button_prompt"">
                        <b>请用数字键1-3回答</b>
                        </div>","","","","","","","","","","","","","","","","","","",""
"687","null","sub_response","html-keyboard-response","200","366130","0.0-1.0-7.0-3.0-2.40","10:08:26","2","","","","","","","<div style='text-align: center;'>
                            <span style=""color: green; font-size: 40px""><b>正确！+1 pts</b></span></div>
                            ","","learn","2","2","2","learn","2","2","[0, 1, 2]","40","13","setsize","3S3A","food","1","1","2","1",""
"null","null","fixation","html-keyboard-response","201","366643","0.0-1.0-7.0-3.0-0.41","10:08:26","2","","","","","","","fixation","","","","","","","","","","","","","","","","","","",""
"438","1","pic_response","html-keyboard-response","202","367082","0.0-1.0-7.0-3.0-1.41","10:08:26","2","","","","","","","<div>
            <img class='stim' src=""pictures/food/1.jpg""></div><div class=""button_prompt"">
                        <b>请用数字键1-3回答</b>
                        </div>","","","","","","","","","","","","","","","","","","",""
"438","null","sub_response","html-keyboard-response","203","368083","0.0-1.0-7.0-3.0-2.41","10:08:26","2","","","","","","","<div style='text-align: center;'>
                            <span style=""color: green; font-size: 40px""><b>正确！+1 pts</b></span></div>
                            ","","learn","1","1","1","learn","0","0","[0, 1, 2]","41","13","setsize","3S3A","food","1","2","0","1",""
"null","null","fixation","html-keyboard-response","204","368584","0.0-1.0-7.0-3.0-0.42","10:08:26","2","","","","","","","fixation","","","","","","","","","","","","","","","","","","",""
"622","1","pic_response","html-keyboard-response","205","369206","0.0-1.0-7.0-3.0-1.42","10:08:26","2","","","","","","","<div>
            <img class='stim' src=""pictures/food/1.jpg""></div><div class=""button_prompt"">
                        <b>请用数字键1-3回答</b>
                        </div>","","","","","","","","","","","","","","","","","","",""
"622","null","sub_response","html-keyboard-response","206","370208","0.0-1.0-7.0-3.0-2.42","10:08:26","2","","","","","","","<div style='text-align: center;'>
                            <span style=""color: green; font-size: 40px""><b>正确！+1 pts</b></span></div>
                            ","","learn","1","1","1","learn","0","0","[0, 1, 2]","42","14","setsize","3S3A","food","1","3","0","1",""
"null","null","fixation","html-keyboard-response","207","370709","0.0-1.0-7.0-3.0-0.43","10:08:26","2","","","","","","","fixation","","","","","","","","","","","","","","","","","","",""
"364","1","pic_response","html-keyboard-response","208","371074","0.0-1.0-7.0-3.0-1.43","10:08:26","2","","","","","","","<div>
            <img class='stim' src=""pictures/food/0.jpg""></div><div class=""button_prompt"">
                        <b>请用数字键1-3回答</b>
                        </div>","","","","","","","","","","","","","","","","","","",""
"364","null","sub_response","html-keyboard-response","209","372075","0.0-1.0-7.0-3.0-2.43","10:08:26","2","","","","","","","<div style='text-align: center;'>
                            <span style=""color: green; font-size: 40px""><b>正确！+1 pts</b></span></div>
                            ","","learn","0","0","0","learn","0","0","[0, 1, 2]","43","14","setsize","3S3A","food","1","4","0","1",""
"null","null","fixation","html-keyboard-response","210","372577","0.0-1.0-7.0-3.0-0.44","10:08:26","2","","","","","","","fixation","","","","","","","","","","","","","","","","","","",""
"657","3","pic_response","html-keyboard-response","211","373235","0.0-1.0-7.0-3.0-1.44","10:08:26","2","","","","","","","<div>
            <img class='stim' src=""pictures/food/2.jpg""></div><div class=""button_prompt"">
                        <b>请用数字键1-3回答</b>
                        </div>","","","","","","","","","","","","","","","","","","",""
"657","null","sub_response","html-keyboard-response","212","374236","0.0-1.0-7.0-3.0-2.44","10:08:26","2","","","","","","","<div style='text-align: center;'>
                            <span style=""color: green; font-size: 40px""><b>正确！+1 pts</b></span></div>
                            ","","learn","2","2","2","learn","2","2","[0, 1, 2]","44","14","setsize","3S3A","food","1","5","2","1",""
"null","null","fixation","html-keyboard-response","213","374738","0.0-1.0-7.0-3.0-0.45","10:08:26","2","","","","","","","fixation","","","","","","","","","","","","","","","","","","",""
"593","1","pic_response","html-keyboard-response","214","375332","0.0-1.0-7.0-3.0-1.45","10:08:26","2","","","","","","","<div>
            <img class='stim' src=""pictures/food/1.jpg""></div><div class=""button_prompt"">
                        <b>请用数字键1-3回答</b>
                        </div>","","","","","","","","","","","","","","","","","","",""
"593","null","sub_response","html-keyboard-response","215","376334","0.0-1.0-7.0-3.0-2.45","10:08:26","2","","","","","","","<div style='text-align: center;'>
                            <span style=""color: green; font-size: 40px""><b>正确！+1 pts</b></span></div>
                            ","","learn","1","1","1","learn","0","0","[0, 1, 2]","45","15","setsize","3S3A","food","1","6","0","1",""
"null","null","fixation","html-keyboard-response","216","376835","0.0-1.0-7.0-3.0-0.46","10:08:26","2","","","","","","","fixation","","","","","","","","","","","","","","","","","","",""
"1080","1","pic_response","html-keyboard-response","217","377916","0.0-1.0-7.0-3.0-1.46","10:08:26","2","","","","","","","<div>
            <img class='stim' src=""pictures/food/0.jpg""></div><div class=""button_prompt"">
                        <b>请用数字键1-3回答</b>
                        </div>","","","","","","","","","","","","","","","","","","",""
"1080","null","sub_response","html-keyboard-response","218","378917","0.0-1.0-7.0-3.0-2.46","10:08:26","2","","","","","","","<div style='text-align: center;'>
                            <span style=""color: green; font-size: 40px""><b>正确！+1 pts</b></span></div>
                            ","","learn","0","0","0","learn","0","0","[0, 1, 2]","46","15","setsize","3S3A","food","1","7","0","1",""
"null","null","fixation","html-keyboard-response","219","379432","0.0-1.0-7.0-3.0-0.47","10:08:26","2","","","","","","","fixation","","","","","","","","","","","","","","","","","","",""
"752","3","pic_response","html-keyboard-response","220","380185","0.0-1.0-7.0-3.0-1.47","10:08:26","2","","","","","","","<div>
            <img class='stim' src=""pictures/food/2.jpg""></div><div class=""button_prompt"">
                        <b>请用数字键1-3回答</b>
                        </div>","","","","","","","","","","","","","","","","","","",""
"752","null","sub_response","html-keyboard-response","221","381187","0.0-1.0-7.0-3.0-2.47","10:08:26","2","","","","","","","<div style='text-align: center;'>
                            <span style=""color: green; font-size: 40px""><b>正确！+1 pts</b></span></div>
                            ","","learn","2","2","2","learn","2","2","[0, 1, 2]","47","15","setsize","3S3A","food","1","8","2","1",""
"null","null","fixation","html-keyboard-response","222","381687","0.0-1.0-7.0-3.0-0.48","10:08:26","2","","","","","","","fixation","","","","","","","","","","","","","","","","","","",""
"516","3","pic_response","html-keyboard-response","223","382205","0.0-1.0-7.0-3.0-1.48","10:08:26","2","","","","","","","<div>
            <img class='stim' src=""pictures/food/2.jpg""></div><div class=""button_prompt"">
                        <b>请用数字键1-3回答</b>
                        </div>","","","","","","","","","","","","","","","","","","",""
"516","null","sub_response","html-keyboard-response","224","383206","0.0-1.0-7.0-3.0-2.48","10:08:26","2","","","","","","","<div style='text-align: center;'>
                            <span style=""color: green; font-size: 40px""><b>正确！+1 pts</b></span></div>
                            ","","learn","2","2","2","learn","2","2","[0, 1, 2]","48","16","setsize","3S3A","food","1","9","2","1",""
"1922"," ","","html-keyboard-response","225","385129","0.0-1.0-8.0","10:08:26","2","","","","","","","<div style=""font-size: 25px""><p>距下一个实验开始还有</p><div style=""font-size: 50px; color: blue""><p><span id=""clock"">1:00</span></div></p><p>按""空格""跳过休息</p></div>","","","","","","","","","","","","","","","","","","",""
"","","","preload","226","385288","0.0-1.0-9.0-0.0","10:08:26","2","true","false","[]","[]","[]","","","","","","","","","","","","","","","","","","","","",""
"1922"," ","","html-keyboard-response","227","387210","0.0-1.0-9.0-1.0","10:08:26","2","","","","","","","<div style='font-size: 32px; text-align: center;'
                    <p>请学习图片和数字之间的对应关系</p>
                    <p>我们将<span style='color: blue'><b> 告诉 </b></span>您选择的对错。请根据反馈学习。</p>
                    <p>请按""空格""继续实验。</p></div>","","","","","","","","","","","","","","","","","","",""
"6288"," ","inst","html-keyboard-response","228","393498","0.0-1.0-9.0-2.0","10:08:26","2","","","","","","","<img class='instruct_stim' src=""instruction/sports3.PNG""></div>","","","","","","","","","","","","","","","","","","",""
"null","null","fixation","html-keyboard-response","229","394002","0.0-1.0-9.0-3.0-0.0","10:08:26","2","","","","","","","fixation","","","","","","","","","","","","","","","","","","",""
"476","1","pic_response","html-keyboard-response","230","394479","0.0-1.0-9.0-3.0-1.0","10:08:26","2","","","","","","","<div>
            <img class='stim' src=""pictures/sports/1.jpg""></div><div class=""button_prompt"">
                    <b>请用数字键0-9回答</b>
                    </div>","","","","","","","","","","","","","","","","","","",""
"476","null","sub_response","html-keyboard-response","231","395480","0.0-1.0-9.0-3.0-2.0","10:08:26","2","","","","","","","<div style='text-align: center;'>
                            <span style=""color: red; font-size: 40px""><b>错误！+0 pts</b></span></div>
                            ","","learn","1","1","1","learn","6","6","[0, 1, 2, 3, 4, 5, 6, 7, 8, 9]","0","0","setsize","3S10A","sports","2","0","0","0",""
"null","null","fixation","html-keyboard-response","232","395983","0.0-1.0-9.0-3.0-0.1","10:08:26","2","","","","","","","fixation","","","","","","","","","","","","","","","","","","",""
"327","1","pic_response","html-keyboard-response","233","396311","0.0-1.0-9.0-3.0-1.1","10:08:26","2","","","","","","","<div>
            <img class='stim' src=""pictures/sports/0.jpg""></div><div class=""button_prompt"">
                    <b>请用数字键0-9回答</b>
                    </div>","","","","","","","","","","","","","","","","","","",""
"327","null","sub_response","html-keyboard-response","234","397312","0.0-1.0-9.0-3.0-2.1","10:08:26","2","","","","","","","<div style='text-align: center;'>
                            <span style=""color: red; font-size: 40px""><b>错误！+0 pts</b></span></div>
                            ","","learn","0","0","0","learn","2","2","[0, 1, 2, 3, 4, 5, 6, 7, 8, 9]","1","0","setsize","3S10A","sports","2","0","0","0",""
"null","null","fixation","html-keyboard-response","235","397814","0.0-1.0-9.0-3.0-0.2","10:08:26","2","","","","","","","fixation","","","","","","","","","","","","","","","","","","",""
"517","1","pic_response","html-keyboard-response","236","398331","0.0-1.0-9.0-3.0-1.2","10:08:26","2","","","","","","","<div>
            <img class='stim' src=""pictures/sports/2.jpg""></div><div class=""button_prompt"">
                    <b>请用数字键0-9回答</b>
                    </div>","","","","","","","","","","","","","","","","","","",""
"517","null","sub_response","html-keyboard-response","237","399332","0.0-1.0-9.0-3.0-2.2","10:08:26","2","","","","","","","<div style='text-align: center;'>
                            <span style=""color: red; font-size: 40px""><b>错误！+0 pts</b></span></div>
                            ","","learn","2","2","2","learn","9","9","[0, 1, 2, 3, 4, 5, 6, 7, 8, 9]","2","0","setsize","3S10A","sports","2","0","0","0",""
"null","null","fixation","html-keyboard-response","238","399846","0.0-1.0-9.0-3.0-0.3","10:08:26","2","","","","","","","fixation","","","","","","","","","","","","","","","","","","",""
"985","2","pic_response","html-keyboard-response","239","400831","0.0-1.0-9.0-3.0-1.3","10:08:26","2","","","","","","","<div>
            <img class='stim' src=""pictures/sports/2.jpg""></div><div class=""button_prompt"">
                    <b>请用数字键0-9回答</b>
                    </div>","","","","","","","","","","","","","","","","","","",""
"985","null","sub_response","html-keyboard-response","240","401832","0.0-1.0-9.0-3.0-2.3","10:08:26","2","","","","","","","<div style='text-align: center;'>
                            <span style=""color: red; font-size: 40px""><b>错误！+0 pts</b></span></div>
                            ","","learn","2","2","2","learn","9","9","[0, 1, 2, 3, 4, 5, 6, 7, 8, 9]","3","1","setsize","3S10A","sports","2","0","1","0",""
"null","null","fixation","html-keyboard-response","241","402334","0.0-1.0-9.0-3.0-0.4","10:08:26","2","","","","","","","fixation","","","","","","","","","","","","","","","","","","",""
"768","2","pic_response","html-keyboard-response","242","403103","0.0-1.0-9.0-3.0-1.4","10:08:26","2","","","","","","","<div>
            <img class='stim' src=""pictures/sports/1.jpg""></div><div class=""button_prompt"">
                    <b>请用数字键0-9回答</b>
                    </div>","","","","","","","","","","","","","","","","","","",""
"768","null","sub_response","html-keyboard-response","243","404104","0.0-1.0-9.0-3.0-2.4","10:08:26","2","","","","","","","<div style='text-align: center;'>
                            <span style=""color: red; font-size: 40px""><b>错误！+0 pts</b></span></div>
                            ","","learn","1","1","1","learn","6","6","[0, 1, 2, 3, 4, 5, 6, 7, 8, 9]","4","1","setsize","3S10A","sports","2","0","1","0",""
"null","null","fixation","html-keyboard-response","244","404606","0.0-1.0-9.0-3.0-0.5","10:08:26","2","","","","","","","fixation","","","","","","","","","","","","","","","","","","",""
"825","2","pic_response","html-keyboard-response","245","405432","0.0-1.0-9.0-3.0-1.5","10:08:26","2","","","","","","","<div>
            <img class='stim' src=""pictures/sports/0.jpg""></div><div class=""button_prompt"">
                    <b>请用数字键0-9回答</b>
                    </div>","","","","","","","","","","","","","","","","","","",""
"825","null","sub_response","html-keyboard-response","246","406433","0.0-1.0-9.0-3.0-2.5","10:08:26","2","","","","","","","<div style='text-align: center;'>
                            <span style=""color: red; font-size: 40px""><b>错误！+0 pts</b></span></div>
                            ","","learn","0","0","0","learn","2","2","[0, 1, 2, 3, 4, 5, 6, 7, 8, 9]","5","1","setsize","3S10A","sports","2","0","1","0",""
"null","null","fixation","html-keyboard-response","247","406934","0.0-1.0-9.0-3.0-0.6","10:08:26","2","","","","","","","fixation","","","","","","","","","","","","","","","","","","",""
"491","3","pic_response","html-keyboard-response","248","407426","0.0-1.0-9.0-3.0-1.6","10:08:26","2","","","","","","","<div>
            <img class='stim' src=""pictures/sports/0.jpg""></div><div class=""button_prompt"">
                    <b>请用数字键0-9回答</b>
                    </div>","","","","","","","","","","","","","","","","","","",""
"491","null","sub_response","html-keyboard-response","249","408427","0.0-1.0-9.0-3.0-2.6","10:08:26","2","","","","","","","<div style='text-align: center;'>
                            <span style=""color: green; font-size: 40px""><b>正确！+1 pts</b></span></div>
                            ","","learn","0","0","0","learn","2","2","[0, 1, 2, 3, 4, 5, 6, 7, 8, 9]","6","2","setsize","3S10A","sports","2","1","2","1",""
"null","null","fixation","html-keyboard-response","250","408929","0.0-1.0-9.0-3.0-0.7","10:08:26","2","","","","","","","fixation","","","","","","","","","","","","","","","","","","",""
"288","3","pic_response","html-keyboard-response","251","409218","0.0-1.0-9.0-3.0-1.7","10:08:26","2","","","","","","","<div>
            <img class='stim' src=""pictures/sports/1.jpg""></div><div class=""button_prompt"">
                    <b>请用数字键0-9回答</b>
                    </div>","","","","","","","","","","","","","","","","","","",""
"288","null","sub_response","html-keyboard-response","252","410220","0.0-1.0-9.0-3.0-2.7","10:08:26","2","","","","","","","<div style='text-align: center;'>
                            <span style=""color: red; font-size: 40px""><b>错误！+0 pts</b></span></div>
                            ","","learn","1","1","1","learn","6","6","[0, 1, 2, 3, 4, 5, 6, 7, 8, 9]","7","2","setsize","3S10A","sports","2","0","2","0",""
"null","null","fixation","html-keyboard-response","253","410721","0.0-1.0-9.0-3.0-0.8","10:08:26","2","","","","","","","fixation","","","","","","","","","","","","","","","","","","",""
"577","3","pic_response","html-keyboard-response","254","411299","0.0-1.0-9.0-3.0-1.8","10:08:26","2","","","","","","","<div>
            <img class='stim' src=""pictures/sports/2.jpg""></div><div class=""button_prompt"">
                    <b>请用数字键0-9回答</b>
                    </div>","","","","","","","","","","","","","","","","","","",""
"577","null","sub_response","html-keyboard-response","255","412302","0.0-1.0-9.0-3.0-2.8","10:08:26","2","","","","","","","<div style='text-align: center;'>
                            <span style=""color: red; font-size: 40px""><b>错误！+0 pts</b></span></div>
                            ","","learn","2","2","2","learn","9","9","[0, 1, 2, 3, 4, 5, 6, 7, 8, 9]","8","2","setsize","3S10A","sports","2","0","2","0",""
"null","null","fixation","html-keyboard-response","256","412804","0.0-1.0-9.0-3.0-0.9","10:08:26","2","","","","","","","fixation","","","","","","","","","","","","","","","","","","",""
"1202","3","pic_response","html-keyboard-response","257","414006","0.0-1.0-9.0-3.0-1.9","10:08:26","2","","","","","","","<div>
            <img class='stim' src=""pictures/sports/1.jpg""></div><div class=""button_prompt"">
                    <b>请用数字键0-9回答</b>
                    </div>","","","","","","","","","","","","","","","","","","",""
"1202","null","sub_response","html-keyboard-response","258","415007","0.0-1.0-9.0-3.0-2.9","10:08:26","2","","","","","","","<div style='text-align: center;'>
                            <span style=""color: red; font-size: 40px""><b>错误！+0 pts</b></span></div>
                            ","","learn","1","1","1","learn","6","6","[0, 1, 2, 3, 4, 5, 6, 7, 8, 9]","9","3","setsize","3S10A","sports","2","0","2","0",""
"null","null","fixation","html-keyboard-response","259","415508","0.0-1.0-9.0-3.0-0.10","10:08:26","2","","","","","","","fixation","","","","","","","","","","","","","","","","","","",""
"638","3","pic_response","html-keyboard-response","260","416147","0.0-1.0-9.0-3.0-1.10","10:08:26","2","","","","","","","<div>
            <img class='stim' src=""pictures/sports/0.jpg""></div><div class=""button_prompt"">
                    <b>请用数字键0-9回答</b>
                    </div>","","","","","","","","","","","","","","","","","","",""
"638","null","sub_response","html-keyboard-response","261","417148","0.0-1.0-9.0-3.0-2.10","10:08:26","2","","","","","","","<div style='text-align: center;'>
                            <span style=""color: green; font-size: 40px""><b>正确！+1 pts</b></span></div>
                            ","","learn","0","0","0","learn","2","2","[0, 1, 2, 3, 4, 5, 6, 7, 8, 9]","10","3","setsize","3S10A","sports","2","1","2","1",""
"null","null","fixation","html-keyboard-response","262","417649","0.0-1.0-9.0-3.0-0.11","10:08:26","2","","","","","","","fixation","","","","","","","","","","","","","","","","","","",""
"679","2","pic_response","html-keyboard-response","263","418328","0.0-1.0-9.0-3.0-1.11","10:08:26","2","","","","","","","<div>
            <img class='stim' src=""pictures/sports/2.jpg""></div><div class=""button_prompt"">
                    <b>请用数字键0-9回答</b>
                    </div>","","","","","","","","","","","","","","","","","","",""
"679","null","sub_response","html-keyboard-response","264","419330","0.0-1.0-9.0-3.0-2.11","10:08:26","2","","","","","","","<div style='text-align: center;'>
                            <span style=""color: red; font-size: 40px""><b>错误！+0 pts</b></span></div>
                            ","","learn","2","2","2","learn","9","9","[0, 1, 2, 3, 4, 5, 6, 7, 8, 9]","11","3","setsize","3S10A","sports","2","0","1","0",""
"null","null","fixation","html-keyboard-response","265","419831","0.0-1.0-9.0-3.0-0.12","10:08:26","2","","","","","","","fixation","","","","","","","","","","","","","","","","","","",""
"711","1","pic_response","html-keyboard-response","266","420542","0.0-1.0-9.0-3.0-1.12","10:08:26","2","","","","","","","<div>
            <img class='stim' src=""pictures/sports/2.jpg""></div><div class=""button_prompt"">
                    <b>请用数字键0-9回答</b>
                    </div>","","","","","","","","","","","","","","","","","","",""
"711","null","sub_response","html-keyboard-response","267","421543","0.0-1.0-9.0-3.0-2.12","10:08:26","2","","","","","","","<div style='text-align: center;'>
                            <span style=""color: red; font-size: 40px""><b>错误！+0 pts</b></span></div>
                            ","","learn","2","2","2","learn","9","9","[0, 1, 2, 3, 4, 5, 6, 7, 8, 9]","12","4","setsize","3S10A","sports","2","0","0","0",""
"null","null","fixation","html-keyboard-response","268","422044","0.0-1.0-9.0-3.0-0.13","10:08:26","2","","","","","","","fixation","","","","","","","","","","","","","","","","","","",""
"null","null","pic_response","html-keyboard-response","269","425045","0.0-1.0-9.0-3.0-1.13","10:08:26","2","","","","","","","<div>
            <img class='stim' src=""pictures/sports/1.jpg""></div><div class=""button_prompt"">
                    <b>请用数字键0-9回答</b>
                    </div>","","","","","","","","","","","","","","","","","","",""
"null","null","sub_response","html-keyboard-response","270","426047","0.0-1.0-9.0-3.0-2.13","10:08:26","2","","","","","","","<div style='text-align: center;'>
                            <span style=""color: red; font-size: 40px""><b>错误！+0 pts</b></span></div>
                            ","","learn","1","1","1","learn","6","6","[0, 1, 2, 3, 4, 5, 6, 7, 8, 9]","13","4","setsize","3S10A","sports","2","0","999","0",""
"null","null","fixation","html-keyboard-response","271","426548","0.0-1.0-9.0-3.0-0.14","10:08:26","2","","","","","","","fixation","","","","","","","","","","","","","","","","","","",""
"1441","4","pic_response","html-keyboard-response","272","427990","0.0-1.0-9.0-3.0-1.14","10:08:26","2","","","","","","","<div>
            <img class='stim' src=""pictures/sports/0.jpg""></div><div class=""button_prompt"">
                    <b>请用数字键0-9回答</b>
                    </div>","","","","","","","","","","","","","","","","","","",""
"1441","null","sub_response","html-keyboard-response","273","428991","0.0-1.0-9.0-3.0-2.14","10:08:26","2","","","","","","","<div style='text-align: center;'>
                            <span style=""color: red; font-size: 40px""><b>错误！+0 pts</b></span></div>
                            ","","learn","0","0","0","learn","2","2","[0, 1, 2, 3, 4, 5, 6, 7, 8, 9]","14","4","setsize","3S10A","sports","2","0","3","0",""
"null","null","fixation","html-keyboard-response","274","429493","0.0-1.0-9.0-3.0-0.15","10:08:26","2","","","","","","","fixation","","","","","","","","","","","","","","","","","","",""
"815","5","pic_response","html-keyboard-response","275","430309","0.0-1.0-9.0-3.0-1.15","10:08:26","2","","","","","","","<div>
            <img class='stim' src=""pictures/sports/2.jpg""></div><div class=""button_prompt"">
                    <b>请用数字键0-9回答</b>
                    </div>","","","","","","","","","","","","","","","","","","",""
"815","null","sub_response","html-keyboard-response","276","431310","0.0-1.0-9.0-3.0-2.15","10:08:26","2","","","","","","","<div style='text-align: center;'>
                            <span style=""color: red; font-size: 40px""><b>错误！+0 pts</b></span></div>
                            ","","learn","2","2","2","learn","9","9","[0, 1, 2, 3, 4, 5, 6, 7, 8, 9]","15","5","setsize","3S10A","sports","2","0","4","0",""
"null","null","fixation","html-keyboard-response","277","431811","0.0-1.0-9.0-3.0-0.16","10:08:26","2","","","","","","","fixation","","","","","","","","","","","","","","","","","","",""
"1516","3","pic_response","html-keyboard-response","278","433328","0.0-1.0-9.0-3.0-1.16","10:08:26","2","","","","","","","<div>
            <img class='stim' src=""pictures/sports/0.jpg""></div><div class=""button_prompt"">
                    <b>请用数字键0-9回答</b>
                    </div>","","","","","","","","","","","","","","","","","","",""
"1516","null","sub_response","html-keyboard-response","279","434330","0.0-1.0-9.0-3.0-2.16","10:08:26","2","","","","","","","<div style='text-align: center;'>
                            <span style=""color: green; font-size: 40px""><b>正确！+1 pts</b></span></div>
                            ","","learn","0","0","0","learn","2","2","[0, 1, 2, 3, 4, 5, 6, 7, 8, 9]","16","5","setsize","3S10A","sports","2","1","2","1",""
"null","null","fixation","html-keyboard-response","280","434831","0.0-1.0-9.0-3.0-0.17","10:08:26","2","","","","","","","fixation","","","","","","","","","","","","","","","","","","",""
"1184","4","pic_response","html-keyboard-response","281","436016","0.0-1.0-9.0-3.0-1.17","10:08:26","2","","","","","","","<div>
            <img class='stim' src=""pictures/sports/1.jpg""></div><div class=""button_prompt"">
                    <b>请用数字键0-9回答</b>
                    </div>","","","","","","","","","","","","","","","","","","",""
"1184","null","sub_response","html-keyboard-response","282","437017","0.0-1.0-9.0-3.0-2.17","10:08:26","2","","","","","","","<div style='text-align: center;'>
                            <span style=""color: red; font-size: 40px""><b>错误！+0 pts</b></span></div>
                            ","","learn","1","1","1","learn","6","6","[0, 1, 2, 3, 4, 5, 6, 7, 8, 9]","17","5","setsize","3S10A","sports","2","0","3","0",""
"null","null","fixation","html-keyboard-response","283","437519","0.0-1.0-9.0-3.0-0.18","10:08:26","2","","","","","","","fixation","","","","","","","","","","","","","","","","","","",""
"1214","6","pic_response","html-keyboard-response","284","438733","0.0-1.0-9.0-3.0-1.18","10:08:26","2","","","","","","","<div>
            <img class='stim' src=""pictures/sports/2.jpg""></div><div class=""button_prompt"">
                    <b>请用数字键0-9回答</b>
                    </div>","","","","","","","","","","","","","","","","","","",""
"1214","null","sub_response","html-keyboard-response","285","439734","0.0-1.0-9.0-3.0-2.18","10:08:26","2","","","","","","","<div style='text-align: center;'>
                            <span style=""color: red; font-size: 40px""><b>错误！+0 pts</b></span></div>
                            ","","learn","2","2","2","learn","9","9","[0, 1, 2, 3, 4, 5, 6, 7, 8, 9]","18","6","setsize","3S10A","sports","2","0","5","0",""
"null","null","fixation","html-keyboard-response","286","440235","0.0-1.0-9.0-3.0-0.19","10:08:26","2","","","","","","","fixation","","","","","","","","","","","","","","","","","","",""
"1429","3","pic_response","html-keyboard-response","287","441665","0.0-1.0-9.0-3.0-1.19","10:08:26","2","","","","","","","<div>
            <img class='stim' src=""pictures/sports/0.jpg""></div><div class=""button_prompt"">
                    <b>请用数字键0-9回答</b>
                    </div>","","","","","","","","","","","","","","","","","","",""
"1429","null","sub_response","html-keyboard-response","288","442666","0.0-1.0-9.0-3.0-2.19","10:08:26","2","","","","","","","<div style='text-align: center;'>
                            <span style=""color: green; font-size: 40px""><b>正确！+1 pts</b></span></div>
                            ","","learn","0","0","0","learn","2","2","[0, 1, 2, 3, 4, 5, 6, 7, 8, 9]","19","6","setsize","3S10A","sports","2","1","2","1",""
"null","null","fixation","html-keyboard-response","289","443167","0.0-1.0-9.0-3.0-0.20","10:08:26","2","","","","","","","fixation","","","","","","","","","","","","","","","","","","",""
"458","7","pic_response","html-keyboard-response","290","443626","0.0-1.0-9.0-3.0-1.20","10:08:26","2","","","","","","","<div>
            <img class='stim' src=""pictures/sports/1.jpg""></div><div class=""button_prompt"">
                    <b>请用数字键0-9回答</b>
                    </div>","","","","","","","","","","","","","","","","","","",""
"458","null","sub_response","html-keyboard-response","291","444627","0.0-1.0-9.0-3.0-2.20","10:08:26","2","","","","","","","<div style='text-align: center;'>
                            <span style=""color: green; font-size: 40px""><b>正确！+1 pts</b></span></div>
                            ","","learn","1","1","1","learn","6","6","[0, 1, 2, 3, 4, 5, 6, 7, 8, 9]","20","6","setsize","3S10A","sports","2","2","6","1",""
"null","null","fixation","html-keyboard-response","292","445128","0.0-1.0-9.0-3.0-0.21","10:08:26","2","","","","","","","fixation","","","","","","","","","","","","","","","","","","",""
"1197","9","pic_response","html-keyboard-response","293","446326","0.0-1.0-9.0-3.0-1.21","10:08:26","2","","","","","","","<div>
            <img class='stim' src=""pictures/sports/2.jpg""></div><div class=""button_prompt"">
                    <b>请用数字键0-9回答</b>
                    </div>","","","","","","","","","","","","","","","","","","",""
"1197","null","sub_response","html-keyboard-response","294","447328","0.0-1.0-9.0-3.0-2.21","10:08:26","2","","","","","","","<div style='text-align: center;'>
                            <span style=""color: red; font-size: 40px""><b>错误！+0 pts</b></span></div>
                            ","","learn","2","2","2","learn","9","9","[0, 1, 2, 3, 4, 5, 6, 7, 8, 9]","21","7","setsize","3S10A","sports","2","0","8","0",""
"null","null","fixation","html-keyboard-response","295","447829","0.0-1.0-9.0-3.0-0.22","10:08:26","2","","","","","","","fixation","","","","","","","","","","","","","","","","","","",""
"999","3","pic_response","html-keyboard-response","296","448829","0.0-1.0-9.0-3.0-1.22","10:08:26","2","","","","","","","<div>
            <img class='stim' src=""pictures/sports/0.jpg""></div><div class=""button_prompt"">
                    <b>请用数字键0-9回答</b>
                    </div>","","","","","","","","","","","","","","","","","","",""
"999","null","sub_response","html-keyboard-response","297","449830","0.0-1.0-9.0-3.0-2.22","10:08:26","2","","","","","","","<div style='text-align: center;'>
                            <span style=""color: green; font-size: 40px""><b>正确！+1 pts</b></span></div>
                            ","","learn","0","0","0","learn","2","2","[0, 1, 2, 3, 4, 5, 6, 7, 8, 9]","22","7","setsize","3S10A","sports","2","1","2","1",""
"null","null","fixation","html-keyboard-response","298","450330","0.0-1.0-9.0-3.0-0.23","10:08:26","2","","","","","","","fixation","","","","","","","","","","","","","","","","","","",""
"602","7","pic_response","html-keyboard-response","299","450933","0.0-1.0-9.0-3.0-1.23","10:08:26","2","","","","","","","<div>
            <img class='stim' src=""pictures/sports/1.jpg""></div><div class=""button_prompt"">
                    <b>请用数字键0-9回答</b>
                    </div>","","","","","","","","","","","","","","","","","","",""
"602","null","sub_response","html-keyboard-response","300","451934","0.0-1.0-9.0-3.0-2.23","10:08:26","2","","","","","","","<div style='text-align: center;'>
                            <span style=""color: green; font-size: 40px""><b>正确！+1 pts</b></span></div>
                            ","","learn","1","1","1","learn","6","6","[0, 1, 2, 3, 4, 5, 6, 7, 8, 9]","23","7","setsize","3S10A","sports","2","2","6","1",""
"null","null","fixation","html-keyboard-response","301","452436","0.0-1.0-9.0-3.0-0.24","10:08:26","2","","","","","","","fixation","","","","","","","","","","","","","","","","","","",""
"634","8","pic_response","html-keyboard-response","302","453071","0.0-1.0-9.0-3.0-1.24","10:08:26","2","","","","","","","<div>
            <img class='stim' src=""pictures/sports/2.jpg""></div><div class=""button_prompt"">
                    <b>请用数字键0-9回答</b>
                    </div>","","","","","","","","","","","","","","","","","","",""
"634","null","sub_response","html-keyboard-response","303","454073","0.0-1.0-9.0-3.0-2.24","10:08:26","2","","","","","","","<div style='text-align: center;'>
                            <span style=""color: red; font-size: 40px""><b>错误！+0 pts</b></span></div>
                            ","","learn","2","2","2","learn","9","9","[0, 1, 2, 3, 4, 5, 6, 7, 8, 9]","24","8","setsize","3S10A","sports","2","0","7","0",""
"null","null","fixation","html-keyboard-response","304","454575","0.0-1.0-9.0-3.0-0.25","10:08:26","2","","","","","","","fixation","","","","","","","","","","","","","","","","","","",""
"670","3","pic_response","html-keyboard-response","305","455246","0.0-1.0-9.0-3.0-1.25","10:08:26","2","","","","","","","<div>
            <img class='stim' src=""pictures/sports/0.jpg""></div><div class=""button_prompt"">
                    <b>请用数字键0-9回答</b>
                    </div>","","","","","","","","","","","","","","","","","","",""
"670","null","sub_response","html-keyboard-response","306","456247","0.0-1.0-9.0-3.0-2.25","10:08:26","2","","","","","","","<div style='text-align: center;'>
                            <span style=""color: green; font-size: 40px""><b>正确！+1 pts</b></span></div>
                            ","","learn","0","0","0","learn","2","2","[0, 1, 2, 3, 4, 5, 6, 7, 8, 9]","25","8","setsize","3S10A","sports","2","1","2","1",""
"null","null","fixation","html-keyboard-response","307","456749","0.0-1.0-9.0-3.0-0.26","10:08:26","2","","","","","","","fixation","","","","","","","","","","","","","","","","","","",""
"418","7","pic_response","html-keyboard-response","308","457167","0.0-1.0-9.0-3.0-1.26","10:08:26","2","","","","","","","<div>
            <img class='stim' src=""pictures/sports/1.jpg""></div><div class=""button_prompt"">
                    <b>请用数字键0-9回答</b>
                    </div>","","","","","","","","","","","","","","","","","","",""
"418","null","sub_response","html-keyboard-response","309","458168","0.0-1.0-9.0-3.0-2.26","10:08:26","2","","","","","","","<div style='text-align: center;'>
                            <span style=""color: green; font-size: 40px""><b>正确！+1 pts</b></span></div>
                            ","","learn","1","1","1","learn","6","6","[0, 1, 2, 3, 4, 5, 6, 7, 8, 9]","26","8","setsize","3S10A","sports","2","2","6","1",""
"null","null","fixation","html-keyboard-response","310","458669","0.0-1.0-9.0-3.0-0.27","10:08:26","2","","","","","","","fixation","","","","","","","","","","","","","","","","","","",""
"371","6","pic_response","html-keyboard-response","311","459041","0.0-1.0-9.0-3.0-1.27","10:08:26","2","","","","","","","<div>
            <img class='stim' src=""pictures/sports/1.jpg""></div><div class=""button_prompt"">
                    <b>请用数字键0-9回答</b>
                    </div>","","","","","","","","","","","","","","","","","","",""
"371","null","sub_response","html-keyboard-response","312","460042","0.0-1.0-9.0-3.0-2.27","10:08:26","2","","","","","","","<div style='text-align: center;'>
                            <span style=""color: red; font-size: 40px""><b>错误！+0 pts</b></span></div>
                            ","","learn","1","1","1","learn","6","6","[0, 1, 2, 3, 4, 5, 6, 7, 8, 9]","27","9","setsize","3S10A","sports","2","0","5","0",""
"null","null","fixation","html-keyboard-response","313","460544","0.0-1.0-9.0-3.0-0.28","10:08:26","2","","","","","","","fixation","","","","","","","","","","","","","","","","","","",""
"1009","3","pic_response","html-keyboard-response","314","461553","0.0-1.0-9.0-3.0-1.28","10:08:26","2","","","","","","","<div>
            <img class='stim' src=""pictures/sports/0.jpg""></div><div class=""button_prompt"">
                    <b>请用数字键0-9回答</b>
                    </div>","","","","","","","","","","","","","","","","","","",""
"1009","null","sub_response","html-keyboard-response","315","462554","0.0-1.0-9.0-3.0-2.28","10:08:26","2","","","","","","","<div style='text-align: center;'>
                            <span style=""color: green; font-size: 40px""><b>正确！+1 pts</b></span></div>
                            ","","learn","0","0","0","learn","2","2","[0, 1, 2, 3, 4, 5, 6, 7, 8, 9]","28","9","setsize","3S10A","sports","2","1","2","1",""
"null","null","fixation","html-keyboard-response","316","463055","0.0-1.0-9.0-3.0-0.29","10:08:26","2","","","","","","","fixation","","","","","","","","","","","","","","","","","","",""
"467","6","pic_response","html-keyboard-response","317","463522","0.0-1.0-9.0-3.0-1.29","10:08:26","2","","","","","","","<div>
            <img class='stim' src=""pictures/sports/2.jpg""></div><div class=""button_prompt"">
                    <b>请用数字键0-9回答</b>
                    </div>","","","","","","","","","","","","","","","","","","",""
"467","null","sub_response","html-keyboard-response","318","464523","0.0-1.0-9.0-3.0-2.29","10:08:26","2","","","","","","","<div style='text-align: center;'>
                            <span style=""color: red; font-size: 40px""><b>错误！+0 pts</b></span></div>
                            ","","learn","2","2","2","learn","9","9","[0, 1, 2, 3, 4, 5, 6, 7, 8, 9]","29","9","setsize","3S10A","sports","2","0","5","0",""
"null","null","fixation","html-keyboard-response","319","465024","0.0-1.0-9.0-3.0-0.30","10:08:26","2","","","","","","","fixation","","","","","","","","","","","","","","","","","","",""
"857","7","pic_response","html-keyboard-response","320","465882","0.0-1.0-9.0-3.0-1.30","10:08:26","2","","","","","","","<div>
            <img class='stim' src=""pictures/sports/2.jpg""></div><div class=""button_prompt"">
                    <b>请用数字键0-9回答</b>
                    </div>","","","","","","","","","","","","","","","","","","",""
"857","null","sub_response","html-keyboard-response","321","466884","0.0-1.0-9.0-3.0-2.30","10:08:26","2","","","","","","","<div style='text-align: center;'>
                            <span style=""color: red; font-size: 40px""><b>错误！+0 pts</b></span></div>
                            ","","learn","2","2","2","learn","9","9","[0, 1, 2, 3, 4, 5, 6, 7, 8, 9]","30","10","setsize","3S10A","sports","2","0","6","0",""
"null","null","fixation","html-keyboard-response","322","467386","0.0-1.0-9.0-3.0-0.31","10:08:26","2","","","","","","","fixation","","","","","","","","","","","","","","","","","","",""
