"rt","response","screen_id","trial_type","trial_index","time_elapsed","internal_node_id","start_time","n_Prac","success","timeout","failed_images","failed_audio","failed_video","view_history","stimulus","question_order","stage","s","word","word_id","phase","a_cor","a_real","a_ava","trial","tps","task_type","block_typ","pic_typ","block_id","cum_r","a","r","plugin_name"
"103893","{""sub_id"":""023"",""task_type"":""task1"",""name"":""柳哲旭"",""gender"":""M""}","basic_info","survey-html-form","0","103896","0.0-0.0","12:32:31","2","","","","","","","","","","","","","","","","","","","","","","","","","",""
"","","","preload","1","105635","0.0-1.0-0.0","12:32:31","2","true","false","[]","[]","[]","","","","","","","","","","","","","","","","","","","","",""
"","","","preload","2","105934","0.0-1.0-1.0","12:32:31","2","true","false","[]","[]","[]","","","","","","","","","","","","","","","","","","","","",""
"","","","fullscreen","3","115965","0.0-1.0-2.0","12:32:31","2","true","","","","","","","","","","","","","","","","","","","","","","","","",""
"48054","","instruct","instructions","4","164021","0.0-1.0-3.0-0.0","12:32:31","2","","","","","","[{""page_index"":0,""viewing_time"":31705},{""page_index"":1,""viewing_time"":8854},{""page_index"":2,""viewing_time"":7494}]","","","","","","","","","","","","","","","","","","","",""
"90772","{""Q0"":"""",""task1"":""<span style='font-size: 24px'>学习图片和数字的对应关系</span>"",""task2"":""<span style='font-size: 24px'> 图片下方标注为可用的数字键（数字键1-3或0-9） </span>"",""task3"":""<span style='font-size: 24px'> 看到图片选出正确对应的数字 </span>""}","question","survey-multi-choice","5","254795","0.0-1.0-3.0-1.0","12:32:31","2","","","","","","","","[0,1,2,3]","","","","","","","","","","","","","","","","","",""
"1697"," ","inst_q","html-keyboard-response","6","256495","0.0-1.0-3.0-2.0","12:32:31","2","","","","","","","inst","","1","","","","","","","","","","","","","","","","",""
"","","","preload","7","257031","0.0-1.0-4.0-0.0","12:32:31","2","true","false","[]","[]","[]","","","","","","","","","","","","","","","","","","","","",""
"3101"," ","","html-keyboard-response","8","260133","0.0-1.0-4.0-1.0","12:32:31","2","","","","","","","<div style='font-size: 32px; text-align: center;'
                    <p>请学习图片和数字之间的对应关系</p>
                    <p>我们将<span style='color: blue'><b> 告诉 </b></span>您选择的对错。请根据反馈学习。</p>
                    <p>请按""空格""继续实验。</p></div>","","","","","","","","","","","","","","","","","","",""
"2080"," ","inst","html-keyboard-response","9","262213","0.0-1.0-4.0-2.0","12:32:31","2","","","","","","","<img class='instruct_stim' src=""instruction/prac3.PNG""></div>","","","","","","","","","","","","","","","","","","",""
"null","null","fixation","html-keyboard-response","10","262716","0.0-1.0-4.0-3.0-0.0","12:32:31","2","","","","","","","fixation","","","","","","","","","","","","","","","","","","",""
"1541","1","pic_response","html-keyboard-response","11","264260","0.0-1.0-4.0-3.0-1.0","12:32:31","2","","","","","","","<div>
            <img class='stim' src=""pictures/prac/0.jpg""></div><div class=""button_prompt"">
                        <b>请用数字键1-3回答</b>
                        </div>","","","","","","","","","","","","","","","","","","",""
"1541","null","sub_response","html-keyboard-response","12","265262","0.0-1.0-4.0-3.0-2.0","12:32:31","2","","","","","","","<div style='text-align: center;'>
                            <span style=""color: green; font-size: 40px""><b>正确！+1 pts</b></span></div>
                            ","","learn","0","0","0","learn","0","0","[0, 1, 2]","0","0","setsize","99","prac","0","1","0","1",""
"null","null","fixation","html-keyboard-response","13","265765","0.0-1.0-4.0-3.0-0.1","12:32:31","2","","","","","","","fixation","","","","","","","","","","","","","","","","","","",""
"615","2","pic_response","html-keyboard-response","14","266381","0.0-1.0-4.0-3.0-1.1","12:32:31","2","","","","","","","<div>
            <img class='stim' src=""pictures/prac/1.jpg""></div><div class=""button_prompt"">
                        <b>请用数字键1-3回答</b>
                        </div>","","","","","","","","","","","","","","","","","","",""
"615","null","sub_response","html-keyboard-response","15","267383","0.0-1.0-4.0-3.0-2.1","12:32:31","2","","","","","","","<div style='text-align: center;'>
                            <span style=""color: red; font-size: 40px""><b>错误！+0 pts</b></span></div>
                            ","","learn","1","1","1","learn","0","0","[0, 1, 2]","1","0","setsize","99","prac","0","0","1","0",""
"null","null","fixation","html-keyboard-response","16","267885","0.0-1.0-4.0-3.0-0.2","12:32:31","2","","","","","","","fixation","","","","","","","","","","","","","","","","","","",""
"1344","2","pic_response","html-keyboard-response","17","269230","0.0-1.0-4.0-3.0-1.2","12:32:31","2","","","","","","","<div>
            <img class='stim' src=""pictures/prac/2.jpg""></div><div class=""button_prompt"">
                        <b>请用数字键1-3回答</b>
                        </div>","","","","","","","","","","","","","","","","","","",""
"1344","null","sub_response","html-keyboard-response","18","270231","0.0-1.0-4.0-3.0-2.2","12:32:31","2","","","","","","","<div style='text-align: center;'>
                            <span style=""color: red; font-size: 40px""><b>错误！+0 pts</b></span></div>
                            ","","learn","2","2","2","learn","2","2","[0, 1, 2]","2","0","setsize","99","prac","0","0","1","0",""
"null","null","fixation","html-keyboard-response","19","270733","0.0-1.0-4.0-3.0-0.3","12:32:31","2","","","","","","","fixation","","","","","","","","","","","","","","","","","","",""
"1704","1","pic_response","html-keyboard-response","20","272438","0.0-1.0-4.0-3.0-1.3","12:32:31","2","","","","","","","<div>
            <img class='stim' src=""pictures/prac/1.jpg""></div><div class=""button_prompt"">
                        <b>请用数字键1-3回答</b>
                        </div>","","","","","","","","","","","","","","","","","","",""
"1704","null","sub_response","html-keyboard-response","21","273440","0.0-1.0-4.0-3.0-2.3","12:32:31","2","","","","","","","<div style='text-align: center;'>
                            <span style=""color: green; font-size: 40px""><b>正确！+1 pts</b></span></div>
                            ","","learn","1","1","1","learn","0","0","[0, 1, 2]","3","1","setsize","99","prac","0","1","0","1",""
"null","null","fixation","html-keyboard-response","22","273942","0.0-1.0-4.0-3.0-0.4","12:32:31","2","","","","","","","fixation","","","","","","","","","","","","","","","","","","",""
"888","1","pic_response","html-keyboard-response","23","274830","0.0-1.0-4.0-3.0-1.4","12:32:31","2","","","","","","","<div>
            <img class='stim' src=""pictures/prac/0.jpg""></div><div class=""button_prompt"">
                        <b>请用数字键1-3回答</b>
                        </div>","","","","","","","","","","","","","","","","","","",""
"888","null","sub_response","html-keyboard-response","24","275832","0.0-1.0-4.0-3.0-2.4","12:32:31","2","","","","","","","<div style='text-align: center;'>
                            <span style=""color: green; font-size: 40px""><b>正确！+1 pts</b></span></div>
                            ","","learn","0","0","0","learn","0","0","[0, 1, 2]","4","1","setsize","99","prac","0","2","0","1",""
"null","null","fixation","html-keyboard-response","25","276333","0.0-1.0-4.0-3.0-0.5","12:32:31","2","","","","","","","fixation","","","","","","","","","","","","","","","","","","",""
"1407","3","pic_response","html-keyboard-response","26","277742","0.0-1.0-4.0-3.0-1.5","12:32:31","2","","","","","","","<div>
            <img class='stim' src=""pictures/prac/2.jpg""></div><div class=""button_prompt"">
                        <b>请用数字键1-3回答</b>
                        </div>","","","","","","","","","","","","","","","","","","",""
"1407","null","sub_response","html-keyboard-response","27","278743","0.0-1.0-4.0-3.0-2.5","12:32:31","2","","","","","","","<div style='text-align: center;'>
                            <span style=""color: green; font-size: 40px""><b>正确！+1 pts</b></span></div>
                            ","","learn","2","2","2","learn","2","2","[0, 1, 2]","5","1","setsize","99","prac","0","3","2","1",""
"","","","preload","28","278746","0.0-1.0-4.1-0.1","12:32:31","2","true","false","[]","[]","[]","","","","","","","","","","","","","","","","","","","","",""
"2387"," ","","html-keyboard-response","29","281133","0.0-1.0-4.1-1.1","12:32:31","2","","","","","","","<div style='font-size: 32px; text-align: center;'
                    <p>请学习图片和数字之间的对应关系</p>
                    <p>我们将<span style='color: blue'><b> 告诉 </b></span>您选择的对错。请根据反馈学习。</p>
                    <p>请按""空格""继续实验。</p></div>","","","","","","","","","","","","","","","","","","",""
"25399"," ","inst","html-keyboard-response","30","306533","0.0-1.0-4.1-2.1","12:32:31","2","","","","","","","<img class='instruct_stim' src=""instruction/prac3.PNG""></div>","","","","","","","","","","","","","","","","","","",""
"null","null","fixation","html-keyboard-response","31","307034","0.0-1.0-4.1-3.1-0.6","12:32:31","2","","","","","","","fixation","","","","","","","","","","","","","","","","","","",""
"1395","1","pic_response","html-keyboard-response","32","308430","0.0-1.0-4.1-3.1-1.6","12:32:31","2","","","","","","","<div>
            <img class='stim' src=""pictures/prac/0.jpg""></div><div class=""button_prompt"">
                        <b>请用数字键1-3回答</b>
                        </div>","","","","","","","","","","","","","","","","","","",""
"1395","null","sub_response","html-keyboard-response","33","309431","0.0-1.0-4.1-3.1-2.6","12:32:31","2","","","","","","","<div style='text-align: center;'>
                            <span style=""color: green; font-size: 40px""><b>正确！+1 pts</b></span></div>
                            ","","learn","0","0","0","learn","0","0","[0, 1, 2]","0","0","setsize","99","prac","0","4","0","1",""
"null","null","fixation","html-keyboard-response","34","309933","0.0-1.0-4.1-3.1-0.7","12:32:31","2","","","","","","","fixation","","","","","","","","","","","","","","","","","","",""
"1071","1","pic_response","html-keyboard-response","35","311005","0.0-1.0-4.1-3.1-1.7","12:32:31","2","","","","","","","<div>
            <img class='stim' src=""pictures/prac/1.jpg""></div><div class=""button_prompt"">
                        <b>请用数字键1-3回答</b>
                        </div>","","","","","","","","","","","","","","","","","","",""
"1071","null","sub_response","html-keyboard-response","36","312007","0.0-1.0-4.1-3.1-2.7","12:32:31","2","","","","","","","<div style='text-align: center;'>
                            <span style=""color: green; font-size: 40px""><b>正确！+1 pts</b></span></div>
                            ","","learn","1","1","1","learn","0","0","[0, 1, 2]","1","0","setsize","99","prac","0","5","0","1",""
"null","null","fixation","html-keyboard-response","37","312507","0.0-1.0-4.1-3.1-0.8","12:32:31","2","","","","","","","fixation","","","","","","","","","","","","","","","","","","",""
"417","2","pic_response","html-keyboard-response","38","312925","0.0-1.0-4.1-3.1-1.8","12:32:31","2","","","","","","","<div>
            <img class='stim' src=""pictures/prac/2.jpg""></div><div class=""button_prompt"">
                        <b>请用数字键1-3回答</b>
                        </div>","","","","","","","","","","","","","","","","","","",""
"417","null","sub_response","html-keyboard-response","39","313926","0.0-1.0-4.1-3.1-2.8","12:32:31","2","","","","","","","<div style='text-align: center;'>
                            <span style=""color: red; font-size: 40px""><b>错误！+0 pts</b></span></div>
                            ","","learn","2","2","2","learn","2","2","[0, 1, 2]","2","0","setsize","99","prac","0","0","1","0",""
"null","null","fixation","html-keyboard-response","40","314427","0.0-1.0-4.1-3.1-0.9","12:32:31","2","","","","","","","fixation","","","","","","","","","","","","","","","","","","",""
"633","1","pic_response","html-keyboard-response","41","315061","0.0-1.0-4.1-3.1-1.9","12:32:31","2","","","","","","","<div>
            <img class='stim' src=""pictures/prac/1.jpg""></div><div class=""button_prompt"">
                        <b>请用数字键1-3回答</b>
                        </div>","","","","","","","","","","","","","","","","","","",""
"633","null","sub_response","html-keyboard-response","42","316063","0.0-1.0-4.1-3.1-2.9","12:32:31","2","","","","","","","<div style='text-align: center;'>
                            <span style=""color: green; font-size: 40px""><b>正确！+1 pts</b></span></div>
                            ","","learn","1","1","1","learn","0","0","[0, 1, 2]","3","1","setsize","99","prac","0","1","0","1",""
"null","null","fixation","html-keyboard-response","43","316565","0.0-1.0-4.1-3.1-0.10","12:32:31","2","","","","","","","fixation","","","","","","","","","","","","","","","","","","",""
"639","1","pic_response","html-keyboard-response","44","317205","0.0-1.0-4.1-3.1-1.10","12:32:31","2","","","","","","","<div>
            <img class='stim' src=""pictures/prac/0.jpg""></div><div class=""button_prompt"">
                        <b>请用数字键1-3回答</b>
                        </div>","","","","","","","","","","","","","","","","","","",""
"639","null","sub_response","html-keyboard-response","45","318206","0.0-1.0-4.1-3.1-2.10","12:32:31","2","","","","","","","<div style='text-align: center;'>
                            <span style=""color: green; font-size: 40px""><b>正确！+1 pts</b></span></div>
                            ","","learn","0","0","0","learn","0","0","[0, 1, 2]","4","1","setsize","99","prac","0","2","0","1",""
"null","null","fixation","html-keyboard-response","46","318708","0.0-1.0-4.1-3.1-0.11","12:32:31","2","","","","","","","fixation","","","","","","","","","","","","","","","","","","",""
"579","3","pic_response","html-keyboard-response","47","319287","0.0-1.0-4.1-3.1-1.11","12:32:31","2","","","","","","","<div>
            <img class='stim' src=""pictures/prac/2.jpg""></div><div class=""button_prompt"">
                        <b>请用数字键1-3回答</b>
                        </div>","","","","","","","","","","","","","","","","","","",""
"579","null","sub_response","html-keyboard-response","48","320288","0.0-1.0-4.1-3.1-2.11","12:32:31","2","","","","","","","<div style='text-align: center;'>
                            <span style=""color: green; font-size: 40px""><b>正确！+1 pts</b></span></div>
                            ","","learn","2","2","2","learn","2","2","[0, 1, 2]","5","1","setsize","99","prac","0","3","2","1",""
"null","null","","html-keyboard-response","49","380291","0.0-1.0-5.0","12:32:31","2","","","","","","","<div style=""font-size: 25px""><p>距下一个实验开始还有</p><div style=""font-size: 50px; color: blue""><p><span id=""clock"">1:00</span></div></p><p>按""空格""跳过休息</p></div>","","","","","","","","","","","","","","","","","","",""
"27050"," ","","html-keyboard-response","50","407342","0.0-1.0-6.0","12:32:31","2","","","","","","","<div style='font-size: 32px; text-align: center;'
                    <p>请按""空格""继续正式实验。</p></div>","","","","","","","","","","","","","","","","","","",""
"","","","preload","51","408137","0.0-1.0-7.0-0.0","12:32:31","2","true","false","[]","[]","[]","","","","","","","","","","","","","","","","","","","","",""
"702"," ","","html-keyboard-response","52","408840","0.0-1.0-7.0-1.0","12:32:31","2","","","","","","","<div style='font-size: 32px; text-align: center;'
                    <p>请学习图片和数字之间的对应关系</p>
                    <p>我们将<span style='color: blue'><b> 告诉 </b></span>您选择的对错。请根据反馈学习。</p>
                    <p>请按""空格""继续实验。</p></div>","","","","","","","","","","","","","","","","","","",""
"6270"," ","inst","html-keyboard-response","53","415110","0.0-1.0-7.0-2.0","12:32:31","2","","","","","","","<img class='instruct_stim' src=""instruction/animals10.PNG""></div>","","","","","","","","","","","","","","","","","","",""
"null","null","fixation","html-keyboard-response","54","415611","0.0-1.0-7.0-3.0-0.0","12:32:31","2","","","","","","","fixation","","","","","","","","","","","","","","","","","","",""
"2218","1","pic_response","html-keyboard-response","55","417830","0.0-1.0-7.0-3.0-1.0","12:32:31","2","","","","","","","<div>
            <img class='stim' src=""pictures/animals/4.jpg""></div><div class=""button_prompt"">
                    <b>请用数字键0-9回答</b>
                    </div>","","","","","","","","","","","","","","","","","","",""
"2218","null","sub_response","html-keyboard-response","56","418832","0.0-1.0-7.0-3.0-2.0","12:32:31","2","","","","","","","<div style='text-align: center;'>
                            <span style=""color: red; font-size: 40px""><b>错误！+0 pts</b></span></div>
                            ","","learn","4","4","4","learn","4","4","[0, 1, 2, 3, 4, 5, 6, 7, 8, 9]","0","0","setsize","10S10A","animals","1","0","0","0",""
"null","null","fixation","html-keyboard-response","57","419333","0.0-1.0-7.0-3.0-0.1","12:32:31","2","","","","","","","fixation","","","","","","","","","","","","","","","","","","",""
"1023","1","pic_response","html-keyboard-response","58","420357","0.0-1.0-7.0-3.0-1.1","12:32:31","2","","","","","","","<div>
            <img class='stim' src=""pictures/animals/0.jpg""></div><div class=""button_prompt"">
                    <b>请用数字键0-9回答</b>
                    </div>","","","","","","","","","","","","","","","","","","",""
"1023","null","sub_response","html-keyboard-response","59","421359","0.0-1.0-7.0-3.0-2.1","12:32:31","2","","","","","","","<div style='text-align: center;'>
                            <span style=""color: green; font-size: 40px""><b>正确！+1 pts</b></span></div>
                            ","","learn","0","0","0","learn","0","0","[0, 1, 2, 3, 4, 5, 6, 7, 8, 9]","1","0","setsize","10S10A","animals","1","1","0","1",""
"null","null","fixation","html-keyboard-response","60","421861","0.0-1.0-7.0-3.0-0.2","12:32:31","2","","","","","","","fixation","","","","","","","","","","","","","","","","","","",""
"1351","2","pic_response","html-keyboard-response","61","423213","0.0-1.0-7.0-3.0-1.2","12:32:31","2","","","","","","","<div>
            <img class='stim' src=""pictures/animals/3.jpg""></div><div class=""button_prompt"">
                    <b>请用数字键0-9回答</b>
                    </div>","","","","","","","","","","","","","","","","","","",""
"1351","null","sub_response","html-keyboard-response","62","424214","0.0-1.0-7.0-3.0-2.2","12:32:31","2","","","","","","","<div style='text-align: center;'>
                            <span style=""color: red; font-size: 40px""><b>错误！+0 pts</b></span></div>
                            ","","learn","3","3","3","learn","3","3","[0, 1, 2, 3, 4, 5, 6, 7, 8, 9]","2","0","setsize","10S10A","animals","1","0","1","0",""
"null","null","fixation","html-keyboard-response","63","424715","0.0-1.0-7.0-3.0-0.3","12:32:31","2","","","","","","","fixation","","","","","","","","","","","","","","","","","","",""
"1105","2","pic_response","html-keyboard-response","64","425822","0.0-1.0-7.0-3.0-1.3","12:32:31","2","","","","","","","<div>
            <img class='stim' src=""pictures/animals/8.jpg""></div><div class=""button_prompt"">
                    <b>请用数字键0-9回答</b>
                    </div>","","","","","","","","","","","","","","","","","","",""
"1105","null","sub_response","html-keyboard-response","65","426823","0.0-1.0-7.0-3.0-2.3","12:32:31","2","","","","","","","<div style='text-align: center;'>
                            <span style=""color: red; font-size: 40px""><b>错误！+0 pts</b></span></div>
                            ","","learn","8","8","8","learn","8","8","[0, 1, 2, 3, 4, 5, 6, 7, 8, 9]","3","0","setsize","10S10A","animals","1","0","1","0",""
"null","null","fixation","html-keyboard-response","66","427325","0.0-1.0-7.0-3.0-0.4","12:32:31","2","","","","","","","fixation","","","","","","","","","","","","","","","","","","",""
"1640","3","pic_response","html-keyboard-response","67","428966","0.0-1.0-7.0-3.0-1.4","12:32:31","2","","","","","","","<div>
            <img class='stim' src=""pictures/animals/1.jpg""></div><div class=""button_prompt"">
                    <b>请用数字键0-9回答</b>
                    </div>","","","","","","","","","","","","","","","","","","",""
"1640","null","sub_response","html-keyboard-response","68","429968","0.0-1.0-7.0-3.0-2.4","12:32:31","2","","","","","","","<div style='text-align: center;'>
                            <span style=""color: red; font-size: 40px""><b>错误！+0 pts</b></span></div>
                            ","","learn","1","1","1","learn","1","1","[0, 1, 2, 3, 4, 5, 6, 7, 8, 9]","4","0","setsize","10S10A","animals","1","0","2","0",""
"null","null","fixation","html-keyboard-response","69","430469","0.0-1.0-7.0-3.0-0.5","12:32:31","2","","","","","","","fixation","","","","","","","","","","","","","","","","","","",""
"1008","2","pic_response","html-keyboard-response","70","431477","0.0-1.0-7.0-3.0-1.5","12:32:31","2","","","","","","","<div>
            <img class='stim' src=""pictures/animals/7.jpg""></div><div class=""button_prompt"">
                    <b>请用数字键0-9回答</b>
                    </div>","","","","","","","","","","","","","","","","","","",""
"1008","null","sub_response","html-keyboard-response","71","432479","0.0-1.0-7.0-3.0-2.5","12:32:31","2","","","","","","","<div style='text-align: center;'>
                            <span style=""color: red; font-size: 40px""><b>错误！+0 pts</b></span></div>
                            ","","learn","7","7","7","learn","7","7","[0, 1, 2, 3, 4, 5, 6, 7, 8, 9]","5","0","setsize","10S10A","animals","1","0","1","0",""
"null","null","fixation","html-keyboard-response","72","432980","0.0-1.0-7.0-3.0-0.6","12:32:31","2","","","","","","","fixation","","","","","","","","","","","","","","","","","","",""
"784","4","pic_response","html-keyboard-response","73","433764","0.0-1.0-7.0-3.0-1.6","12:32:31","2","","","","","","","<div>
            <img class='stim' src=""pictures/animals/5.jpg""></div><div class=""button_prompt"">
                    <b>请用数字键0-9回答</b>
                    </div>","","","","","","","","","","","","","","","","","","",""
"784","null","sub_response","html-keyboard-response","74","434766","0.0-1.0-7.0-3.0-2.6","12:32:31","2","","","","","","","<div style='text-align: center;'>
                            <span style=""color: red; font-size: 40px""><b>错误！+0 pts</b></span></div>
                            ","","learn","5","5","5","learn","5","5","[0, 1, 2, 3, 4, 5, 6, 7, 8, 9]","6","0","setsize","10S10A","animals","1","0","3","0",""
"null","null","fixation","html-keyboard-response","75","435267","0.0-1.0-7.0-3.0-0.7","12:32:31","2","","","","","","","fixation","","","","","","","","","","","","","","","","","","",""
"1112","2","pic_response","html-keyboard-response","76","436381","0.0-1.0-7.0-3.0-1.7","12:32:31","2","","","","","","","<div>
            <img class='stim' src=""pictures/animals/2.jpg""></div><div class=""button_prompt"">
                    <b>请用数字键0-9回答</b>
                    </div>","","","","","","","","","","","","","","","","","","",""
"1112","null","sub_response","html-keyboard-response","77","437382","0.0-1.0-7.0-3.0-2.7","12:32:31","2","","","","","","","<div style='text-align: center;'>
                            <span style=""color: red; font-size: 40px""><b>错误！+0 pts</b></span></div>
                            ","","learn","2","2","2","learn","2","2","[0, 1, 2, 3, 4, 5, 6, 7, 8, 9]","7","0","setsize","10S10A","animals","1","0","1","0",""
"null","null","fixation","html-keyboard-response","78","437883","0.0-1.0-7.0-3.0-0.8","12:32:31","2","","","","","","","fixation","","","","","","","","","","","","","","","","","","",""
"1564","0","pic_response","html-keyboard-response","79","439448","0.0-1.0-7.0-3.0-1.8","12:32:31","2","","","","","","","<div>
            <img class='stim' src=""pictures/animals/9.jpg""></div><div class=""button_prompt"">
                    <b>请用数字键0-9回答</b>
                    </div>","","","","","","","","","","","","","","","","","","",""
"1564","null","sub_response","html-keyboard-response","80","440450","0.0-1.0-7.0-3.0-2.8","12:32:31","2","","","","","","","<div style='text-align: center;'>
                            <span style=""color: green; font-size: 40px""><b>正确！+1 pts</b></span></div>
                            ","","learn","9","9","9","learn","9","9","[0, 1, 2, 3, 4, 5, 6, 7, 8, 9]","8","0","setsize","10S10A","animals","1","1","9","1",""
"null","null","fixation","html-keyboard-response","81","440951","0.0-1.0-7.0-3.0-0.9","12:32:31","2","","","","","","","fixation","","","","","","","","","","","","","","","","","","",""
"1302","2","pic_response","html-keyboard-response","82","442254","0.0-1.0-7.0-3.0-1.9","12:32:31","2","","","","","","","<div>
            <img class='stim' src=""pictures/animals/6.jpg""></div><div class=""button_prompt"">
                    <b>请用数字键0-9回答</b>
                    </div>","","","","","","","","","","","","","","","","","","",""
"1302","null","sub_response","html-keyboard-response","83","443255","0.0-1.0-7.0-3.0-2.9","12:32:31","2","","","","","","","<div style='text-align: center;'>
                            <span style=""color: red; font-size: 40px""><b>错误！+0 pts</b></span></div>
                            ","","learn","6","6","6","learn","6","6","[0, 1, 2, 3, 4, 5, 6, 7, 8, 9]","9","0","setsize","10S10A","animals","1","0","1","0",""
"null","null","fixation","html-keyboard-response","84","443757","0.0-1.0-7.0-3.0-0.10","12:32:31","2","","","","","","","fixation","","","","","","","","","","","","","","","","","","",""
"1042","2","pic_response","html-keyboard-response","85","444799","0.0-1.0-7.0-3.0-1.10","12:32:31","2","","","","","","","<div>
            <img class='stim' src=""pictures/animals/7.jpg""></div><div class=""button_prompt"">
                    <b>请用数字键0-9回答</b>
                    </div>","","","","","","","","","","","","","","","","","","",""
"1042","null","sub_response","html-keyboard-response","86","445800","0.0-1.0-7.0-3.0-2.10","12:32:31","2","","","","","","","<div style='text-align: center;'>
                            <span style=""color: red; font-size: 40px""><b>错误！+0 pts</b></span></div>
                            ","","learn","7","7","7","learn","7","7","[0, 1, 2, 3, 4, 5, 6, 7, 8, 9]","10","1","setsize","10S10A","animals","1","0","1","0",""
"null","null","fixation","html-keyboard-response","87","446303","0.0-1.0-7.0-3.0-0.11","12:32:31","2","","","","","","","fixation","","","","","","","","","","","","","","","","","","",""
"718","3","pic_response","html-keyboard-response","88","447021","0.0-1.0-7.0-3.0-1.11","12:32:31","2","","","","","","","<div>
            <img class='stim' src=""pictures/animals/2.jpg""></div><div class=""button_prompt"">
                    <b>请用数字键0-9回答</b>
                    </div>","","","","","","","","","","","","","","","","","","",""
"718","null","sub_response","html-keyboard-response","89","448023","0.0-1.0-7.0-3.0-2.11","12:32:31","2","","","","","","","<div style='text-align: center;'>
                            <span style=""color: green; font-size: 40px""><b>正确！+1 pts</b></span></div>
                            ","","learn","2","2","2","learn","2","2","[0, 1, 2, 3, 4, 5, 6, 7, 8, 9]","11","1","setsize","10S10A","animals","1","1","2","1",""
"null","null","fixation","html-keyboard-response","90","448524","0.0-1.0-7.0-3.0-0.12","12:32:31","2","","","","","","","fixation","","","","","","","","","","","","","","","","","","",""
"1065","2","pic_response","html-keyboard-response","91","449590","0.0-1.0-7.0-3.0-1.12","12:32:31","2","","","","","","","<div>
            <img class='stim' src=""pictures/animals/6.jpg""></div><div class=""button_prompt"">
                    <b>请用数字键0-9回答</b>
                    </div>","","","","","","","","","","","","","","","","","","",""
"1065","null","sub_response","html-keyboard-response","92","450592","0.0-1.0-7.0-3.0-2.12","12:32:31","2","","","","","","","<div style='text-align: center;'>
                            <span style=""color: red; font-size: 40px""><b>错误！+0 pts</b></span></div>
                            ","","learn","6","6","6","learn","6","6","[0, 1, 2, 3, 4, 5, 6, 7, 8, 9]","12","1","setsize","10S10A","animals","1","0","1","0",""
"null","null","fixation","html-keyboard-response","93","451093","0.0-1.0-7.0-3.0-0.13","12:32:31","2","","","","","","","fixation","","","","","","","","","","","","","","","","","","",""
"791","4","pic_response","html-keyboard-response","94","451885","0.0-1.0-7.0-3.0-1.13","12:32:31","2","","","","","","","<div>
            <img class='stim' src=""pictures/animals/9.jpg""></div><div class=""button_prompt"">
                    <b>请用数字键0-9回答</b>
                    </div>","","","","","","","","","","","","","","","","","","",""
"791","null","sub_response","html-keyboard-response","95","452886","0.0-1.0-7.0-3.0-2.13","12:32:31","2","","","","","","","<div style='text-align: center;'>
                            <span style=""color: red; font-size: 40px""><b>错误！+0 pts</b></span></div>
                            ","","learn","9","9","9","learn","9","9","[0, 1, 2, 3, 4, 5, 6, 7, 8, 9]","13","1","setsize","10S10A","animals","1","0","3","0",""
"null","null","fixation","html-keyboard-response","96","453387","0.0-1.0-7.0-3.0-0.14","12:32:31","2","","","","","","","fixation","","","","","","","","","","","","","","","","","","",""
"867","1","pic_response","html-keyboard-response","97","454255","0.0-1.0-7.0-3.0-1.14","12:32:31","2","","","","","","","<div>
            <img class='stim' src=""pictures/animals/0.jpg""></div><div class=""button_prompt"">
                    <b>请用数字键0-9回答</b>
                    </div>","","","","","","","","","","","","","","","","","","",""
"867","null","sub_response","html-keyboard-response","98","455255","0.0-1.0-7.0-3.0-2.14","12:32:31","2","","","","","","","<div style='text-align: center;'>
                            <span style=""color: green; font-size: 40px""><b>正确！+1 pts</b></span></div>
                            ","","learn","0","0","0","learn","0","0","[0, 1, 2, 3, 4, 5, 6, 7, 8, 9]","14","1","setsize","10S10A","animals","1","1","0","1",""
"null","null","fixation","html-keyboard-response","99","455757","0.0-1.0-7.0-3.0-0.15","12:32:31","2","","","","","","","fixation","","","","","","","","","","","","","","","","","","",""
"1239","5","pic_response","html-keyboard-response","100","456997","0.0-1.0-7.0-3.0-1.15","12:32:31","2","","","","","","","<div>
            <img class='stim' src=""pictures/animals/4.jpg""></div><div class=""button_prompt"">
                    <b>请用数字键0-9回答</b>
                    </div>","","","","","","","","","","","","","","","","","","",""
"1239","null","sub_response","html-keyboard-response","101","457998","0.0-1.0-7.0-3.0-2.15","12:32:31","2","","","","","","","<div style='text-align: center;'>
                            <span style=""color: green; font-size: 40px""><b>正确！+1 pts</b></span></div>
                            ","","learn","4","4","4","learn","4","4","[0, 1, 2, 3, 4, 5, 6, 7, 8, 9]","15","1","setsize","10S10A","animals","1","2","4","1",""
"null","null","fixation","html-keyboard-response","102","458499","0.0-1.0-7.0-3.0-0.16","12:32:31","2","","","","","","","fixation","","","","","","","","","","","","","","","","","","",""
"849","4","pic_response","html-keyboard-response","103","459349","0.0-1.0-7.0-3.0-1.16","12:32:31","2","","","","","","","<div>
            <img class='stim' src=""pictures/animals/8.jpg""></div><div class=""button_prompt"">
                    <b>请用数字键0-9回答</b>
                    </div>","","","","","","","","","","","","","","","","","","",""
"849","null","sub_response","html-keyboard-response","104","460351","0.0-1.0-7.0-3.0-2.16","12:32:31","2","","","","","","","<div style='text-align: center;'>
                            <span style=""color: red; font-size: 40px""><b>错误！+0 pts</b></span></div>
                            ","","learn","8","8","8","learn","8","8","[0, 1, 2, 3, 4, 5, 6, 7, 8, 9]","16","1","setsize","10S10A","animals","1","0","3","0",""
"null","null","fixation","html-keyboard-response","105","460853","0.0-1.0-7.0-3.0-0.17","12:32:31","2","","","","","","","fixation","","","","","","","","","","","","","","","","","","",""
"1630","5","pic_response","html-keyboard-response","106","462484","0.0-1.0-7.0-3.0-1.17","12:32:31","2","","","","","","","<div>
            <img class='stim' src=""pictures/animals/3.jpg""></div><div class=""button_prompt"">
                    <b>请用数字键0-9回答</b>
                    </div>","","","","","","","","","","","","","","","","","","",""
"1630","null","sub_response","html-keyboard-response","107","463486","0.0-1.0-7.0-3.0-2.17","12:32:31","2","","","","","","","<div style='text-align: center;'>
                            <span style=""color: red; font-size: 40px""><b>错误！+0 pts</b></span></div>
                            ","","learn","3","3","3","learn","3","3","[0, 1, 2, 3, 4, 5, 6, 7, 8, 9]","17","1","setsize","10S10A","animals","1","0","4","0",""
"null","null","fixation","html-keyboard-response","108","463987","0.0-1.0-7.0-3.0-0.18","12:32:31","2","","","","","","","fixation","","","","","","","","","","","","","","","","","","",""
"1402","5","pic_response","html-keyboard-response","109","465390","0.0-1.0-7.0-3.0-1.18","12:32:31","2","","","","","","","<div>
            <img class='stim' src=""pictures/animals/5.jpg""></div><div class=""button_prompt"">
                    <b>请用数字键0-9回答</b>
                    </div>","","","","","","","","","","","","","","","","","","",""
"1402","null","sub_response","html-keyboard-response","110","466392","0.0-1.0-7.0-3.0-2.18","12:32:31","2","","","","","","","<div style='text-align: center;'>
                            <span style=""color: red; font-size: 40px""><b>错误！+0 pts</b></span></div>
                            ","","learn","5","5","5","learn","5","5","[0, 1, 2, 3, 4, 5, 6, 7, 8, 9]","18","1","setsize","10S10A","animals","1","0","4","0",""
"null","null","fixation","html-keyboard-response","111","466894","0.0-1.0-7.0-3.0-0.19","12:32:31","2","","","","","","","fixation","","","","","","","","","","","","","","","","","","",""
"1805","2","pic_response","html-keyboard-response","112","468700","0.0-1.0-7.0-3.0-1.19","12:32:31","2","","","","","","","<div>
            <img class='stim' src=""pictures/animals/1.jpg""></div><div class=""button_prompt"">
                    <b>请用数字键0-9回答</b>
                    </div>","","","","","","","","","","","","","","","","","","",""
"1805","null","sub_response","html-keyboard-response","113","469701","0.0-1.0-7.0-3.0-2.19","12:32:31","2","","","","","","","<div style='text-align: center;'>
                            <span style=""color: green; font-size: 40px""><b>正确！+1 pts</b></span></div>
                            ","","learn","1","1","1","learn","1","1","[0, 1, 2, 3, 4, 5, 6, 7, 8, 9]","19","1","setsize","10S10A","animals","1","1","1","1",""
"null","null","fixation","html-keyboard-response","114","470203","0.0-1.0-7.0-3.0-0.20","12:32:31","2","","","","","","","fixation","","","","","","","","","","","","","","","","","","",""
"1466","4","pic_response","html-keyboard-response","115","471670","0.0-1.0-7.0-3.0-1.20","12:32:31","2","","","","","","","<div>
            <img class='stim' src=""pictures/animals/5.jpg""></div><div class=""button_prompt"">
                    <b>请用数字键0-9回答</b>
                    </div>","","","","","","","","","","","","","","","","","","",""
"1466","null","sub_response","html-keyboard-response","116","472670","0.0-1.0-7.0-3.0-2.20","12:32:31","2","","","","","","","<div style='text-align: center;'>
                            <span style=""color: red; font-size: 40px""><b>错误！+0 pts</b></span></div>
                            ","","learn","5","5","5","learn","5","5","[0, 1, 2, 3, 4, 5, 6, 7, 8, 9]","20","2","setsize","10S10A","animals","1","0","3","0",""
"null","null","fixation","html-keyboard-response","117","473172","0.0-1.0-7.0-3.0-0.21","12:32:31","2","","","","","","","fixation","","","","","","","","","","","","","","","","","","",""
"1121","3","pic_response","html-keyboard-response","118","474294","0.0-1.0-7.0-3.0-1.21","12:32:31","2","","","","","","","<div>
            <img class='stim' src=""pictures/animals/2.jpg""></div><div class=""button_prompt"">
                    <b>请用数字键0-9回答</b>
                    </div>","","","","","","","","","","","","","","","","","","",""
"1121","null","sub_response","html-keyboard-response","119","475296","0.0-1.0-7.0-3.0-2.21","12:32:31","2","","","","","","","<div style='text-align: center;'>
                            <span style=""color: green; font-size: 40px""><b>正确！+1 pts</b></span></div>
                            ","","learn","2","2","2","learn","2","2","[0, 1, 2, 3, 4, 5, 6, 7, 8, 9]","21","2","setsize","10S10A","animals","1","1","2","1",""
"null","null","fixation","html-keyboard-response","120","475797","0.0-1.0-7.0-3.0-0.22","12:32:31","2","","","","","","","fixation","","","","","","","","","","","","","","","","","","",""
"1121","6","pic_response","html-keyboard-response","121","476918","0.0-1.0-7.0-3.0-1.22","12:32:31","2","","","","","","","<div>
            <img class='stim' src=""pictures/animals/8.jpg""></div><div class=""button_prompt"">
                    <b>请用数字键0-9回答</b>
                    </div>","","","","","","","","","","","","","","","","","","",""
"1121","null","sub_response","html-keyboard-response","122","477919","0.0-1.0-7.0-3.0-2.22","12:32:31","2","","","","","","","<div style='text-align: center;'>
                            <span style=""color: red; font-size: 40px""><b>错误！+0 pts</b></span></div>
                            ","","learn","8","8","8","learn","8","8","[0, 1, 2, 3, 4, 5, 6, 7, 8, 9]","22","2","setsize","10S10A","animals","1","0","5","0",""
"null","null","fixation","html-keyboard-response","123","478421","0.0-1.0-7.0-3.0-0.23","12:32:31","2","","","","","","","fixation","","","","","","","","","","","","","","","","","","",""
"1439","1","pic_response","html-keyboard-response","124","479861","0.0-1.0-7.0-3.0-1.23","12:32:31","2","","","","","","","<div>
            <img class='stim' src=""pictures/animals/0.jpg""></div><div class=""button_prompt"">
                    <b>请用数字键0-9回答</b>
                    </div>","","","","","","","","","","","","","","","","","","",""
"1439","null","sub_response","html-keyboard-response","125","480862","0.0-1.0-7.0-3.0-2.23","12:32:31","2","","","","","","","<div style='text-align: center;'>
                            <span style=""color: green; font-size: 40px""><b>正确！+1 pts</b></span></div>
                            ","","learn","0","0","0","learn","0","0","[0, 1, 2, 3, 4, 5, 6, 7, 8, 9]","23","2","setsize","10S10A","animals","1","1","0","1",""
"null","null","fixation","html-keyboard-response","126","481364","0.0-1.0-7.0-3.0-0.24","12:32:31","2","","","","","","","fixation","","","","","","","","","","","","","","","","","","",""
"1248","0","pic_response","html-keyboard-response","127","482613","0.0-1.0-7.0-3.0-1.24","12:32:31","2","","","","","","","<div>
            <img class='stim' src=""pictures/animals/9.jpg""></div><div class=""button_prompt"">
                    <b>请用数字键0-9回答</b>
                    </div>","","","","","","","","","","","","","","","","","","",""
"1248","null","sub_response","html-keyboard-response","128","483614","0.0-1.0-7.0-3.0-2.24","12:32:31","2","","","","","","","<div style='text-align: center;'>
                            <span style=""color: green; font-size: 40px""><b>正确！+1 pts</b></span></div>
                            ","","learn","9","9","9","learn","9","9","[0, 1, 2, 3, 4, 5, 6, 7, 8, 9]","24","2","setsize","10S10A","animals","1","2","9","1",""
"null","null","fixation","html-keyboard-response","129","484115","0.0-1.0-7.0-3.0-0.25","12:32:31","2","","","","","","","fixation","","","","","","","","","","","","","","","","","","",""
"1313","5","pic_response","html-keyboard-response","130","485430","0.0-1.0-7.0-3.0-1.25","12:32:31","2","","","","","","","<div>
            <img class='stim' src=""pictures/animals/7.jpg""></div><div class=""button_prompt"">
                    <b>请用数字键0-9回答</b>
                    </div>","","","","","","","","","","","","","","","","","","",""
"1313","null","sub_response","html-keyboard-response","131","486431","0.0-1.0-7.0-3.0-2.25","12:32:31","2","","","","","","","<div style='text-align: center;'>
                            <span style=""color: red; font-size: 40px""><b>错误！+0 pts</b></span></div>
                            ","","learn","7","7","7","learn","7","7","[0, 1, 2, 3, 4, 5, 6, 7, 8, 9]","25","2","setsize","10S10A","animals","1","0","4","0",""
"null","null","fixation","html-keyboard-response","132","486932","0.0-1.0-7.0-3.0-0.26","12:32:31","2","","","","","","","fixation","","","","","","","","","","","","","","","","","","",""
"1448","5","pic_response","html-keyboard-response","133","488381","0.0-1.0-7.0-3.0-1.26","12:32:31","2","","","","","","","<div>
            <img class='stim' src=""pictures/animals/3.jpg""></div><div class=""button_prompt"">
                    <b>请用数字键0-9回答</b>
                    </div>","","","","","","","","","","","","","","","","","","",""
"1448","null","sub_response","html-keyboard-response","134","489383","0.0-1.0-7.0-3.0-2.26","12:32:31","2","","","","","","","<div style='text-align: center;'>
                            <span style=""color: red; font-size: 40px""><b>错误！+0 pts</b></span></div>
                            ","","learn","3","3","3","learn","3","3","[0, 1, 2, 3, 4, 5, 6, 7, 8, 9]","26","2","setsize","10S10A","animals","1","0","4","0",""
"null","null","fixation","html-keyboard-response","135","489884","0.0-1.0-7.0-3.0-0.27","12:32:31","2","","","","","","","fixation","","","","","","","","","","","","","","","","","","",""
"1187","5","pic_response","html-keyboard-response","136","491071","0.0-1.0-7.0-3.0-1.27","12:32:31","2","","","","","","","<div>
            <img class='stim' src=""pictures/animals/4.jpg""></div><div class=""button_prompt"">
                    <b>请用数字键0-9回答</b>
                    </div>","","","","","","","","","","","","","","","","","","",""
"1187","null","sub_response","html-keyboard-response","137","492073","0.0-1.0-7.0-3.0-2.27","12:32:31","2","","","","","","","<div style='text-align: center;'>
                            <span style=""color: green; font-size: 40px""><b>正确！+1 pts</b></span></div>
                            ","","learn","4","4","4","learn","4","4","[0, 1, 2, 3, 4, 5, 6, 7, 8, 9]","27","2","setsize","10S10A","animals","1","1","4","1",""
"null","null","fixation","html-keyboard-response","138","492574","0.0-1.0-7.0-3.0-0.28","12:32:31","2","","","","","","","fixation","","","","","","","","","","","","","","","","","","",""
"1078","2","pic_response","html-keyboard-response","139","493653","0.0-1.0-7.0-3.0-1.28","12:32:31","2","","","","","","","<div>
            <img class='stim' src=""pictures/animals/1.jpg""></div><div class=""button_prompt"">
                    <b>请用数字键0-9回答</b>
                    </div>","","","","","","","","","","","","","","","","","","",""
"1078","null","sub_response","html-keyboard-response","140","494655","0.0-1.0-7.0-3.0-2.28","12:32:31","2","","","","","","","<div style='text-align: center;'>
                            <span style=""color: green; font-size: 40px""><b>正确！+1 pts</b></span></div>
                            ","","learn","1","1","1","learn","1","1","[0, 1, 2, 3, 4, 5, 6, 7, 8, 9]","28","2","setsize","10S10A","animals","1","2","1","1",""
"null","null","fixation","html-keyboard-response","141","495156","0.0-1.0-7.0-3.0-0.29","12:32:31","2","","","","","","","fixation","","","","","","","","","","","","","","","","","","",""
"1240","6","pic_response","html-keyboard-response","142","496397","0.0-1.0-7.0-3.0-1.29","12:32:31","2","","","","","","","<div>
            <img class='stim' src=""pictures/animals/6.jpg""></div><div class=""button_prompt"">
                    <b>请用数字键0-9回答</b>
                    </div>","","","","","","","","","","","","","","","","","","",""
"1240","null","sub_response","html-keyboard-response","143","497398","0.0-1.0-7.0-3.0-2.29","12:32:31","2","","","","","","","<div style='text-align: center;'>
                            <span style=""color: red; font-size: 40px""><b>错误！+0 pts</b></span></div>
                            ","","learn","6","6","6","learn","6","6","[0, 1, 2, 3, 4, 5, 6, 7, 8, 9]","29","2","setsize","10S10A","animals","1","0","5","0",""
"null","null","fixation","html-keyboard-response","144","497899","0.0-1.0-7.0-3.0-0.30","12:32:31","2","","","","","","","fixation","","","","","","","","","","","","","","","","","","",""
"1148","1","pic_response","html-keyboard-response","145","499048","0.0-1.0-7.0-3.0-1.30","12:32:31","2","","","","","","","<div>
            <img class='stim' src=""pictures/animals/0.jpg""></div><div class=""button_prompt"">
                    <b>请用数字键0-9回答</b>
                    </div>","","","","","","","","","","","","","","","","","","",""
"1148","null","sub_response","html-keyboard-response","146","500049","0.0-1.0-7.0-3.0-2.30","12:32:31","2","","","","","","","<div style='text-align: center;'>
                            <span style=""color: green; font-size: 40px""><b>正确！+1 pts</b></span></div>
                            ","","learn","0","0","0","learn","0","0","[0, 1, 2, 3, 4, 5, 6, 7, 8, 9]","30","3","setsize","10S10A","animals","1","1","0","1",""
"null","null","fixation","html-keyboard-response","147","500551","0.0-1.0-7.0-3.0-0.31","12:32:31","2","","","","","","","fixation","","","","","","","","","","","","","","","","","","",""
"908","7","pic_response","html-keyboard-response","148","501460","0.0-1.0-7.0-3.0-1.31","12:32:31","2","","","","","","","<div>
            <img class='stim' src=""pictures/animals/7.jpg""></div><div class=""button_prompt"">
                    <b>请用数字键0-9回答</b>
                    </div>","","","","","","","","","","","","","","","","","","",""
"908","null","sub_response","html-keyboard-response","149","502462","0.0-1.0-7.0-3.0-2.31","12:32:31","2","","","","","","","<div style='text-align: center;'>
                            <span style=""color: red; font-size: 40px""><b>错误！+0 pts</b></span></div>
                            ","","learn","7","7","7","learn","7","7","[0, 1, 2, 3, 4, 5, 6, 7, 8, 9]","31","3","setsize","10S10A","animals","1","0","6","0",""
"null","null","fixation","html-keyboard-response","150","502963","0.0-1.0-7.0-3.0-0.32","12:32:31","2","","","","","","","fixation","","","","","","","","","","","","","","","","","","",""
"1027","2","pic_response","html-keyboard-response","151","503991","0.0-1.0-7.0-3.0-1.32","12:32:31","2","","","","","","","<div>
            <img class='stim' src=""pictures/animals/1.jpg""></div><div class=""button_prompt"">
                    <b>请用数字键0-9回答</b>
                    </div>","","","","","","","","","","","","","","","","","","",""
"1027","null","sub_response","html-keyboard-response","152","504992","0.0-1.0-7.0-3.0-2.32","12:32:31","2","","","","","","","<div style='text-align: center;'>
                            <span style=""color: green; font-size: 40px""><b>正确！+1 pts</b></span></div>
                            ","","learn","1","1","1","learn","1","1","[0, 1, 2, 3, 4, 5, 6, 7, 8, 9]","32","3","setsize","10S10A","animals","1","1","1","1",""
"null","null","fixation","html-keyboard-response","153","505494","0.0-1.0-7.0-3.0-0.33","12:32:31","2","","","","","","","fixation","","","","","","","","","","","","","","","","","","",""
"869","7","pic_response","html-keyboard-response","154","506364","0.0-1.0-7.0-3.0-1.33","12:32:31","2","","","","","","","<div>
            <img class='stim' src=""pictures/animals/6.jpg""></div><div class=""button_prompt"">
                    <b>请用数字键0-9回答</b>
                    </div>","","","","","","","","","","","","","","","","","","",""
"869","null","sub_response","html-keyboard-response","155","507366","0.0-1.0-7.0-3.0-2.33","12:32:31","2","","","","","","","<div style='text-align: center;'>
                            <span style=""color: green; font-size: 40px""><b>正确！+1 pts</b></span></div>
                            ","","learn","6","6","6","learn","6","6","[0, 1, 2, 3, 4, 5, 6, 7, 8, 9]","33","3","setsize","10S10A","animals","1","2","6","1",""
"null","null","fixation","html-keyboard-response","156","507868","0.0-1.0-7.0-3.0-0.34","12:32:31","2","","","","","","","fixation","","","","","","","","","","","","","","","","","","",""
"1656","0","pic_response","html-keyboard-response","157","509524","0.0-1.0-7.0-3.0-1.34","12:32:31","2","","","","","","","<div>
            <img class='stim' src=""pictures/animals/9.jpg""></div><div class=""button_prompt"">
                    <b>请用数字键0-9回答</b>
                    </div>","","","","","","","","","","","","","","","","","","",""
"1656","null","sub_response","html-keyboard-response","158","510525","0.0-1.0-7.0-3.0-2.34","12:32:31","2","","","","","","","<div style='text-align: center;'>
                            <span style=""color: green; font-size: 40px""><b>正确！+1 pts</b></span></div>
                            ","","learn","9","9","9","learn","9","9","[0, 1, 2, 3, 4, 5, 6, 7, 8, 9]","34","3","setsize","10S10A","animals","1","3","9","1",""
"null","null","fixation","html-keyboard-response","159","511027","0.0-1.0-7.0-3.0-0.35","12:32:31","2","","","","","","","fixation","","","","","","","","","","","","","","","","","","",""
"1730","4","pic_response","html-keyboard-response","160","512758","0.0-1.0-7.0-3.0-1.35","12:32:31","2","","","","","","","<div>
            <img class='stim' src=""pictures/animals/3.jpg""></div><div class=""button_prompt"">
                    <b>请用数字键0-9回答</b>
                    </div>","","","","","","","","","","","","","","","","","","",""
"1730","null","sub_response","html-keyboard-response","161","513759","0.0-1.0-7.0-3.0-2.35","12:32:31","2","","","","","","","<div style='text-align: center;'>
                            <span style=""color: green; font-size: 40px""><b>正确！+1 pts</b></span></div>
                            ","","learn","3","3","3","learn","3","3","[0, 1, 2, 3, 4, 5, 6, 7, 8, 9]","35","3","setsize","10S10A","animals","1","4","3","1",""
"null","null","fixation","html-keyboard-response","162","514261","0.0-1.0-7.0-3.0-0.36","12:32:31","2","","","","","","","fixation","","","","","","","","","","","","","","","","","","",""
"927","8","pic_response","html-keyboard-response","163","515189","0.0-1.0-7.0-3.0-1.36","12:32:31","2","","","","","","","<div>
            <img class='stim' src=""pictures/animals/8.jpg""></div><div class=""button_prompt"">
                    <b>请用数字键0-9回答</b>
                    </div>","","","","","","","","","","","","","","","","","","",""
"927","null","sub_response","html-keyboard-response","164","516191","0.0-1.0-7.0-3.0-2.36","12:32:31","2","","","","","","","<div style='text-align: center;'>
                            <span style=""color: red; font-size: 40px""><b>错误！+0 pts</b></span></div>
                            ","","learn","8","8","8","learn","8","8","[0, 1, 2, 3, 4, 5, 6, 7, 8, 9]","36","3","setsize","10S10A","animals","1","0","7","0",""
"null","null","fixation","html-keyboard-response","165","516694","0.0-1.0-7.0-3.0-0.37","12:32:31","2","","","","","","","fixation","","","","","","","","","","","","","","","","","","",""
"1350","3","pic_response","html-keyboard-response","166","518045","0.0-1.0-7.0-3.0-1.37","12:32:31","2","","","","","","","<div>
            <img class='stim' src=""pictures/animals/2.jpg""></div><div class=""button_prompt"">
                    <b>请用数字键0-9回答</b>
                    </div>","","","","","","","","","","","","","","","","","","",""
"1350","null","sub_response","html-keyboard-response","167","519046","0.0-1.0-7.0-3.0-2.37","12:32:31","2","","","","","","","<div style='text-align: center;'>
                            <span style=""color: green; font-size: 40px""><b>正确！+1 pts</b></span></div>
                            ","","learn","2","2","2","learn","2","2","[0, 1, 2, 3, 4, 5, 6, 7, 8, 9]","37","3","setsize","10S10A","animals","1","1","2","1",""
"null","null","fixation","html-keyboard-response","168","519548","0.0-1.0-7.0-3.0-0.38","12:32:31","2","","","","","","","fixation","","","","","","","","","","","","","","","","","","",""
"null","null","pic_response","html-keyboard-response","169","522549","0.0-1.0-7.0-3.0-1.38","12:32:31","2","","","","","","","<div>
            <img class='stim' src=""pictures/animals/5.jpg""></div><div class=""button_prompt"">
                    <b>请用数字键0-9回答</b>
                    </div>","","","","","","","","","","","","","","","","","","",""
"null","null","sub_response","html-keyboard-response","170","523550","0.0-1.0-7.0-3.0-2.38","12:32:31","2","","","","","","","<div style='text-align: center;'>
                            <span style=""color: red; font-size: 40px""><b>错误！+0 pts</b></span></div>
                            ","","learn","5","5","5","learn","5","5","[0, 1, 2, 3, 4, 5, 6, 7, 8, 9]","38","3","setsize","10S10A","animals","1","0","999","0",""
"null","null","fixation","html-keyboard-response","171","524052","0.0-1.0-7.0-3.0-0.39","12:32:31","2","","","","","","","fixation","","","","","","","","","","","","","","","","","","",""
"858","5","pic_response","html-keyboard-response","172","524911","0.0-1.0-7.0-3.0-1.39","12:32:31","2","","","","","","","<div>
            <img class='stim' src=""pictures/animals/4.jpg""></div><div class=""button_prompt"">
                    <b>请用数字键0-9回答</b>
                    </div>","","","","","","","","","","","","","","","","","","",""
"858","null","sub_response","html-keyboard-response","173","525913","0.0-1.0-7.0-3.0-2.39","12:32:31","2","","","","","","","<div style='text-align: center;'>
                            <span style=""color: green; font-size: 40px""><b>正确！+1 pts</b></span></div>
                            ","","learn","4","4","4","learn","4","4","[0, 1, 2, 3, 4, 5, 6, 7, 8, 9]","39","3","setsize","10S10A","animals","1","1","4","1",""
"null","null","fixation","html-keyboard-response","174","526415","0.0-1.0-7.0-3.0-0.40","12:32:31","2","","","","","","","fixation","","","","","","","","","","","","","","","","","","",""
"1076","1","pic_response","html-keyboard-response","175","527492","0.0-1.0-7.0-3.0-1.40","12:32:31","2","","","","","","","<div>
            <img class='stim' src=""pictures/animals/0.jpg""></div><div class=""button_prompt"">
                    <b>请用数字键0-9回答</b>
                    </div>","","","","","","","","","","","","","","","","","","",""
"1076","null","sub_response","html-keyboard-response","176","528494","0.0-1.0-7.0-3.0-2.40","12:32:31","2","","","","","","","<div style='text-align: center;'>
                            <span style=""color: green; font-size: 40px""><b>正确！+1 pts</b></span></div>
                            ","","learn","0","0","0","learn","0","0","[0, 1, 2, 3, 4, 5, 6, 7, 8, 9]","40","4","setsize","10S10A","animals","1","2","0","1",""
"null","null","fixation","html-keyboard-response","177","528995","0.0-1.0-7.0-3.0-0.41","12:32:31","2","","","","","","","fixation","","","","","","","","","","","","","","","","","","",""
"1257","8","pic_response","html-keyboard-response","178","530253","0.0-1.0-7.0-3.0-1.41","12:32:31","2","","","","","","","<div>
            <img class='stim' src=""pictures/animals/8.jpg""></div><div class=""button_prompt"">
                    <b>请用数字键0-9回答</b>
                    </div>","","","","","","","","","","","","","","","","","","",""
"1257","null","sub_response","html-keyboard-response","179","531254","0.0-1.0-7.0-3.0-2.41","12:32:31","2","","","","","","","<div style='text-align: center;'>
                            <span style=""color: red; font-size: 40px""><b>错误！+0 pts</b></span></div>
                            ","","learn","8","8","8","learn","8","8","[0, 1, 2, 3, 4, 5, 6, 7, 8, 9]","41","4","setsize","10S10A","animals","1","0","7","0",""
"null","null","fixation","html-keyboard-response","180","531756","0.0-1.0-7.0-3.0-0.42","12:32:31","2","","","","","","","fixation","","","","","","","","","","","","","","","","","","",""
"890","4","pic_response","html-keyboard-response","181","532647","0.0-1.0-7.0-3.0-1.42","12:32:31","2","","","","","","","<div>
            <img class='stim' src=""pictures/animals/3.jpg""></div><div class=""button_prompt"">
                    <b>请用数字键0-9回答</b>
                    </div>","","","","","","","","","","","","","","","","","","",""
"890","null","sub_response","html-keyboard-response","182","533648","0.0-1.0-7.0-3.0-2.42","12:32:31","2","","","","","","","<div style='text-align: center;'>
                            <span style=""color: green; font-size: 40px""><b>正确！+1 pts</b></span></div>
                            ","","learn","3","3","3","learn","3","3","[0, 1, 2, 3, 4, 5, 6, 7, 8, 9]","42","4","setsize","10S10A","animals","1","1","3","1",""
"null","null","fixation","html-keyboard-response","183","534149","0.0-1.0-7.0-3.0-0.43","12:32:31","2","","","","","","","fixation","","","","","","","","","","","","","","","","","","",""
"880","3","pic_response","html-keyboard-response","184","535030","0.0-1.0-7.0-3.0-1.43","12:32:31","2","","","","","","","<div>
            <img class='stim' src=""pictures/animals/2.jpg""></div><div class=""button_prompt"">
                    <b>请用数字键0-9回答</b>
                    </div>","","","","","","","","","","","","","","","","","","",""
"880","null","sub_response","html-keyboard-response","185","536032","0.0-1.0-7.0-3.0-2.43","12:32:31","2","","","","","","","<div style='text-align: center;'>
                            <span style=""color: green; font-size: 40px""><b>正确！+1 pts</b></span></div>
                            ","","learn","2","2","2","learn","2","2","[0, 1, 2, 3, 4, 5, 6, 7, 8, 9]","43","4","setsize","10S10A","animals","1","2","2","1",""
"null","null","fixation","html-keyboard-response","186","536533","0.0-1.0-7.0-3.0-0.44","12:32:31","2","","","","","","","fixation","","","","","","","","","","","","","","","","","","",""
"1488","2","pic_response","html-keyboard-response","187","538022","0.0-1.0-7.0-3.0-1.44","12:32:31","2","","","","","","","<div>
            <img class='stim' src=""pictures/animals/9.jpg""></div><div class=""button_prompt"">
                    <b>请用数字键0-9回答</b>
                    </div>","","","","","","","","","","","","","","","","","","",""
"1488","null","sub_response","html-keyboard-response","188","539024","0.0-1.0-7.0-3.0-2.44","12:32:31","2","","","","","","","<div style='text-align: center;'>
                            <span style=""color: red; font-size: 40px""><b>错误！+0 pts</b></span></div>
                            ","","learn","9","9","9","learn","9","9","[0, 1, 2, 3, 4, 5, 6, 7, 8, 9]","44","4","setsize","10S10A","animals","1","0","1","0",""
"null","null","fixation","html-keyboard-response","189","539525","0.0-1.0-7.0-3.0-0.45","12:32:31","2","","","","","","","fixation","","","","","","","","","","","","","","","","","","",""
"1159","4","pic_response","html-keyboard-response","190","540685","0.0-1.0-7.0-3.0-1.45","12:32:31","2","","","","","","","<div>
            <img class='stim' src=""pictures/animals/4.jpg""></div><div class=""button_prompt"">
                    <b>请用数字键0-9回答</b>
                    </div>","","","","","","","","","","","","","","","","","","",""
"1159","null","sub_response","html-keyboard-response","191","541686","0.0-1.0-7.0-3.0-2.45","12:32:31","2","","","","","","","<div style='text-align: center;'>
                            <span style=""color: red; font-size: 40px""><b>错误！+0 pts</b></span></div>
                            ","","learn","4","4","4","learn","4","4","[0, 1, 2, 3, 4, 5, 6, 7, 8, 9]","45","4","setsize","10S10A","animals","1","0","3","0",""
"null","null","fixation","html-keyboard-response","192","542187","0.0-1.0-7.0-3.0-0.46","12:32:31","2","","","","","","","fixation","","","","","","","","","","","","","","","","","","",""
"1115","7","pic_response","html-keyboard-response","193","543303","0.0-1.0-7.0-3.0-1.46","12:32:31","2","","","","","","","<div>
            <img class='stim' src=""pictures/animals/6.jpg""></div><div class=""button_prompt"">
                    <b>请用数字键0-9回答</b>
                    </div>","","","","","","","","","","","","","","","","","","",""
"1115","null","sub_response","html-keyboard-response","194","544304","0.0-1.0-7.0-3.0-2.46","12:32:31","2","","","","","","","<div style='text-align: center;'>
                            <span style=""color: green; font-size: 40px""><b>正确！+1 pts</b></span></div>
                            ","","learn","6","6","6","learn","6","6","[0, 1, 2, 3, 4, 5, 6, 7, 8, 9]","46","4","setsize","10S10A","animals","1","1","6","1",""
"null","null","fixation","html-keyboard-response","195","544806","0.0-1.0-7.0-3.0-0.47","12:32:31","2","","","","","","","fixation","","","","","","","","","","","","","","","","","","",""
"1415","6","pic_response","html-keyboard-response","196","546222","0.0-1.0-7.0-3.0-1.47","12:32:31","2","","","","","","","<div>
            <img class='stim' src=""pictures/animals/5.jpg""></div><div class=""button_prompt"">
                    <b>请用数字键0-9回答</b>
                    </div>","","","","","","","","","","","","","","","","","","",""
"1415","null","sub_response","html-keyboard-response","197","547223","0.0-1.0-7.0-3.0-2.47","12:32:31","2","","","","","","","<div style='text-align: center;'>
                            <span style=""color: green; font-size: 40px""><b>正确！+1 pts</b></span></div>
                            ","","learn","5","5","5","learn","5","5","[0, 1, 2, 3, 4, 5, 6, 7, 8, 9]","47","4","setsize","10S10A","animals","1","2","5","1",""
"null","null","fixation","html-keyboard-response","198","547724","0.0-1.0-7.0-3.0-0.48","12:32:31","2","","","","","","","fixation","","","","","","","","","","","","","","","","","","",""
"1896","7","pic_response","html-keyboard-response","199","549621","0.0-1.0-7.0-3.0-1.48","12:32:31","2","","","","","","","<div>
            <img class='stim' src=""pictures/animals/7.jpg""></div><div class=""button_prompt"">
                    <b>请用数字键0-9回答</b>
                    </div>","","","","","","","","","","","","","","","","","","",""
"1896","null","sub_response","html-keyboard-response","200","550623","0.0-1.0-7.0-3.0-2.48","12:32:31","2","","","","","","","<div style='text-align: center;'>
                            <span style=""color: red; font-size: 40px""><b>错误！+0 pts</b></span></div>
                            ","","learn","7","7","7","learn","7","7","[0, 1, 2, 3, 4, 5, 6, 7, 8, 9]","48","4","setsize","10S10A","animals","1","0","6","0",""
"null","null","fixation","html-keyboard-response","201","551125","0.0-1.0-7.0-3.0-0.49","12:32:31","2","","","","","","","fixation","","","","","","","","","","","","","","","","","","",""
"1801","2","pic_response","html-keyboard-response","202","552926","0.0-1.0-7.0-3.0-1.49","12:32:31","2","","","","","","","<div>
            <img class='stim' src=""pictures/animals/1.jpg""></div><div class=""button_prompt"">
                    <b>请用数字键0-9回答</b>
                    </div>","","","","","","","","","","","","","","","","","","",""
"1801","null","sub_response","html-keyboard-response","203","553927","0.0-1.0-7.0-3.0-2.49","12:32:31","2","","","","","","","<div style='text-align: center;'>
                            <span style=""color: green; font-size: 40px""><b>正确！+1 pts</b></span></div>
                            ","","learn","1","1","1","learn","1","1","[0, 1, 2, 3, 4, 5, 6, 7, 8, 9]","49","4","setsize","10S10A","animals","1","1","1","1",""
"null","null","fixation","html-keyboard-response","204","554428","0.0-1.0-7.0-3.0-0.50","12:32:31","2","","","","","","","fixation","","","","","","","","","","","","","","","","","","",""
"1264","4","pic_response","html-keyboard-response","205","555693","0.0-1.0-7.0-3.0-1.50","12:32:31","2","","","","","","","<div>
            <img class='stim' src=""pictures/animals/6.jpg""></div><div class=""button_prompt"">
                    <b>请用数字键0-9回答</b>
                    </div>","","","","","","","","","","","","","","","","","","",""
"1264","null","sub_response","html-keyboard-response","206","556695","0.0-1.0-7.0-3.0-2.50","12:32:31","2","","","","","","","<div style='text-align: center;'>
                            <span style=""color: red; font-size: 40px""><b>错误！+0 pts</b></span></div>
                            ","","learn","6","6","6","learn","6","6","[0, 1, 2, 3, 4, 5, 6, 7, 8, 9]","50","5","setsize","10S10A","animals","1","0","3","0",""
"null","null","fixation","html-keyboard-response","207","557196","0.0-1.0-7.0-3.0-0.51","12:32:31","2","","","","","","","fixation","","","","","","","","","","","","","","","","","","",""
"857","2","pic_response","html-keyboard-response","208","558054","0.0-1.0-7.0-3.0-1.51","12:32:31","2","","","","","","","<div>
            <img class='stim' src=""pictures/animals/1.jpg""></div><div class=""button_prompt"">
                    <b>请用数字键0-9回答</b>
                    </div>","","","","","","","","","","","","","","","","","","",""
"857","null","sub_response","html-keyboard-response","209","559056","0.0-1.0-7.0-3.0-2.51","12:32:31","2","","","","","","","<div style='text-align: center;'>
                            <span style=""color: green; font-size: 40px""><b>正确！+1 pts</b></span></div>
                            ","","learn","1","1","1","learn","1","1","[0, 1, 2, 3, 4, 5, 6, 7, 8, 9]","51","5","setsize","10S10A","animals","1","1","1","1",""
"null","null","fixation","html-keyboard-response","210","559557","0.0-1.0-7.0-3.0-0.52","12:32:31","2","","","","","","","fixation","","","","","","","","","","","","","","","","","","",""
"2014","5","pic_response","html-keyboard-response","211","561572","0.0-1.0-7.0-3.0-1.52","12:32:31","2","","","","","","","<div>
            <img class='stim' src=""pictures/animals/4.jpg""></div><div class=""button_prompt"">
                    <b>请用数字键0-9回答</b>
                    </div>","","","","","","","","","","","","","","","","","","",""
"2014","null","sub_response","html-keyboard-response","212","562573","0.0-1.0-7.0-3.0-2.52","12:32:31","2","","","","","","","<div style='text-align: center;'>
                            <span style=""color: green; font-size: 40px""><b>正确！+1 pts</b></span></div>
                            ","","learn","4","4","4","learn","4","4","[0, 1, 2, 3, 4, 5, 6, 7, 8, 9]","52","5","setsize","10S10A","animals","1","2","4","1",""
"null","null","fixation","html-keyboard-response","213","563075","0.0-1.0-7.0-3.0-0.53","12:32:31","2","","","","","","","fixation","","","","","","","","","","","","","","","","","","",""
"1217","1","pic_response","html-keyboard-response","214","564292","0.0-1.0-7.0-3.0-1.53","12:32:31","2","","","","","","","<div>
            <img class='stim' src=""pictures/animals/0.jpg""></div><div class=""button_prompt"">
                    <b>请用数字键0-9回答</b>
                    </div>","","","","","","","","","","","","","","","","","","",""
"1217","null","sub_response","html-keyboard-response","215","565294","0.0-1.0-7.0-3.0-2.53","12:32:31","2","","","","","","","<div style='text-align: center;'>
                            <span style=""color: green; font-size: 40px""><b>正确！+1 pts</b></span></div>
                            ","","learn","0","0","0","learn","0","0","[0, 1, 2, 3, 4, 5, 6, 7, 8, 9]","53","5","setsize","10S10A","animals","1","3","0","1",""
"null","null","fixation","html-keyboard-response","216","565795","0.0-1.0-7.0-3.0-0.54","12:32:31","2","","","","","","","fixation","","","","","","","","","","","","","","","","","","",""
"1001","3","pic_response","html-keyboard-response","217","566796","0.0-1.0-7.0-3.0-1.54","12:32:31","2","","","","","","","<div>
            <img class='stim' src=""pictures/animals/2.jpg""></div><div class=""button_prompt"">
                    <b>请用数字键0-9回答</b>
                    </div>","","","","","","","","","","","","","","","","","","",""
"1001","null","sub_response","html-keyboard-response","218","567798","0.0-1.0-7.0-3.0-2.54","12:32:31","2","","","","","","","<div style='text-align: center;'>
                            <span style=""color: green; font-size: 40px""><b>正确！+1 pts</b></span></div>
                            ","","learn","2","2","2","learn","2","2","[0, 1, 2, 3, 4, 5, 6, 7, 8, 9]","54","5","setsize","10S10A","animals","1","4","2","1",""
"null","null","fixation","html-keyboard-response","219","568299","0.0-1.0-7.0-3.0-0.55","12:32:31","2","","","","","","","fixation","","","","","","","","","","","","","","","","","","",""
"937","6","pic_response","html-keyboard-response","220","569237","0.0-1.0-7.0-3.0-1.55","12:32:31","2","","","","","","","<div>
            <img class='stim' src=""pictures/animals/5.jpg""></div><div class=""button_prompt"">
                    <b>请用数字键0-9回答</b>
                    </div>","","","","","","","","","","","","","","","","","","",""
"937","null","sub_response","html-keyboard-response","221","570237","0.0-1.0-7.0-3.0-2.55","12:32:31","2","","","","","","","<div style='text-align: center;'>
                            <span style=""color: green; font-size: 40px""><b>正确！+1 pts</b></span></div>
                            ","","learn","5","5","5","learn","5","5","[0, 1, 2, 3, 4, 5, 6, 7, 8, 9]","55","5","setsize","10S10A","animals","1","5","5","1",""
"null","null","fixation","html-keyboard-response","222","570739","0.0-1.0-7.0-3.0-0.56","12:32:31","2","","","","","","","fixation","","","","","","","","","","","","","","","","","","",""
"1218","9","pic_response","html-keyboard-response","223","571958","0.0-1.0-7.0-3.0-1.56","12:32:31","2","","","","","","","<div>
            <img class='stim' src=""pictures/animals/8.jpg""></div><div class=""button_prompt"">
                    <b>请用数字键0-9回答</b>
                    </div>","","","","","","","","","","","","","","","","","","",""
"1218","null","sub_response","html-keyboard-response","224","572959","0.0-1.0-7.0-3.0-2.56","12:32:31","2","","","","","","","<div style='text-align: center;'>
                            <span style=""color: green; font-size: 40px""><b>正确！+1 pts</b></span></div>
                            ","","learn","8","8","8","learn","8","8","[0, 1, 2, 3, 4, 5, 6, 7, 8, 9]","56","5","setsize","10S10A","animals","1","6","8","1",""
"null","null","fixation","html-keyboard-response","225","573461","0.0-1.0-7.0-3.0-0.57","12:32:31","2","","","","","","","fixation","","","","","","","","","","","","","","","","","","",""
"1280","0","pic_response","html-keyboard-response","226","574742","0.0-1.0-7.0-3.0-1.57","12:32:31","2","","","","","","","<div>
            <img class='stim' src=""pictures/animals/9.jpg""></div><div class=""button_prompt"">
                    <b>请用数字键0-9回答</b>
                    </div>","","","","","","","","","","","","","","","","","","",""
"1280","null","sub_response","html-keyboard-response","227","575743","0.0-1.0-7.0-3.0-2.57","12:32:31","2","","","","","","","<div style='text-align: center;'>
                            <span style=""color: green; font-size: 40px""><b>正确！+1 pts</b></span></div>
                            ","","learn","9","9","9","learn","9","9","[0, 1, 2, 3, 4, 5, 6, 7, 8, 9]","57","5","setsize","10S10A","animals","1","7","9","1",""
"null","null","fixation","html-keyboard-response","228","576245","0.0-1.0-7.0-3.0-0.58","12:32:31","2","","","","","","","fixation","","","","","","","","","","","","","","","","","","",""
"1152","4","pic_response","html-keyboard-response","229","577398","0.0-1.0-7.0-3.0-1.58","12:32:31","2","","","","","","","<div>
            <img class='stim' src=""pictures/animals/7.jpg""></div><div class=""button_prompt"">
                    <b>请用数字键0-9回答</b>
                    </div>","","","","","","","","","","","","","","","","","","",""
"1152","null","sub_response","html-keyboard-response","230","578400","0.0-1.0-7.0-3.0-2.58","12:32:31","2","","","","","","","<div style='text-align: center;'>
                            <span style=""color: red; font-size: 40px""><b>错误！+0 pts</b></span></div>
                            ","","learn","7","7","7","learn","7","7","[0, 1, 2, 3, 4, 5, 6, 7, 8, 9]","58","5","setsize","10S10A","animals","1","0","3","0",""
"null","null","fixation","html-keyboard-response","231","578902","0.0-1.0-7.0-3.0-0.59","12:32:31","2","","","","","","","fixation","","","","","","","","","","","","","","","","","","",""
"1329","5","pic_response","html-keyboard-response","232","580231","0.0-1.0-7.0-3.0-1.59","12:32:31","2","","","","","","","<div>
            <img class='stim' src=""pictures/animals/3.jpg""></div><div class=""button_prompt"">
                    <b>请用数字键0-9回答</b>
                    </div>","","","","","","","","","","","","","","","","","","",""
"1329","null","sub_response","html-keyboard-response","233","581232","0.0-1.0-7.0-3.0-2.59","12:32:31","2","","","","","","","<div style='text-align: center;'>
                            <span style=""color: red; font-size: 40px""><b>错误！+0 pts</b></span></div>
                            ","","learn","3","3","3","learn","3","3","[0, 1, 2, 3, 4, 5, 6, 7, 8, 9]","59","5","setsize","10S10A","animals","1","0","4","0",""
"null","null","fixation","html-keyboard-response","234","581734","0.0-1.0-7.0-3.0-0.60","12:32:31","2","","","","","","","fixation","","","","","","","","","","","","","","","","","","",""
"1190","1","pic_response","html-keyboard-response","235","582925","0.0-1.0-7.0-3.0-1.60","12:32:31","2","","","","","","","<div>
            <img class='stim' src=""pictures/animals/0.jpg""></div><div class=""button_prompt"">
                    <b>请用数字键0-9回答</b>
                    </div>","","","","","","","","","","","","","","","","","","",""
"1190","null","sub_response","html-keyboard-response","236","583927","0.0-1.0-7.0-3.0-2.60","12:32:31","2","","","","","","","<div style='text-align: center;'>
                            <span style=""color: green; font-size: 40px""><b>正确！+1 pts</b></span></div>
                            ","","learn","0","0","0","learn","0","0","[0, 1, 2, 3, 4, 5, 6, 7, 8, 9]","60","6","setsize","10S10A","animals","1","1","0","1",""
"null","null","fixation","html-keyboard-response","237","584428","0.0-1.0-7.0-3.0-0.61","12:32:31","2","","","","","","","fixation","","","","","","","","","","","","","","","","","","",""
"1175","3","pic_response","html-keyboard-response","238","585604","0.0-1.0-7.0-3.0-1.61","12:32:31","2","","","","","","","<div>
            <img class='stim' src=""pictures/animals/2.jpg""></div><div class=""button_prompt"">
                    <b>请用数字键0-9回答</b>
                    </div>","","","","","","","","","","","","","","","","","","",""
"1175","null","sub_response","html-keyboard-response","239","586605","0.0-1.0-7.0-3.0-2.61","12:32:31","2","","","","","","","<div style='text-align: center;'>
                            <span style=""color: green; font-size: 40px""><b>正确！+1 pts</b></span></div>
                            ","","learn","2","2","2","learn","2","2","[0, 1, 2, 3, 4, 5, 6, 7, 8, 9]","61","6","setsize","10S10A","animals","1","2","2","1",""
"null","null","fixation","html-keyboard-response","240","587107","0.0-1.0-7.0-3.0-0.62","12:32:31","2","","","","","","","fixation","","","","","","","","","","","","","","","","","","",""
"1261","4","pic_response","html-keyboard-response","241","588368","0.0-1.0-7.0-3.0-1.62","12:32:31","2","","","","","","","<div>
            <img class='stim' src=""pictures/animals/3.jpg""></div><div class=""button_prompt"">
                    <b>请用数字键0-9回答</b>
                    </div>","","","","","","","","","","","","","","","","","","",""
"1261","null","sub_response","html-keyboard-response","242","589369","0.0-1.0-7.0-3.0-2.62","12:32:31","2","","","","","","","<div style='text-align: center;'>
                            <span style=""color: green; font-size: 40px""><b>正确！+1 pts</b></span></div>
                            ","","learn","3","3","3","learn","3","3","[0, 1, 2, 3, 4, 5, 6, 7, 8, 9]","62","6","setsize","10S10A","animals","1","3","3","1",""
"null","null","fixation","html-keyboard-response","243","589871","0.0-1.0-7.0-3.0-0.63","12:32:31","2","","","","","","","fixation","","","","","","","","","","","","","","","","","","",""
"1741","8","pic_response","html-keyboard-response","244","591612","0.0-1.0-7.0-3.0-1.63","12:32:31","2","","","","","","","<div>
            <img class='stim' src=""pictures/animals/6.jpg""></div><div class=""button_prompt"">
                    <b>请用数字键0-9回答</b>
                    </div>","","","","","","","","","","","","","","","","","","",""
"1741","null","sub_response","html-keyboard-response","245","592614","0.0-1.0-7.0-3.0-2.63","12:32:31","2","","","","","","","<div style='text-align: center;'>
                            <span style=""color: red; font-size: 40px""><b>错误！+0 pts</b></span></div>
                            ","","learn","6","6","6","learn","6","6","[0, 1, 2, 3, 4, 5, 6, 7, 8, 9]","63","6","setsize","10S10A","animals","1","0","7","0",""
"null","null","fixation","html-keyboard-response","246","593116","0.0-1.0-7.0-3.0-0.64","12:32:31","2","","","","","","","fixation","","","","","","","","","","","","","","","","","","",""
"1313","2","pic_response","html-keyboard-response","247","594430","0.0-1.0-7.0-3.0-1.64","12:32:31","2","","","","","","","<div>
            <img class='stim' src=""pictures/animals/1.jpg""></div><div class=""button_prompt"">
                    <b>请用数字键0-9回答</b>
                    </div>","","","","","","","","","","","","","","","","","","",""
"1313","null","sub_response","html-keyboard-response","248","595431","0.0-1.0-7.0-3.0-2.64","12:32:31","2","","","","","","","<div style='text-align: center;'>
                            <span style=""color: green; font-size: 40px""><b>正确！+1 pts</b></span></div>
                            ","","learn","1","1","1","learn","1","1","[0, 1, 2, 3, 4, 5, 6, 7, 8, 9]","64","6","setsize","10S10A","animals","1","1","1","1",""
"null","null","fixation","html-keyboard-response","249","595933","0.0-1.0-7.0-3.0-0.65","12:32:31","2","","","","","","","fixation","","","","","","","","","","","","","","","","","","",""
"1151","8","pic_response","html-keyboard-response","250","597085","0.0-1.0-7.0-3.0-1.65","12:32:31","2","","","","","","","<div>
            <img class='stim' src=""pictures/animals/7.jpg""></div><div class=""button_prompt"">
                    <b>请用数字键0-9回答</b>
                    </div>","","","","","","","","","","","","","","","","","","",""
"1151","null","sub_response","html-keyboard-response","251","598086","0.0-1.0-7.0-3.0-2.65","12:32:31","2","","","","","","","<div style='text-align: center;'>
                            <span style=""color: green; font-size: 40px""><b>正确！+1 pts</b></span></div>
                            ","","learn","7","7","7","learn","7","7","[0, 1, 2, 3, 4, 5, 6, 7, 8, 9]","65","6","setsize","10S10A","animals","1","2","7","1",""
"null","null","fixation","html-keyboard-response","252","598587","0.0-1.0-7.0-3.0-0.66","12:32:31","2","","","","","","","fixation","","","","","","","","","","","","","","","","","","",""
"1393","5","pic_response","html-keyboard-response","253","599981","0.0-1.0-7.0-3.0-1.66","12:32:31","2","","","","","","","<div>
            <img class='stim' src=""pictures/animals/4.jpg""></div><div class=""button_prompt"">
                    <b>请用数字键0-9回答</b>
                    </div>","","","","","","","","","","","","","","","","","","",""
"1393","null","sub_response","html-keyboard-response","254","600982","0.0-1.0-7.0-3.0-2.66","12:32:31","2","","","","","","","<div style='text-align: center;'>
                            <span style=""color: green; font-size: 40px""><b>正确！+1 pts</b></span></div>
                            ","","learn","4","4","4","learn","4","4","[0, 1, 2, 3, 4, 5, 6, 7, 8, 9]","66","6","setsize","10S10A","animals","1","3","4","1",""
"null","null","fixation","html-keyboard-response","255","601483","0.0-1.0-7.0-3.0-0.67","12:32:31","2","","","","","","","fixation","","","","","","","","","","","","","","","","","","",""
"1160","9","pic_response","html-keyboard-response","256","602644","0.0-1.0-7.0-3.0-1.67","12:32:31","2","","","","","","","<div>
            <img class='stim' src=""pictures/animals/8.jpg""></div><div class=""button_prompt"">
                    <b>请用数字键0-9回答</b>
                    </div>","","","","","","","","","","","","","","","","","","",""
"1160","null","sub_response","html-keyboard-response","257","603646","0.0-1.0-7.0-3.0-2.67","12:32:31","2","","","","","","","<div style='text-align: center;'>
                            <span style=""color: green; font-size: 40px""><b>正确！+1 pts</b></span></div>
                            ","","learn","8","8","8","learn","8","8","[0, 1, 2, 3, 4, 5, 6, 7, 8, 9]","67","6","setsize","10S10A","animals","1","4","8","1",""
"null","null","fixation","html-keyboard-response","258","604147","0.0-1.0-7.0-3.0-0.68","12:32:31","2","","","","","","","fixation","","","","","","","","","","","","","","","","","","",""
"1104","6","pic_response","html-keyboard-response","259","605252","0.0-1.0-7.0-3.0-1.68","12:32:31","2","","","","","","","<div>
            <img class='stim' src=""pictures/animals/5.jpg""></div><div class=""button_prompt"">
                    <b>请用数字键0-9回答</b>
                    </div>","","","","","","","","","","","","","","","","","","",""
"1104","null","sub_response","html-keyboard-response","260","606254","0.0-1.0-7.0-3.0-2.68","12:32:31","2","","","","","","","<div style='text-align: center;'>
                            <span style=""color: green; font-size: 40px""><b>正确！+1 pts</b></span></div>
                            ","","learn","5","5","5","learn","5","5","[0, 1, 2, 3, 4, 5, 6, 7, 8, 9]","68","6","setsize","10S10A","animals","1","5","5","1",""
"null","null","fixation","html-keyboard-response","261","606756","0.0-1.0-7.0-3.0-0.69","12:32:31","2","","","","","","","fixation","","","","","","","","","","","","","","","","","","",""
"1200","4","pic_response","html-keyboard-response","262","607957","0.0-1.0-7.0-3.0-1.69","12:32:31","2","","","","","","","<div>
            <img class='stim' src=""pictures/animals/9.jpg""></div><div class=""button_prompt"">
                    <b>请用数字键0-9回答</b>
                    </div>","","","","","","","","","","","","","","","","","","",""
"1200","null","sub_response","html-keyboard-response","263","608958","0.0-1.0-7.0-3.0-2.69","12:32:31","2","","","","","","","<div style='text-align: center;'>
                            <span style=""color: red; font-size: 40px""><b>错误！+0 pts</b></span></div>
                            ","","learn","9","9","9","learn","9","9","[0, 1, 2, 3, 4, 5, 6, 7, 8, 9]","69","6","setsize","10S10A","animals","1","0","3","0",""
"null","null","fixation","html-keyboard-response","264","609460","0.0-1.0-7.0-3.0-0.70","12:32:31","2","","","","","","","fixation","","","","","","","","","","","","","","","","","","",""
"1175","2","pic_response","html-keyboard-response","265","610637","0.0-1.0-7.0-3.0-1.70","12:32:31","2","","","","","","","<div>
            <img class='stim' src=""pictures/animals/1.jpg""></div><div class=""button_prompt"">
                    <b>请用数字键0-9回答</b>
                    </div>","","","","","","","","","","","","","","","","","","",""
"1175","null","sub_response","html-keyboard-response","266","611638","0.0-1.0-7.0-3.0-2.70","12:32:31","2","","","","","","","<div style='text-align: center;'>
                            <span style=""color: green; font-size: 40px""><b>正确！+1 pts</b></span></div>
                            ","","learn","1","1","1","learn","1","1","[0, 1, 2, 3, 4, 5, 6, 7, 8, 9]","70","7","setsize","10S10A","animals","1","1","1","1",""
"null","null","fixation","html-keyboard-response","267","612140","0.0-1.0-7.0-3.0-0.71","12:32:31","2","","","","","","","fixation","","","","","","","","","","","","","","","","","","",""
"947","2","pic_response","html-keyboard-response","268","613087","0.0-1.0-7.0-3.0-1.71","12:32:31","2","","","","","","","<div>
            <img class='stim' src=""pictures/animals/2.jpg""></div><div class=""button_prompt"">
                    <b>请用数字键0-9回答</b>
                    </div>","","","","","","","","","","","","","","","","","","",""
"947","null","sub_response","html-keyboard-response","269","614088","0.0-1.0-7.0-3.0-2.71","12:32:31","2","","","","","","","<div style='text-align: center;'>
                            <span style=""color: red; font-size: 40px""><b>错误！+0 pts</b></span></div>
                            ","","learn","2","2","2","learn","2","2","[0, 1, 2, 3, 4, 5, 6, 7, 8, 9]","71","7","setsize","10S10A","animals","1","0","1","0",""
"null","null","fixation","html-keyboard-response","270","614589","0.0-1.0-7.0-3.0-0.72","12:32:31","2","","","","","","","fixation","","","","","","","","","","","","","","","","","","",""
"1487","9","pic_response","html-keyboard-response","271","616077","0.0-1.0-7.0-3.0-1.72","12:32:31","2","","","","","","","<div>
            <img class='stim' src=""pictures/animals/8.jpg""></div><div class=""button_prompt"">
                    <b>请用数字键0-9回答</b>
                    </div>","","","","","","","","","","","","","","","","","","",""
"1487","null","sub_response","html-keyboard-response","272","617078","0.0-1.0-7.0-3.0-2.72","12:32:31","2","","","","","","","<div style='text-align: center;'>
                            <span style=""color: green; font-size: 40px""><b>正确！+1 pts</b></span></div>
                            ","","learn","8","8","8","learn","8","8","[0, 1, 2, 3, 4, 5, 6, 7, 8, 9]","72","7","setsize","10S10A","animals","1","1","8","1",""
"null","null","fixation","html-keyboard-response","273","617579","0.0-1.0-7.0-3.0-0.73","12:32:31","2","","","","","","","fixation","","","","","","","","","","","","","","","","","","",""
"1306","0","pic_response","html-keyboard-response","274","618887","0.0-1.0-7.0-3.0-1.73","12:32:31","2","","","","","","","<div>
            <img class='stim' src=""pictures/animals/9.jpg""></div><div class=""button_prompt"">
                    <b>请用数字键0-9回答</b>
                    </div>","","","","","","","","","","","","","","","","","","",""
"1306","null","sub_response","html-keyboard-response","275","619888","0.0-1.0-7.0-3.0-2.73","12:32:31","2","","","","","","","<div style='text-align: center;'>
                            <span style=""color: green; font-size: 40px""><b>正确！+1 pts</b></span></div>
                            ","","learn","9","9","9","learn","9","9","[0, 1, 2, 3, 4, 5, 6, 7, 8, 9]","73","7","setsize","10S10A","animals","1","2","9","1",""
"null","null","fixation","html-keyboard-response","276","620390","0.0-1.0-7.0-3.0-0.74","12:32:31","2","","","","","","","fixation","","","","","","","","","","","","","","","","","","",""
"2053","4","pic_response","html-keyboard-response","277","622443","0.0-1.0-7.0-3.0-1.74","12:32:31","2","","","","","","","<div>
            <img class='stim' src=""pictures/animals/4.jpg""></div><div class=""button_prompt"">
                    <b>请用数字键0-9回答</b>
                    </div>","","","","","","","","","","","","","","","","","","",""
"2053","null","sub_response","html-keyboard-response","278","623445","0.0-1.0-7.0-3.0-2.74","12:32:31","2","","","","","","","<div style='text-align: center;'>
                            <span style=""color: red; font-size: 40px""><b>错误！+0 pts</b></span></div>
                            ","","learn","4","4","4","learn","4","4","[0, 1, 2, 3, 4, 5, 6, 7, 8, 9]","74","7","setsize","10S10A","animals","1","0","3","0",""
"null","null","fixation","html-keyboard-response","279","623947","0.0-1.0-7.0-3.0-0.75","12:32:31","2","","","","","","","fixation","","","","","","","","","","","","","","","","","","",""
"1673","4","pic_response","html-keyboard-response","280","625621","0.0-1.0-7.0-3.0-1.75","12:32:31","2","","","","","","","<div>
            <img class='stim' src=""pictures/animals/5.jpg""></div><div class=""button_prompt"">
                    <b>请用数字键0-9回答</b>
                    </div>","","","","","","","","","","","","","","","","","","",""
"1673","null","sub_response","html-keyboard-response","281","626623","0.0-1.0-7.0-3.0-2.75","12:32:31","2","","","","","","","<div style='text-align: center;'>
                            <span style=""color: red; font-size: 40px""><b>错误！+0 pts</b></span></div>
                            ","","learn","5","5","5","learn","5","5","[0, 1, 2, 3, 4, 5, 6, 7, 8, 9]","75","7","setsize","10S10A","animals","1","0","3","0",""
"null","null","fixation","html-keyboard-response","282","627124","0.0-1.0-7.0-3.0-0.76","12:32:31","2","","","","","","","fixation","","","","","","","","","","","","","","","","","","",""
"1131","7","pic_response","html-keyboard-response","283","628256","0.0-1.0-7.0-3.0-1.76","12:32:31","2","","","","","","","<div>
            <img class='stim' src=""pictures/animals/6.jpg""></div><div class=""button_prompt"">
                    <b>请用数字键0-9回答</b>
                    </div>","","","","","","","","","","","","","","","","","","",""
"1131","null","sub_response","html-keyboard-response","284","629257","0.0-1.0-7.0-3.0-2.76","12:32:31","2","","","","","","","<div style='text-align: center;'>
                            <span style=""color: green; font-size: 40px""><b>正确！+1 pts</b></span></div>
                            ","","learn","6","6","6","learn","6","6","[0, 1, 2, 3, 4, 5, 6, 7, 8, 9]","76","7","setsize","10S10A","animals","1","1","6","1",""
"null","null","fixation","html-keyboard-response","285","629759","0.0-1.0-7.0-3.0-0.77","12:32:31","2","","","","","","","fixation","","","","","","","","","","","","","","","","","","",""
"1007","8","pic_response","html-keyboard-response","286","630767","0.0-1.0-7.0-3.0-1.77","12:32:31","2","","","","","","","<div>
            <img class='stim' src=""pictures/animals/7.jpg""></div><div class=""button_prompt"">
                    <b>请用数字键0-9回答</b>
                    </div>","","","","","","","","","","","","","","","","","","",""
"1007","null","sub_response","html-keyboard-response","287","631768","0.0-1.0-7.0-3.0-2.77","12:32:31","2","","","","","","","<div style='text-align: center;'>
                            <span style=""color: green; font-size: 40px""><b>正确！+1 pts</b></span></div>
                            ","","learn","7","7","7","learn","7","7","[0, 1, 2, 3, 4, 5, 6, 7, 8, 9]","77","7","setsize","10S10A","animals","1","2","7","1",""
"null","null","fixation","html-keyboard-response","288","632269","0.0-1.0-7.0-3.0-0.78","12:32:31","2","","","","","","","fixation","","","","","","","","","","","","","","","","","","",""
"743","6","pic_response","html-keyboard-response","289","633013","0.0-1.0-7.0-3.0-1.78","12:32:31","2","","","","","","","<div>
            <img class='stim' src=""pictures/animals/3.jpg""></div><div class=""button_prompt"">
                    <b>请用数字键0-9回答</b>
                    </div>","","","","","","","","","","","","","","","","","","",""
"743","null","sub_response","html-keyboard-response","290","634015","0.0-1.0-7.0-3.0-2.78","12:32:31","2","","","","","","","<div style='text-align: center;'>
                            <span style=""color: red; font-size: 40px""><b>错误！+0 pts</b></span></div>
                            ","","learn","3","3","3","learn","3","3","[0, 1, 2, 3, 4, 5, 6, 7, 8, 9]","78","7","setsize","10S10A","animals","1","0","5","0",""
"null","null","fixation","html-keyboard-response","291","634516","0.0-1.0-7.0-3.0-0.79","12:32:31","2","","","","","","","fixation","","","","","","","","","","","","","","","","","","",""
"1099","1","pic_response","html-keyboard-response","292","635616","0.0-1.0-7.0-3.0-1.79","12:32:31","2","","","","","","","<div>
            <img class='stim' src=""pictures/animals/0.jpg""></div><div class=""button_prompt"">
                    <b>请用数字键0-9回答</b>
                    </div>","","","","","","","","","","","","","","","","","","",""
"1099","null","sub_response","html-keyboard-response","293","636617","0.0-1.0-7.0-3.0-2.79","12:32:31","2","","","","","","","<div style='text-align: center;'>
                            <span style=""color: green; font-size: 40px""><b>正确！+1 pts</b></span></div>
                            ","","learn","0","0","0","learn","0","0","[0, 1, 2, 3, 4, 5, 6, 7, 8, 9]","79","7","setsize","10S10A","animals","1","1","0","1",""
"null","null","fixation","html-keyboard-response","294","637118","0.0-1.0-7.0-3.0-0.80","12:32:31","2","","","","","","","fixation","","","","","","","","","","","","","","","","","","",""
"791","1","pic_response","html-keyboard-response","295","637910","0.0-1.0-7.0-3.0-1.80","12:32:31","2","","","","","","","<div>
            <img class='stim' src=""pictures/animals/0.jpg""></div><div class=""button_prompt"">
                    <b>请用数字键0-9回答</b>
                    </div>","","","","","","","","","","","","","","","","","","",""
"791","null","sub_response","html-keyboard-response","296","638911","0.0-1.0-7.0-3.0-2.80","12:32:31","2","","","","","","","<div style='text-align: center;'>
                            <span style=""color: green; font-size: 40px""><b>正确！+1 pts</b></span></div>
                            ","","learn","0","0","0","learn","0","0","[0, 1, 2, 3, 4, 5, 6, 7, 8, 9]","80","8","setsize","10S10A","animals","1","2","0","1",""
"null","null","fixation","html-keyboard-response","297","639414","0.0-1.0-7.0-3.0-0.81","12:32:31","2","","","","","","","fixation","","","","","","","","","","","","","","","","","","",""
"1575","0","pic_response","html-keyboard-response","298","640990","0.0-1.0-7.0-3.0-1.81","12:32:31","2","","","","","","","<div>
            <img class='stim' src=""pictures/animals/7.jpg""></div><div class=""button_prompt"">
                    <b>请用数字键0-9回答</b>
                    </div>","","","","","","","","","","","","","","","","","","",""
"1575","null","sub_response","html-keyboard-response","299","641991","0.0-1.0-7.0-3.0-2.81","12:32:31","2","","","","","","","<div style='text-align: center;'>
                            <span style=""color: red; font-size: 40px""><b>错误！+0 pts</b></span></div>
                            ","","learn","7","7","7","learn","7","7","[0, 1, 2, 3, 4, 5, 6, 7, 8, 9]","81","8","setsize","10S10A","animals","1","0","9","0",""
"null","null","fixation","html-keyboard-response","300","642493","0.0-1.0-7.0-3.0-0.82","12:32:31","2","","","","","","","fixation","","","","","","","","","","","","","","","","","","",""
"1023","7","pic_response","html-keyboard-response","301","643517","0.0-1.0-7.0-3.0-1.82","12:32:31","2","","","","","","","<div>
            <img class='stim' src=""pictures/animals/6.jpg""></div><div class=""button_prompt"">
                    <b>请用数字键0-9回答</b>
                    </div>","","","","","","","","","","","","","","","","","","",""
"1023","null","sub_response","html-keyboard-response","302","644519","0.0-1.0-7.0-3.0-2.82","12:32:31","2","","","","","","","<div style='text-align: center;'>
                            <span style=""color: green; font-size: 40px""><b>正确！+1 pts</b></span></div>
                            ","","learn","6","6","6","learn","6","6","[0, 1, 2, 3, 4, 5, 6, 7, 8, 9]","82","8","setsize","10S10A","animals","1","1","6","1",""
"null","null","fixation","html-keyboard-response","303","645021","0.0-1.0-7.0-3.0-0.83","12:32:31","2","","","","","","","fixation","","","","","","","","","","","","","","","","","","",""
"1553","3","pic_response","html-keyboard-response","304","646574","0.0-1.0-7.0-3.0-1.83","12:32:31","2","","","","","","","<div>
            <img class='stim' src=""pictures/animals/1.jpg""></div><div class=""button_prompt"">
                    <b>请用数字键0-9回答</b>
                    </div>","","","","","","","","","","","","","","","","","","",""
"1553","null","sub_response","html-keyboard-response","305","647576","0.0-1.0-7.0-3.0-2.83","12:32:31","2","","","","","","","<div style='text-align: center;'>
                            <span style=""color: red; font-size: 40px""><b>错误！+0 pts</b></span></div>
                            ","","learn","1","1","1","learn","1","1","[0, 1, 2, 3, 4, 5, 6, 7, 8, 9]","83","8","setsize","10S10A","animals","1","0","2","0",""
"null","null","fixation","html-keyboard-response","306","648077","0.0-1.0-7.0-3.0-0.84","12:32:31","2","","","","","","","fixation","","","","","","","","","","","","","","","","","","",""
"951","9","pic_response","html-keyboard-response","307","649029","0.0-1.0-7.0-3.0-1.84","12:32:31","2","","","","","","","<div>
            <img class='stim' src=""pictures/animals/8.jpg""></div><div class=""button_prompt"">
                    <b>请用数字键0-9回答</b>
                    </div>","","","","","","","","","","","","","","","","","","",""
"951","null","sub_response","html-keyboard-response","308","650030","0.0-1.0-7.0-3.0-2.84","12:32:31","2","","","","","","","<div style='text-align: center;'>
                            <span style=""color: green; font-size: 40px""><b>正确！+1 pts</b></span></div>
                            ","","learn","8","8","8","learn","8","8","[0, 1, 2, 3, 4, 5, 6, 7, 8, 9]","84","8","setsize","10S10A","animals","1","1","8","1",""
"null","null","fixation","html-keyboard-response","309","650532","0.0-1.0-7.0-3.0-0.85","12:32:31","2","","","","","","","fixation","","","","","","","","","","","","","","","","","","",""
"1313","0","pic_response","html-keyboard-response","310","651845","0.0-1.0-7.0-3.0-1.85","12:32:31","2","","","","","","","<div>
            <img class='stim' src=""pictures/animals/9.jpg""></div><div class=""button_prompt"">
                    <b>请用数字键0-9回答</b>
                    </div>","","","","","","","","","","","","","","","","","","",""
"1313","null","sub_response","html-keyboard-response","311","652847","0.0-1.0-7.0-3.0-2.85","12:32:31","2","","","","","","","<div style='text-align: center;'>
                            <span style=""color: green; font-size: 40px""><b>正确！+1 pts</b></span></div>
                            ","","learn","9","9","9","learn","9","9","[0, 1, 2, 3, 4, 5, 6, 7, 8, 9]","85","8","setsize","10S10A","animals","1","2","9","1",""
"null","null","fixation","html-keyboard-response","312","653348","0.0-1.0-7.0-3.0-0.86","12:32:31","2","","","","","","","fixation","","","","","","","","","","","","","","","","","","",""
"1343","6","pic_response","html-keyboard-response","313","654693","0.0-1.0-7.0-3.0-1.86","12:32:31","2","","","","","","","<div>
            <img class='stim' src=""pictures/animals/5.jpg""></div><div class=""button_prompt"">
                    <b>请用数字键0-9回答</b>
                    </div>","","","","","","","","","","","","","","","","","","",""
"1343","null","sub_response","html-keyboard-response","314","655694","0.0-1.0-7.0-3.0-2.86","12:32:31","2","","","","","","","<div style='text-align: center;'>
                            <span style=""color: green; font-size: 40px""><b>正确！+1 pts</b></span></div>
                            ","","learn","5","5","5","learn","5","5","[0, 1, 2, 3, 4, 5, 6, 7, 8, 9]","86","8","setsize","10S10A","animals","1","3","5","1",""
"null","null","fixation","html-keyboard-response","315","656195","0.0-1.0-7.0-3.0-0.87","12:32:31","2","","","","","","","fixation","","","","","","","","","","","","","","","","","","",""
