"rt","response","screen_id","trial_type","trial_index","time_elapsed","internal_node_id","start_time","n_Prac","success","timeout","failed_images","failed_audio","failed_video","view_history","stimulus","question_order","stage","s","word","word_id","phase","a_cor","a_real","a_ava","trial","tps","task_type","block_typ","pic_typ","block_id","cum_r","a","r","plugin_name"
"176877","{""sub_id"":""009"",""task_type"":""task1"",""name"":""谢铭启"",""gender"":""F""}","basic_info","survey-html-form","0","176884","0.0-0.0","01:29:21","2","","","","","","","","","","","","","","","","","","","","","","","","","",""
"","","","preload","1","178252","0.0-1.0-0.0","01:29:21","2","true","false","[]","[]","[]","","","","","","","","","","","","","","","","","","","","",""
"","","","preload","2","178532","0.0-1.0-1.0","01:29:21","2","true","false","[]","[]","[]","","","","","","","","","","","","","","","","","","","","",""
"","","","fullscreen","3","181591","0.0-1.0-2.0","01:29:21","2","true","","","","","","","","","","","","","","","","","","","","","","","","",""
"72314","","instruct","instructions","4","253906","0.0-1.0-3.0-0.0","01:29:21","2","","","","","","[{""page_index"":0,""viewing_time"":34060},{""page_index"":1,""viewing_time"":23796},{""page_index"":2,""viewing_time"":14456}]","","","","","","","","","","","","","","","","","","","",""
"39095","{""Q0"":"""",""task1"":""<span style='font-size: 24px'>学习图片和数字的对应关系</span>"",""task2"":""<span style='font-size: 24px'> 图片下方标注为可用的数字键（数字键1-3或0-9） </span>"",""task3"":""<span style='font-size: 24px'> 看到图片选出正确对应的数字 </span>""}","question","survey-multi-choice","5","293005","0.0-1.0-3.0-1.0","01:29:21","2","","","","","","","","[0,1,2,3]","","","","","","","","","","","","","","","","","",""
"5896"," ","inst_q","html-keyboard-response","6","298904","0.0-1.0-3.0-2.0","01:29:21","2","","","","","","","inst","","1","","","","","","","","","","","","","","","","",""
"","","","preload","7","299041","0.0-1.0-4.0-0.0","01:29:21","2","true","false","[]","[]","[]","","","","","","","","","","","","","","","","","","","","",""
"18846"," ","","html-keyboard-response","8","317889","0.0-1.0-4.0-1.0","01:29:21","2","","","","","","","<div style='font-size: 32px; text-align: center;'
                    <p>请学习图片和数字之间的对应关系</p>
                    <p>我们将<span style='color: blue'><b> 告诉 </b></span>您选择的对错。请根据反馈学习。</p>
                    <p>请按""空格""继续实验。</p></div>","","","","","","","","","","","","","","","","","","",""
"10637"," ","inst","html-keyboard-response","9","328527","0.0-1.0-4.0-2.0","01:29:21","2","","","","","","","<img class='instruct_stim' src=""instruction/prac3.PNG""></div>","","","","","","","","","","","","","","","","","","",""
"null","null","fixation","html-keyboard-response","10","329030","0.0-1.0-4.0-3.0-0.0","01:29:21","2","","","","","","","fixation","","","","","","","","","","","","","","","","","","",""
"2175","1","pic_response","html-keyboard-response","11","331207","0.0-1.0-4.0-3.0-1.0","01:29:21","2","","","","","","","<div>
            <img class='stim' src=""pictures/prac/1.jpg""></div><div class=""button_prompt"">
                        <b>请用数字键1-3回答</b>
                        </div>","","","","","","","","","","","","","","","","","","",""
"2175","null","sub_response","html-keyboard-response","12","332208","0.0-1.0-4.0-3.0-2.0","01:29:21","2","","","","","","","<div style='text-align: center;'>
                            <span style=""color: green; font-size: 40px""><b>正确！+1 pts</b></span></div>
                            ","","learn","1","1","1","learn","0","0","[0, 1, 2]","0","0","setsize","99","prac","0","1","0","1",""
"null","null","fixation","html-keyboard-response","13","332711","0.0-1.0-4.0-3.0-0.1","01:29:21","2","","","","","","","fixation","","","","","","","","","","","","","","","","","","",""
"943","1","pic_response","html-keyboard-response","14","333655","0.0-1.0-4.0-3.0-1.1","01:29:21","2","","","","","","","<div>
            <img class='stim' src=""pictures/prac/0.jpg""></div><div class=""button_prompt"">
                        <b>请用数字键1-3回答</b>
                        </div>","","","","","","","","","","","","","","","","","","",""
"943","null","sub_response","html-keyboard-response","15","334657","0.0-1.0-4.0-3.0-2.1","01:29:21","2","","","","","","","<div style='text-align: center;'>
                            <span style=""color: green; font-size: 40px""><b>正确！+1 pts</b></span></div>
                            ","","learn","0","0","0","learn","0","0","[0, 1, 2]","1","0","setsize","99","prac","0","2","0","1",""
"null","null","fixation","html-keyboard-response","16","335158","0.0-1.0-4.0-3.0-0.2","01:29:21","2","","","","","","","fixation","","","","","","","","","","","","","","","","","","",""
"486","1","pic_response","html-keyboard-response","17","335645","0.0-1.0-4.0-3.0-1.2","01:29:21","2","","","","","","","<div>
            <img class='stim' src=""pictures/prac/2.jpg""></div><div class=""button_prompt"">
                        <b>请用数字键1-3回答</b>
                        </div>","","","","","","","","","","","","","","","","","","",""
"486","null","sub_response","html-keyboard-response","18","336647","0.0-1.0-4.0-3.0-2.2","01:29:21","2","","","","","","","<div style='text-align: center;'>
                            <span style=""color: red; font-size: 40px""><b>错误！+0 pts</b></span></div>
                            ","","learn","2","2","2","learn","2","2","[0, 1, 2]","2","0","setsize","99","prac","0","0","0","0",""
"null","null","fixation","html-keyboard-response","19","337149","0.0-1.0-4.0-3.0-0.3","01:29:21","2","","","","","","","fixation","","","","","","","","","","","","","","","","","","",""
"2216","2","pic_response","html-keyboard-response","20","339367","0.0-1.0-4.0-3.0-1.3","01:29:21","2","","","","","","","<div>
            <img class='stim' src=""pictures/prac/2.jpg""></div><div class=""button_prompt"">
                        <b>请用数字键1-3回答</b>
                        </div>","","","","","","","","","","","","","","","","","","",""
"2216","null","sub_response","html-keyboard-response","21","340370","0.0-1.0-4.0-3.0-2.3","01:29:21","2","","","","","","","<div style='text-align: center;'>
                            <span style=""color: red; font-size: 40px""><b>错误！+0 pts</b></span></div>
                            ","","learn","2","2","2","learn","2","2","[0, 1, 2]","3","1","setsize","99","prac","0","0","1","0",""
"null","null","fixation","html-keyboard-response","22","340872","0.0-1.0-4.0-3.0-0.4","01:29:21","2","","","","","","","fixation","","","","","","","","","","","","","","","","","","",""
"904","1","pic_response","html-keyboard-response","23","341777","0.0-1.0-4.0-3.0-1.4","01:29:21","2","","","","","","","<div>
            <img class='stim' src=""pictures/prac/0.jpg""></div><div class=""button_prompt"">
                        <b>请用数字键1-3回答</b>
                        </div>","","","","","","","","","","","","","","","","","","",""
"904","null","sub_response","html-keyboard-response","24","342779","0.0-1.0-4.0-3.0-2.4","01:29:21","2","","","","","","","<div style='text-align: center;'>
                            <span style=""color: green; font-size: 40px""><b>正确！+1 pts</b></span></div>
                            ","","learn","0","0","0","learn","0","0","[0, 1, 2]","4","1","setsize","99","prac","0","1","0","1",""
"null","null","fixation","html-keyboard-response","25","343280","0.0-1.0-4.0-3.0-0.5","01:29:21","2","","","","","","","fixation","","","","","","","","","","","","","","","","","","",""
"1106","1","pic_response","html-keyboard-response","26","344387","0.0-1.0-4.0-3.0-1.5","01:29:21","2","","","","","","","<div>
            <img class='stim' src=""pictures/prac/1.jpg""></div><div class=""button_prompt"">
                        <b>请用数字键1-3回答</b>
                        </div>","","","","","","","","","","","","","","","","","","",""
"1106","null","sub_response","html-keyboard-response","27","345389","0.0-1.0-4.0-3.0-2.5","01:29:21","2","","","","","","","<div style='text-align: center;'>
                            <span style=""color: green; font-size: 40px""><b>正确！+1 pts</b></span></div>
                            ","","learn","1","1","1","learn","0","0","[0, 1, 2]","5","1","setsize","99","prac","0","2","0","1",""
"","","","preload","28","345393","0.0-1.0-4.1-0.1","01:29:21","2","true","false","[]","[]","[]","","","","","","","","","","","","","","","","","","","","",""
"11733"," ","","html-keyboard-response","29","357127","0.0-1.0-4.1-1.1","01:29:21","2","","","","","","","<div style='font-size: 32px; text-align: center;'
                    <p>请学习图片和数字之间的对应关系</p>
                    <p>我们将<span style='color: blue'><b> 告诉 </b></span>您选择的对错。请根据反馈学习。</p>
                    <p>请按""空格""继续实验。</p></div>","","","","","","","","","","","","","","","","","","",""
"799"," ","inst","html-keyboard-response","30","357927","0.0-1.0-4.1-2.1","01:29:21","2","","","","","","","<img class='instruct_stim' src=""instruction/prac3.PNG""></div>","","","","","","","","","","","","","","","","","","",""
"null","null","fixation","html-keyboard-response","31","358428","0.0-1.0-4.1-3.1-0.6","01:29:21","2","","","","","","","fixation","","","","","","","","","","","","","","","","","","",""
"1441","1","pic_response","html-keyboard-response","32","359871","0.0-1.0-4.1-3.1-1.6","01:29:21","2","","","","","","","<div>
            <img class='stim' src=""pictures/prac/1.jpg""></div><div class=""button_prompt"">
                        <b>请用数字键1-3回答</b>
                        </div>","","","","","","","","","","","","","","","","","","",""
"1441","null","sub_response","html-keyboard-response","33","360872","0.0-1.0-4.1-3.1-2.6","01:29:21","2","","","","","","","<div style='text-align: center;'>
                            <span style=""color: green; font-size: 40px""><b>正确！+1 pts</b></span></div>
                            ","","learn","1","1","1","learn","0","0","[0, 1, 2]","0","0","setsize","99","prac","0","3","0","1",""
"null","null","fixation","html-keyboard-response","34","361375","0.0-1.0-4.1-3.1-0.7","01:29:21","2","","","","","","","fixation","","","","","","","","","","","","","","","","","","",""
"968","1","pic_response","html-keyboard-response","35","362344","0.0-1.0-4.1-3.1-1.7","01:29:21","2","","","","","","","<div>
            <img class='stim' src=""pictures/prac/0.jpg""></div><div class=""button_prompt"">
                        <b>请用数字键1-3回答</b>
                        </div>","","","","","","","","","","","","","","","","","","",""
"968","null","sub_response","html-keyboard-response","36","363346","0.0-1.0-4.1-3.1-2.7","01:29:21","2","","","","","","","<div style='text-align: center;'>
                            <span style=""color: green; font-size: 40px""><b>正确！+1 pts</b></span></div>
                            ","","learn","0","0","0","learn","0","0","[0, 1, 2]","1","0","setsize","99","prac","0","4","0","1",""
"null","null","fixation","html-keyboard-response","37","363848","0.0-1.0-4.1-3.1-0.8","01:29:21","2","","","","","","","fixation","","","","","","","","","","","","","","","","","","",""
"1006","2","pic_response","html-keyboard-response","38","364855","0.0-1.0-4.1-3.1-1.8","01:29:21","2","","","","","","","<div>
            <img class='stim' src=""pictures/prac/2.jpg""></div><div class=""button_prompt"">
                        <b>请用数字键1-3回答</b>
                        </div>","","","","","","","","","","","","","","","","","","",""
"1006","null","sub_response","html-keyboard-response","39","365869","0.0-1.0-4.1-3.1-2.8","01:29:21","2","","","","","","","<div style='text-align: center;'>
                            <span style=""color: red; font-size: 40px""><b>错误！+0 pts</b></span></div>
                            ","","learn","2","2","2","learn","2","2","[0, 1, 2]","2","0","setsize","99","prac","0","0","1","0",""
"null","null","fixation","html-keyboard-response","40","366372","0.0-1.0-4.1-3.1-0.9","01:29:21","2","","","","","","","fixation","","","","","","","","","","","","","","","","","","",""
"2106","3","pic_response","html-keyboard-response","41","368479","0.0-1.0-4.1-3.1-1.9","01:29:21","2","","","","","","","<div>
            <img class='stim' src=""pictures/prac/2.jpg""></div><div class=""button_prompt"">
                        <b>请用数字键1-3回答</b>
                        </div>","","","","","","","","","","","","","","","","","","",""
"2106","null","sub_response","html-keyboard-response","42","369481","0.0-1.0-4.1-3.1-2.9","01:29:21","2","","","","","","","<div style='text-align: center;'>
                            <span style=""color: green; font-size: 40px""><b>正确！+1 pts</b></span></div>
                            ","","learn","2","2","2","learn","2","2","[0, 1, 2]","3","1","setsize","99","prac","0","1","2","1",""
"null","null","fixation","html-keyboard-response","43","369983","0.0-1.0-4.1-3.1-0.10","01:29:21","2","","","","","","","fixation","","","","","","","","","","","","","","","","","","",""
"711","1","pic_response","html-keyboard-response","44","370695","0.0-1.0-4.1-3.1-1.10","01:29:21","2","","","","","","","<div>
            <img class='stim' src=""pictures/prac/0.jpg""></div><div class=""button_prompt"">
                        <b>请用数字键1-3回答</b>
                        </div>","","","","","","","","","","","","","","","","","","",""
"711","null","sub_response","html-keyboard-response","45","371697","0.0-1.0-4.1-3.1-2.10","01:29:21","2","","","","","","","<div style='text-align: center;'>
                            <span style=""color: green; font-size: 40px""><b>正确！+1 pts</b></span></div>
                            ","","learn","0","0","0","learn","0","0","[0, 1, 2]","4","1","setsize","99","prac","0","2","0","1",""
"null","null","fixation","html-keyboard-response","46","372198","0.0-1.0-4.1-3.1-0.11","01:29:21","2","","","","","","","fixation","","","","","","","","","","","","","","","","","","",""
"1088","1","pic_response","html-keyboard-response","47","373287","0.0-1.0-4.1-3.1-1.11","01:29:21","2","","","","","","","<div>
            <img class='stim' src=""pictures/prac/1.jpg""></div><div class=""button_prompt"">
                        <b>请用数字键1-3回答</b>
                        </div>","","","","","","","","","","","","","","","","","","",""
"1088","null","sub_response","html-keyboard-response","48","374288","0.0-1.0-4.1-3.1-2.11","01:29:21","2","","","","","","","<div style='text-align: center;'>
                            <span style=""color: green; font-size: 40px""><b>正确！+1 pts</b></span></div>
                            ","","learn","1","1","1","learn","0","0","[0, 1, 2]","5","1","setsize","99","prac","0","3","0","1",""
"null","null","","html-keyboard-response","49","434290","0.0-1.0-5.0","01:29:21","2","","","","","","","<div style=""font-size: 25px""><p>距下一个实验开始还有</p><div style=""font-size: 50px; color: blue""><p><span id=""clock"">1:00</span></div></p><p>按""空格""跳过休息</p></div>","","","","","","","","","","","","","","","","","","",""
"21970"," ","","html-keyboard-response","50","456262","0.0-1.0-6.0","01:29:21","2","","","","","","","<div style='font-size: 32px; text-align: center;'
                    <p>请按""空格""继续正式实验。</p></div>","","","","","","","","","","","","","","","","","","",""
"","","","preload","51","456959","0.0-1.0-7.0-0.0","01:29:21","2","true","false","[]","[]","[]","","","","","","","","","","","","","","","","","","","","",""
"656"," ","","html-keyboard-response","52","457615","0.0-1.0-7.0-1.0","01:29:21","2","","","","","","","<div style='font-size: 32px; text-align: center;'
                    <p>请学习图片和数字之间的对应关系</p>
                    <p>我们将<span style='color: blue'><b> 告诉 </b></span>您选择的对错。请根据反馈学习。</p>
                    <p>请按""空格""继续实验。</p></div>","","","","","","","","","","","","","","","","","","",""
"11623"," ","inst","html-keyboard-response","53","469239","0.0-1.0-7.0-2.0","01:29:21","2","","","","","","","<img class='instruct_stim' src=""instruction/food3.PNG""></div>","","","","","","","","","","","","","","","","","","",""
"null","null","fixation","html-keyboard-response","54","469747","0.0-1.0-7.0-3.0-0.0","01:29:21","2","","","","","","","fixation","","","","","","","","","","","","","","","","","","",""
"1063","1","pic_response","html-keyboard-response","55","470811","0.0-1.0-7.0-3.0-1.0","01:29:21","2","","","","","","","<div>
            <img class='stim' src=""pictures/food/0.jpg""></div><div class=""button_prompt"">
                        <b>请用数字键1-3回答</b>
                        </div>","","","","","","","","","","","","","","","","","","",""
"1063","null","sub_response","html-keyboard-response","56","471813","0.0-1.0-7.0-3.0-2.0","01:29:21","2","","","","","","","<div style='text-align: center;'>
                            <span style=""color: green; font-size: 40px""><b>正确！+1 pts</b></span></div>
                            ","","learn","0","0","0","learn","0","0","[0, 1, 2]","0","0","setsize","3S3A","food","1","4","0","1",""
"null","null","fixation","html-keyboard-response","57","472315","0.0-1.0-7.0-3.0-0.1","01:29:21","2","","","","","","","fixation","","","","","","","","","","","","","","","","","","",""
"906","1","pic_response","html-keyboard-response","58","473223","0.0-1.0-7.0-3.0-1.1","01:29:21","2","","","","","","","<div>
            <img class='stim' src=""pictures/food/2.jpg""></div><div class=""button_prompt"">
                        <b>请用数字键1-3回答</b>
                        </div>","","","","","","","","","","","","","","","","","","",""
"906","null","sub_response","html-keyboard-response","59","474224","0.0-1.0-7.0-3.0-2.1","01:29:21","2","","","","","","","<div style='text-align: center;'>
                            <span style=""color: red; font-size: 40px""><b>错误！+0 pts</b></span></div>
                            ","","learn","2","2","2","learn","2","2","[0, 1, 2]","1","0","setsize","3S3A","food","1","0","0","0",""
"null","null","fixation","html-keyboard-response","60","474727","0.0-1.0-7.0-3.0-0.2","01:29:21","2","","","","","","","fixation","","","","","","","","","","","","","","","","","","",""
"831","1","pic_response","html-keyboard-response","61","475559","0.0-1.0-7.0-3.0-1.2","01:29:21","2","","","","","","","<div>
            <img class='stim' src=""pictures/food/1.jpg""></div><div class=""button_prompt"">
                        <b>请用数字键1-3回答</b>
                        </div>","","","","","","","","","","","","","","","","","","",""
"831","null","sub_response","html-keyboard-response","62","476560","0.0-1.0-7.0-3.0-2.2","01:29:21","2","","","","","","","<div style='text-align: center;'>
                            <span style=""color: green; font-size: 40px""><b>正确！+1 pts</b></span></div>
                            ","","learn","1","1","1","learn","0","0","[0, 1, 2]","2","0","setsize","3S3A","food","1","1","0","1",""
"null","null","fixation","html-keyboard-response","63","477061","0.0-1.0-7.0-3.0-0.3","01:29:21","2","","","","","","","fixation","","","","","","","","","","","","","","","","","","",""
"1073","1","pic_response","html-keyboard-response","64","478135","0.0-1.0-7.0-3.0-1.3","01:29:21","2","","","","","","","<div>
            <img class='stim' src=""pictures/food/1.jpg""></div><div class=""button_prompt"">
                        <b>请用数字键1-3回答</b>
                        </div>","","","","","","","","","","","","","","","","","","",""
"1073","null","sub_response","html-keyboard-response","65","479136","0.0-1.0-7.0-3.0-2.3","01:29:21","2","","","","","","","<div style='text-align: center;'>
                            <span style=""color: green; font-size: 40px""><b>正确！+1 pts</b></span></div>
                            ","","learn","1","1","1","learn","0","0","[0, 1, 2]","3","1","setsize","3S3A","food","1","2","0","1",""
"null","null","fixation","html-keyboard-response","66","479638","0.0-1.0-7.0-3.0-0.4","01:29:21","2","","","","","","","fixation","","","","","","","","","","","","","","","","","","",""
"1150","2","pic_response","html-keyboard-response","67","480789","0.0-1.0-7.0-3.0-1.4","01:29:21","2","","","","","","","<div>
            <img class='stim' src=""pictures/food/2.jpg""></div><div class=""button_prompt"">
                        <b>请用数字键1-3回答</b>
                        </div>","","","","","","","","","","","","","","","","","","",""
"1150","null","sub_response","html-keyboard-response","68","481790","0.0-1.0-7.0-3.0-2.4","01:29:21","2","","","","","","","<div style='text-align: center;'>
                            <span style=""color: red; font-size: 40px""><b>错误！+0 pts</b></span></div>
                            ","","learn","2","2","2","learn","2","2","[0, 1, 2]","4","1","setsize","3S3A","food","1","0","1","0",""
"null","null","fixation","html-keyboard-response","69","482292","0.0-1.0-7.0-3.0-0.5","01:29:21","2","","","","","","","fixation","","","","","","","","","","","","","","","","","","",""
"610","1","pic_response","html-keyboard-response","70","482903","0.0-1.0-7.0-3.0-1.5","01:29:21","2","","","","","","","<div>
            <img class='stim' src=""pictures/food/0.jpg""></div><div class=""button_prompt"">
                        <b>请用数字键1-3回答</b>
                        </div>","","","","","","","","","","","","","","","","","","",""
"610","null","sub_response","html-keyboard-response","71","483905","0.0-1.0-7.0-3.0-2.5","01:29:21","2","","","","","","","<div style='text-align: center;'>
                            <span style=""color: green; font-size: 40px""><b>正确！+1 pts</b></span></div>
                            ","","learn","0","0","0","learn","0","0","[0, 1, 2]","5","1","setsize","3S3A","food","1","1","0","1",""
"null","null","fixation","html-keyboard-response","72","484406","0.0-1.0-7.0-3.0-0.6","01:29:21","2","","","","","","","fixation","","","","","","","","","","","","","","","","","","",""
"1143","3","pic_response","html-keyboard-response","73","485550","0.0-1.0-7.0-3.0-1.6","01:29:21","2","","","","","","","<div>
            <img class='stim' src=""pictures/food/2.jpg""></div><div class=""button_prompt"">
                        <b>请用数字键1-3回答</b>
                        </div>","","","","","","","","","","","","","","","","","","",""
"1143","null","sub_response","html-keyboard-response","74","486552","0.0-1.0-7.0-3.0-2.6","01:29:21","2","","","","","","","<div style='text-align: center;'>
                            <span style=""color: green; font-size: 40px""><b>正确！+1 pts</b></span></div>
                            ","","learn","2","2","2","learn","2","2","[0, 1, 2]","6","2","setsize","3S3A","food","1","2","2","1",""
"null","null","fixation","html-keyboard-response","75","487054","0.0-1.0-7.0-3.0-0.7","01:29:21","2","","","","","","","fixation","","","","","","","","","","","","","","","","","","",""
"664","1","pic_response","html-keyboard-response","76","487719","0.0-1.0-7.0-3.0-1.7","01:29:21","2","","","","","","","<div>
            <img class='stim' src=""pictures/food/0.jpg""></div><div class=""button_prompt"">
                        <b>请用数字键1-3回答</b>
                        </div>","","","","","","","","","","","","","","","","","","",""
"664","null","sub_response","html-keyboard-response","77","488720","0.0-1.0-7.0-3.0-2.7","01:29:21","2","","","","","","","<div style='text-align: center;'>
                            <span style=""color: green; font-size: 40px""><b>正确！+1 pts</b></span></div>
                            ","","learn","0","0","0","learn","0","0","[0, 1, 2]","7","2","setsize","3S3A","food","1","3","0","1",""
"null","null","fixation","html-keyboard-response","78","489222","0.0-1.0-7.0-3.0-0.8","01:29:21","2","","","","","","","fixation","","","","","","","","","","","","","","","","","","",""
"664","1","pic_response","html-keyboard-response","79","489888","0.0-1.0-7.0-3.0-1.8","01:29:21","2","","","","","","","<div>
            <img class='stim' src=""pictures/food/1.jpg""></div><div class=""button_prompt"">
                        <b>请用数字键1-3回答</b>
                        </div>","","","","","","","","","","","","","","","","","","",""
"664","null","sub_response","html-keyboard-response","80","490889","0.0-1.0-7.0-3.0-2.8","01:29:21","2","","","","","","","<div style='text-align: center;'>
                            <span style=""color: green; font-size: 40px""><b>正确！+1 pts</b></span></div>
                            ","","learn","1","1","1","learn","0","0","[0, 1, 2]","8","2","setsize","3S3A","food","1","4","0","1",""
"null","null","fixation","html-keyboard-response","81","491392","0.0-1.0-7.0-3.0-0.9","01:29:21","2","","","","","","","fixation","","","","","","","","","","","","","","","","","","",""
"774","1","pic_response","html-keyboard-response","82","492167","0.0-1.0-7.0-3.0-1.9","01:29:21","2","","","","","","","<div>
            <img class='stim' src=""pictures/food/0.jpg""></div><div class=""button_prompt"">
                        <b>请用数字键1-3回答</b>
                        </div>","","","","","","","","","","","","","","","","","","",""
"774","null","sub_response","html-keyboard-response","83","493169","0.0-1.0-7.0-3.0-2.9","01:29:21","2","","","","","","","<div style='text-align: center;'>
                            <span style=""color: green; font-size: 40px""><b>正确！+1 pts</b></span></div>
                            ","","learn","0","0","0","learn","0","0","[0, 1, 2]","9","3","setsize","3S3A","food","1","5","0","1",""
"null","null","fixation","html-keyboard-response","84","493672","0.0-1.0-7.0-3.0-0.10","01:29:21","2","","","","","","","fixation","","","","","","","","","","","","","","","","","","",""
"942","3","pic_response","html-keyboard-response","85","494614","0.0-1.0-7.0-3.0-1.10","01:29:21","2","","","","","","","<div>
            <img class='stim' src=""pictures/food/2.jpg""></div><div class=""button_prompt"">
                        <b>请用数字键1-3回答</b>
                        </div>","","","","","","","","","","","","","","","","","","",""
"942","null","sub_response","html-keyboard-response","86","495616","0.0-1.0-7.0-3.0-2.10","01:29:21","2","","","","","","","<div style='text-align: center;'>
                            <span style=""color: green; font-size: 40px""><b>正确！+1 pts</b></span></div>
                            ","","learn","2","2","2","learn","2","2","[0, 1, 2]","10","3","setsize","3S3A","food","1","6","2","1",""
"null","null","fixation","html-keyboard-response","87","496118","0.0-1.0-7.0-3.0-0.11","01:29:21","2","","","","","","","fixation","","","","","","","","","","","","","","","","","","",""
"767","1","pic_response","html-keyboard-response","88","496886","0.0-1.0-7.0-3.0-1.11","01:29:21","2","","","","","","","<div>
            <img class='stim' src=""pictures/food/1.jpg""></div><div class=""button_prompt"">
                        <b>请用数字键1-3回答</b>
                        </div>","","","","","","","","","","","","","","","","","","",""
"767","null","sub_response","html-keyboard-response","89","497889","0.0-1.0-7.0-3.0-2.11","01:29:21","2","","","","","","","<div style='text-align: center;'>
                            <span style=""color: green; font-size: 40px""><b>正确！+1 pts</b></span></div>
                            ","","learn","1","1","1","learn","0","0","[0, 1, 2]","11","3","setsize","3S3A","food","1","7","0","1",""
"null","null","fixation","html-keyboard-response","90","498391","0.0-1.0-7.0-3.0-0.12","01:29:21","2","","","","","","","fixation","","","","","","","","","","","","","","","","","","",""
"858","1","pic_response","html-keyboard-response","91","499250","0.0-1.0-7.0-3.0-1.12","01:29:21","2","","","","","","","<div>
            <img class='stim' src=""pictures/food/0.jpg""></div><div class=""button_prompt"">
                        <b>请用数字键1-3回答</b>
                        </div>","","","","","","","","","","","","","","","","","","",""
"858","null","sub_response","html-keyboard-response","92","500251","0.0-1.0-7.0-3.0-2.12","01:29:21","2","","","","","","","<div style='text-align: center;'>
                            <span style=""color: green; font-size: 40px""><b>正确！+1 pts</b></span></div>
                            ","","learn","0","0","0","learn","0","0","[0, 1, 2]","12","4","setsize","3S3A","food","1","8","0","1",""
"null","null","fixation","html-keyboard-response","93","500752","0.0-1.0-7.0-3.0-0.13","01:29:21","2","","","","","","","fixation","","","","","","","","","","","","","","","","","","",""
"701","1","pic_response","html-keyboard-response","94","501455","0.0-1.0-7.0-3.0-1.13","01:29:21","2","","","","","","","<div>
            <img class='stim' src=""pictures/food/1.jpg""></div><div class=""button_prompt"">
                        <b>请用数字键1-3回答</b>
                        </div>","","","","","","","","","","","","","","","","","","",""
"701","null","sub_response","html-keyboard-response","95","502456","0.0-1.0-7.0-3.0-2.13","01:29:21","2","","","","","","","<div style='text-align: center;'>
                            <span style=""color: green; font-size: 40px""><b>正确！+1 pts</b></span></div>
                            ","","learn","1","1","1","learn","0","0","[0, 1, 2]","13","4","setsize","3S3A","food","1","9","0","1",""
"null","null","fixation","html-keyboard-response","96","502959","0.0-1.0-7.0-3.0-0.14","01:29:21","2","","","","","","","fixation","","","","","","","","","","","","","","","","","","",""
"968","3","pic_response","html-keyboard-response","97","503927","0.0-1.0-7.0-3.0-1.14","01:29:21","2","","","","","","","<div>
            <img class='stim' src=""pictures/food/2.jpg""></div><div class=""button_prompt"">
                        <b>请用数字键1-3回答</b>
                        </div>","","","","","","","","","","","","","","","","","","",""
"968","null","sub_response","html-keyboard-response","98","504929","0.0-1.0-7.0-3.0-2.14","01:29:21","2","","","","","","","<div style='text-align: center;'>
                            <span style=""color: green; font-size: 40px""><b>正确！+1 pts</b></span></div>
                            ","","learn","2","2","2","learn","2","2","[0, 1, 2]","14","4","setsize","3S3A","food","1","10","2","1",""
"null","null","fixation","html-keyboard-response","99","505430","0.0-1.0-7.0-3.0-0.15","01:29:21","2","","","","","","","fixation","","","","","","","","","","","","","","","","","","",""
"2647","3","pic_response","html-keyboard-response","100","508078","0.0-1.0-7.0-3.0-1.15","01:29:21","2","","","","","","","<div>
            <img class='stim' src=""pictures/food/2.jpg""></div><div class=""button_prompt"">
                        <b>请用数字键1-3回答</b>
                        </div>","","","","","","","","","","","","","","","","","","",""
"2647","null","sub_response","html-keyboard-response","101","509081","0.0-1.0-7.0-3.0-2.15","01:29:21","2","","","","","","","<div style='text-align: center;'>
                            <span style=""color: green; font-size: 40px""><b>正确！+1 pts</b></span></div>
                            ","","learn","2","2","2","learn","2","2","[0, 1, 2]","15","5","setsize","3S3A","food","1","11","2","1",""
"null","null","fixation","html-keyboard-response","102","509583","0.0-1.0-7.0-3.0-0.16","01:29:21","2","","","","","","","fixation","","","","","","","","","","","","","","","","","","",""
"798","1","pic_response","html-keyboard-response","103","510382","0.0-1.0-7.0-3.0-1.16","01:29:21","2","","","","","","","<div>
            <img class='stim' src=""pictures/food/1.jpg""></div><div class=""button_prompt"">
                        <b>请用数字键1-3回答</b>
                        </div>","","","","","","","","","","","","","","","","","","",""
"798","null","sub_response","html-keyboard-response","104","511385","0.0-1.0-7.0-3.0-2.16","01:29:21","2","","","","","","","<div style='text-align: center;'>
                            <span style=""color: green; font-size: 40px""><b>正确！+1 pts</b></span></div>
                            ","","learn","1","1","1","learn","0","0","[0, 1, 2]","16","5","setsize","3S3A","food","1","12","0","1",""
"null","null","fixation","html-keyboard-response","105","511887","0.0-1.0-7.0-3.0-0.17","01:29:21","2","","","","","","","fixation","","","","","","","","","","","","","","","","","","",""
"609","1","pic_response","html-keyboard-response","106","512497","0.0-1.0-7.0-3.0-1.17","01:29:21","2","","","","","","","<div>
            <img class='stim' src=""pictures/food/0.jpg""></div><div class=""button_prompt"">
                        <b>请用数字键1-3回答</b>
                        </div>","","","","","","","","","","","","","","","","","","",""
"609","null","sub_response","html-keyboard-response","107","513499","0.0-1.0-7.0-3.0-2.17","01:29:21","2","","","","","","","<div style='text-align: center;'>
                            <span style=""color: green; font-size: 40px""><b>正确！+1 pts</b></span></div>
                            ","","learn","0","0","0","learn","0","0","[0, 1, 2]","17","5","setsize","3S3A","food","1","13","0","1",""
"null","null","fixation","html-keyboard-response","108","514001","0.0-1.0-7.0-3.0-0.18","01:29:21","2","","","","","","","fixation","","","","","","","","","","","","","","","","","","",""
"726","3","pic_response","html-keyboard-response","109","514728","0.0-1.0-7.0-3.0-1.18","01:29:21","2","","","","","","","<div>
            <img class='stim' src=""pictures/food/2.jpg""></div><div class=""button_prompt"">
                        <b>请用数字键1-3回答</b>
                        </div>","","","","","","","","","","","","","","","","","","",""
"726","null","sub_response","html-keyboard-response","110","515730","0.0-1.0-7.0-3.0-2.18","01:29:21","2","","","","","","","<div style='text-align: center;'>
                            <span style=""color: green; font-size: 40px""><b>正确！+1 pts</b></span></div>
                            ","","learn","2","2","2","learn","2","2","[0, 1, 2]","18","6","setsize","3S3A","food","1","14","2","1",""
"null","null","fixation","html-keyboard-response","111","516231","0.0-1.0-7.0-3.0-0.19","01:29:21","2","","","","","","","fixation","","","","","","","","","","","","","","","","","","",""
"1062","1","pic_response","html-keyboard-response","112","517295","0.0-1.0-7.0-3.0-1.19","01:29:21","2","","","","","","","<div>
            <img class='stim' src=""pictures/food/0.jpg""></div><div class=""button_prompt"">
                        <b>请用数字键1-3回答</b>
                        </div>","","","","","","","","","","","","","","","","","","",""
"1062","null","sub_response","html-keyboard-response","113","518296","0.0-1.0-7.0-3.0-2.19","01:29:21","2","","","","","","","<div style='text-align: center;'>
                            <span style=""color: green; font-size: 40px""><b>正确！+1 pts</b></span></div>
                            ","","learn","0","0","0","learn","0","0","[0, 1, 2]","19","6","setsize","3S3A","food","1","15","0","1",""
"null","null","fixation","html-keyboard-response","114","518798","0.0-1.0-7.0-3.0-0.20","01:29:21","2","","","","","","","fixation","","","","","","","","","","","","","","","","","","",""
"952","1","pic_response","html-keyboard-response","115","519751","0.0-1.0-7.0-3.0-1.20","01:29:21","2","","","","","","","<div>
            <img class='stim' src=""pictures/food/1.jpg""></div><div class=""button_prompt"">
                        <b>请用数字键1-3回答</b>
                        </div>","","","","","","","","","","","","","","","","","","",""
"952","null","sub_response","html-keyboard-response","116","520753","0.0-1.0-7.0-3.0-2.20","01:29:21","2","","","","","","","<div style='text-align: center;'>
                            <span style=""color: green; font-size: 40px""><b>正确！+1 pts</b></span></div>
                            ","","learn","1","1","1","learn","0","0","[0, 1, 2]","20","6","setsize","3S3A","food","1","16","0","1",""
"null","null","fixation","html-keyboard-response","117","521255","0.0-1.0-7.0-3.0-0.21","01:29:21","2","","","","","","","fixation","","","","","","","","","","","","","","","","","","",""
"799","1","pic_response","html-keyboard-response","118","522055","0.0-1.0-7.0-3.0-1.21","01:29:21","2","","","","","","","<div>
            <img class='stim' src=""pictures/food/0.jpg""></div><div class=""button_prompt"">
                        <b>请用数字键1-3回答</b>
                        </div>","","","","","","","","","","","","","","","","","","",""
"799","null","sub_response","html-keyboard-response","119","523057","0.0-1.0-7.0-3.0-2.21","01:29:21","2","","","","","","","<div style='text-align: center;'>
                            <span style=""color: green; font-size: 40px""><b>正确！+1 pts</b></span></div>
                            ","","learn","0","0","0","learn","0","0","[0, 1, 2]","21","7","setsize","3S3A","food","1","17","0","1",""
"null","null","fixation","html-keyboard-response","120","523558","0.0-1.0-7.0-3.0-0.22","01:29:21","2","","","","","","","fixation","","","","","","","","","","","","","","","","","","",""
"1030","1","pic_response","html-keyboard-response","121","524590","0.0-1.0-7.0-3.0-1.22","01:29:21","2","","","","","","","<div>
            <img class='stim' src=""pictures/food/1.jpg""></div><div class=""button_prompt"">
                        <b>请用数字键1-3回答</b>
                        </div>","","","","","","","","","","","","","","","","","","",""
"1030","null","sub_response","html-keyboard-response","122","525592","0.0-1.0-7.0-3.0-2.22","01:29:21","2","","","","","","","<div style='text-align: center;'>
                            <span style=""color: green; font-size: 40px""><b>正确！+1 pts</b></span></div>
                            ","","learn","1","1","1","learn","0","0","[0, 1, 2]","22","7","setsize","3S3A","food","1","18","0","1",""
"null","null","fixation","html-keyboard-response","123","526093","0.0-1.0-7.0-3.0-0.23","01:29:21","2","","","","","","","fixation","","","","","","","","","","","","","","","","","","",""
"1472","3","pic_response","html-keyboard-response","124","527567","0.0-1.0-7.0-3.0-1.23","01:29:21","2","","","","","","","<div>
            <img class='stim' src=""pictures/food/2.jpg""></div><div class=""button_prompt"">
                        <b>请用数字键1-3回答</b>
                        </div>","","","","","","","","","","","","","","","","","","",""
"1472","null","sub_response","html-keyboard-response","125","528568","0.0-1.0-7.0-3.0-2.23","01:29:21","2","","","","","","","<div style='text-align: center;'>
                            <span style=""color: green; font-size: 40px""><b>正确！+1 pts</b></span></div>
                            ","","learn","2","2","2","learn","2","2","[0, 1, 2]","23","7","setsize","3S3A","food","1","19","2","1",""
"null","null","fixation","html-keyboard-response","126","529070","0.0-1.0-7.0-3.0-0.24","01:29:21","2","","","","","","","fixation","","","","","","","","","","","","","","","","","","",""
"1352","1","pic_response","html-keyboard-response","127","530423","0.0-1.0-7.0-3.0-1.24","01:29:21","2","","","","","","","<div>
            <img class='stim' src=""pictures/food/1.jpg""></div><div class=""button_prompt"">
                        <b>请用数字键1-3回答</b>
                        </div>","","","","","","","","","","","","","","","","","","",""
"1352","null","sub_response","html-keyboard-response","128","531424","0.0-1.0-7.0-3.0-2.24","01:29:21","2","","","","","","","<div style='text-align: center;'>
                            <span style=""color: green; font-size: 40px""><b>正确！+1 pts</b></span></div>
                            ","","learn","1","1","1","learn","0","0","[0, 1, 2]","24","8","setsize","3S3A","food","1","20","0","1",""
"null","null","fixation","html-keyboard-response","129","531926","0.0-1.0-7.0-3.0-0.25","01:29:21","2","","","","","","","fixation","","","","","","","","","","","","","","","","","","",""
"1576","1","pic_response","html-keyboard-response","130","533503","0.0-1.0-7.0-3.0-1.25","01:29:21","2","","","","","","","<div>
            <img class='stim' src=""pictures/food/0.jpg""></div><div class=""button_prompt"">
                        <b>请用数字键1-3回答</b>
                        </div>","","","","","","","","","","","","","","","","","","",""
"1576","null","sub_response","html-keyboard-response","131","534504","0.0-1.0-7.0-3.0-2.25","01:29:21","2","","","","","","","<div style='text-align: center;'>
                            <span style=""color: green; font-size: 40px""><b>正确！+1 pts</b></span></div>
                            ","","learn","0","0","0","learn","0","0","[0, 1, 2]","25","8","setsize","3S3A","food","1","21","0","1",""
"null","null","fixation","html-keyboard-response","132","535006","0.0-1.0-7.0-3.0-0.26","01:29:21","2","","","","","","","fixation","","","","","","","","","","","","","","","","","","",""
"620","3","pic_response","html-keyboard-response","133","535627","0.0-1.0-7.0-3.0-1.26","01:29:21","2","","","","","","","<div>
            <img class='stim' src=""pictures/food/2.jpg""></div><div class=""button_prompt"">
                        <b>请用数字键1-3回答</b>
                        </div>","","","","","","","","","","","","","","","","","","",""
"620","null","sub_response","html-keyboard-response","134","536631","0.0-1.0-7.0-3.0-2.26","01:29:21","2","","","","","","","<div style='text-align: center;'>
                            <span style=""color: green; font-size: 40px""><b>正确！+1 pts</b></span></div>
                            ","","learn","2","2","2","learn","2","2","[0, 1, 2]","26","8","setsize","3S3A","food","1","22","2","1",""
"null","null","fixation","html-keyboard-response","135","537132","0.0-1.0-7.0-3.0-0.27","01:29:21","2","","","","","","","fixation","","","","","","","","","","","","","","","","","","",""
"1530","3","pic_response","html-keyboard-response","136","538663","0.0-1.0-7.0-3.0-1.27","01:29:21","2","","","","","","","<div>
            <img class='stim' src=""pictures/food/2.jpg""></div><div class=""button_prompt"">
                        <b>请用数字键1-3回答</b>
                        </div>","","","","","","","","","","","","","","","","","","",""
"1530","null","sub_response","html-keyboard-response","137","539665","0.0-1.0-7.0-3.0-2.27","01:29:21","2","","","","","","","<div style='text-align: center;'>
                            <span style=""color: green; font-size: 40px""><b>正确！+1 pts</b></span></div>
                            ","","learn","2","2","2","learn","2","2","[0, 1, 2]","27","9","setsize","3S3A","food","1","23","2","1",""
"null","null","fixation","html-keyboard-response","138","540167","0.0-1.0-7.0-3.0-0.28","01:29:21","2","","","","","","","fixation","","","","","","","","","","","","","","","","","","",""
"2769","1","pic_response","html-keyboard-response","139","542937","0.0-1.0-7.0-3.0-1.28","01:29:21","2","","","","","","","<div>
            <img class='stim' src=""pictures/food/1.jpg""></div><div class=""button_prompt"">
                        <b>请用数字键1-3回答</b>
                        </div>","","","","","","","","","","","","","","","","","","",""
"2769","null","sub_response","html-keyboard-response","140","543939","0.0-1.0-7.0-3.0-2.28","01:29:21","2","","","","","","","<div style='text-align: center;'>
                            <span style=""color: green; font-size: 40px""><b>正确！+1 pts</b></span></div>
                            ","","learn","1","1","1","learn","0","0","[0, 1, 2]","28","9","setsize","3S3A","food","1","24","0","1",""
"null","null","fixation","html-keyboard-response","141","544440","0.0-1.0-7.0-3.0-0.29","01:29:21","2","","","","","","","fixation","","","","","","","","","","","","","","","","","","",""
"1094","1","pic_response","html-keyboard-response","142","545535","0.0-1.0-7.0-3.0-1.29","01:29:21","2","","","","","","","<div>
            <img class='stim' src=""pictures/food/0.jpg""></div><div class=""button_prompt"">
                        <b>请用数字键1-3回答</b>
                        </div>","","","","","","","","","","","","","","","","","","",""
"1094","null","sub_response","html-keyboard-response","143","546537","0.0-1.0-7.0-3.0-2.29","01:29:21","2","","","","","","","<div style='text-align: center;'>
                            <span style=""color: green; font-size: 40px""><b>正确！+1 pts</b></span></div>
                            ","","learn","0","0","0","learn","0","0","[0, 1, 2]","29","9","setsize","3S3A","food","1","25","0","1",""
"null","null","fixation","html-keyboard-response","144","547039","0.0-1.0-7.0-3.0-0.30","01:29:21","2","","","","","","","fixation","","","","","","","","","","","","","","","","","","",""
"612","1","pic_response","html-keyboard-response","145","547652","0.0-1.0-7.0-3.0-1.30","01:29:21","2","","","","","","","<div>
            <img class='stim' src=""pictures/food/0.jpg""></div><div class=""button_prompt"">
                        <b>请用数字键1-3回答</b>
                        </div>","","","","","","","","","","","","","","","","","","",""
"612","null","sub_response","html-keyboard-response","146","548653","0.0-1.0-7.0-3.0-2.30","01:29:21","2","","","","","","","<div style='text-align: center;'>
                            <span style=""color: green; font-size: 40px""><b>正确！+1 pts</b></span></div>
                            ","","learn","0","0","0","learn","0","0","[0, 1, 2]","30","10","setsize","3S3A","food","1","26","0","1",""
"null","null","fixation","html-keyboard-response","147","549154","0.0-1.0-7.0-3.0-0.31","01:29:21","2","","","","","","","fixation","","","","","","","","","","","","","","","","","","",""
"2967","3","pic_response","html-keyboard-response","148","552122","0.0-1.0-7.0-3.0-1.31","01:29:21","2","","","","","","","<div>
            <img class='stim' src=""pictures/food/2.jpg""></div><div class=""button_prompt"">
                        <b>请用数字键1-3回答</b>
                        </div>","","","","","","","","","","","","","","","","","","",""
"2967","null","sub_response","html-keyboard-response","149","553124","0.0-1.0-7.0-3.0-2.31","01:29:21","2","","","","","","","<div style='text-align: center;'>
                            <span style=""color: green; font-size: 40px""><b>正确！+1 pts</b></span></div>
                            ","","learn","2","2","2","learn","2","2","[0, 1, 2]","31","10","setsize","3S3A","food","1","27","2","1",""
"null","null","fixation","html-keyboard-response","150","553625","0.0-1.0-7.0-3.0-0.32","01:29:21","2","","","","","","","fixation","","","","","","","","","","","","","","","","","","",""
"2183","1","pic_response","html-keyboard-response","151","555809","0.0-1.0-7.0-3.0-1.32","01:29:21","2","","","","","","","<div>
            <img class='stim' src=""pictures/food/1.jpg""></div><div class=""button_prompt"">
                        <b>请用数字键1-3回答</b>
                        </div>","","","","","","","","","","","","","","","","","","",""
"2183","null","sub_response","html-keyboard-response","152","556810","0.0-1.0-7.0-3.0-2.32","01:29:21","2","","","","","","","<div style='text-align: center;'>
                            <span style=""color: green; font-size: 40px""><b>正确！+1 pts</b></span></div>
                            ","","learn","1","1","1","learn","0","0","[0, 1, 2]","32","10","setsize","3S3A","food","1","28","0","1",""
"null","null","fixation","html-keyboard-response","153","557313","0.0-1.0-7.0-3.0-0.33","01:29:21","2","","","","","","","fixation","","","","","","","","","","","","","","","","","","",""
"1076","1","pic_response","html-keyboard-response","154","558390","0.0-1.0-7.0-3.0-1.33","01:29:21","2","","","","","","","<div>
            <img class='stim' src=""pictures/food/0.jpg""></div><div class=""button_prompt"">
                        <b>请用数字键1-3回答</b>
                        </div>","","","","","","","","","","","","","","","","","","",""
"1076","null","sub_response","html-keyboard-response","155","559391","0.0-1.0-7.0-3.0-2.33","01:29:21","2","","","","","","","<div style='text-align: center;'>
                            <span style=""color: green; font-size: 40px""><b>正确！+1 pts</b></span></div>
                            ","","learn","0","0","0","learn","0","0","[0, 1, 2]","33","11","setsize","3S3A","food","1","29","0","1",""
"null","null","fixation","html-keyboard-response","156","559893","0.0-1.0-7.0-3.0-0.34","01:29:21","2","","","","","","","fixation","","","","","","","","","","","","","","","","","","",""
"921","3","pic_response","html-keyboard-response","157","560815","0.0-1.0-7.0-3.0-1.34","01:29:21","2","","","","","","","<div>
            <img class='stim' src=""pictures/food/2.jpg""></div><div class=""button_prompt"">
                        <b>请用数字键1-3回答</b>
                        </div>","","","","","","","","","","","","","","","","","","",""
"921","null","sub_response","html-keyboard-response","158","561816","0.0-1.0-7.0-3.0-2.34","01:29:21","2","","","","","","","<div style='text-align: center;'>
                            <span style=""color: green; font-size: 40px""><b>正确！+1 pts</b></span></div>
                            ","","learn","2","2","2","learn","2","2","[0, 1, 2]","34","11","setsize","3S3A","food","1","30","2","1",""
"null","null","fixation","html-keyboard-response","159","562319","0.0-1.0-7.0-3.0-0.35","01:29:21","2","","","","","","","fixation","","","","","","","","","","","","","","","","","","",""
"2200","1","pic_response","html-keyboard-response","160","564520","0.0-1.0-7.0-3.0-1.35","01:29:21","2","","","","","","","<div>
            <img class='stim' src=""pictures/food/1.jpg""></div><div class=""button_prompt"">
                        <b>请用数字键1-3回答</b>
                        </div>","","","","","","","","","","","","","","","","","","",""
"2200","null","sub_response","html-keyboard-response","161","565522","0.0-1.0-7.0-3.0-2.35","01:29:21","2","","","","","","","<div style='text-align: center;'>
                            <span style=""color: green; font-size: 40px""><b>正确！+1 pts</b></span></div>
                            ","","learn","1","1","1","learn","0","0","[0, 1, 2]","35","11","setsize","3S3A","food","1","31","0","1",""
"null","null","fixation","html-keyboard-response","162","566023","0.0-1.0-7.0-3.0-0.36","01:29:21","2","","","","","","","fixation","","","","","","","","","","","","","","","","","","",""
"1103","3","pic_response","html-keyboard-response","163","567127","0.0-1.0-7.0-3.0-1.36","01:29:21","2","","","","","","","<div>
            <img class='stim' src=""pictures/food/2.jpg""></div><div class=""button_prompt"">
                        <b>请用数字键1-3回答</b>
                        </div>","","","","","","","","","","","","","","","","","","",""
"1103","null","sub_response","html-keyboard-response","164","568128","0.0-1.0-7.0-3.0-2.36","01:29:21","2","","","","","","","<div style='text-align: center;'>
                            <span style=""color: green; font-size: 40px""><b>正确！+1 pts</b></span></div>
                            ","","learn","2","2","2","learn","2","2","[0, 1, 2]","36","12","setsize","3S3A","food","1","32","2","1",""
"null","null","fixation","html-keyboard-response","165","568630","0.0-1.0-7.0-3.0-0.37","01:29:21","2","","","","","","","fixation","","","","","","","","","","","","","","","","","","",""
"1514","1","pic_response","html-keyboard-response","166","570145","0.0-1.0-7.0-3.0-1.37","01:29:21","2","","","","","","","<div>
            <img class='stim' src=""pictures/food/0.jpg""></div><div class=""button_prompt"">
                        <b>请用数字键1-3回答</b>
                        </div>","","","","","","","","","","","","","","","","","","",""
"1514","null","sub_response","html-keyboard-response","167","571147","0.0-1.0-7.0-3.0-2.37","01:29:21","2","","","","","","","<div style='text-align: center;'>
                            <span style=""color: green; font-size: 40px""><b>正确！+1 pts</b></span></div>
                            ","","learn","0","0","0","learn","0","0","[0, 1, 2]","37","12","setsize","3S3A","food","1","33","0","1",""
"null","null","fixation","html-keyboard-response","168","571648","0.0-1.0-7.0-3.0-0.38","01:29:21","2","","","","","","","fixation","","","","","","","","","","","","","","","","","","",""
"918","1","pic_response","html-keyboard-response","169","572567","0.0-1.0-7.0-3.0-1.38","01:29:21","2","","","","","","","<div>
            <img class='stim' src=""pictures/food/1.jpg""></div><div class=""button_prompt"">
                        <b>请用数字键1-3回答</b>
                        </div>","","","","","","","","","","","","","","","","","","",""
"918","null","sub_response","html-keyboard-response","170","573568","0.0-1.0-7.0-3.0-2.38","01:29:21","2","","","","","","","<div style='text-align: center;'>
                            <span style=""color: green; font-size: 40px""><b>正确！+1 pts</b></span></div>
                            ","","learn","1","1","1","learn","0","0","[0, 1, 2]","38","12","setsize","3S3A","food","1","34","0","1",""
"null","null","fixation","html-keyboard-response","171","574070","0.0-1.0-7.0-3.0-0.39","01:29:21","2","","","","","","","fixation","","","","","","","","","","","","","","","","","","",""
"1592","1","pic_response","html-keyboard-response","172","575663","0.0-1.0-7.0-3.0-1.39","01:29:21","2","","","","","","","<div>
            <img class='stim' src=""pictures/food/1.jpg""></div><div class=""button_prompt"">
                        <b>请用数字键1-3回答</b>
                        </div>","","","","","","","","","","","","","","","","","","",""
"1592","null","sub_response","html-keyboard-response","173","576664","0.0-1.0-7.0-3.0-2.39","01:29:21","2","","","","","","","<div style='text-align: center;'>
                            <span style=""color: green; font-size: 40px""><b>正确！+1 pts</b></span></div>
                            ","","learn","1","1","1","learn","0","0","[0, 1, 2]","39","13","setsize","3S3A","food","1","35","0","1",""
"null","null","fixation","html-keyboard-response","174","577167","0.0-1.0-7.0-3.0-0.40","01:29:21","2","","","","","","","fixation","","","","","","","","","","","","","","","","","","",""
"2415","3","pic_response","html-keyboard-response","175","579583","0.0-1.0-7.0-3.0-1.40","01:29:21","2","","","","","","","<div>
            <img class='stim' src=""pictures/food/2.jpg""></div><div class=""button_prompt"">
                        <b>请用数字键1-3回答</b>
                        </div>","","","","","","","","","","","","","","","","","","",""
"2415","null","sub_response","html-keyboard-response","176","580585","0.0-1.0-7.0-3.0-2.40","01:29:21","2","","","","","","","<div style='text-align: center;'>
                            <span style=""color: green; font-size: 40px""><b>正确！+1 pts</b></span></div>
                            ","","learn","2","2","2","learn","2","2","[0, 1, 2]","40","13","setsize","3S3A","food","1","36","2","1",""
"null","null","fixation","html-keyboard-response","177","581086","0.0-1.0-7.0-3.0-0.41","01:29:21","2","","","","","","","fixation","","","","","","","","","","","","","","","","","","",""
"831","1","pic_response","html-keyboard-response","178","581918","0.0-1.0-7.0-3.0-1.41","01:29:21","2","","","","","","","<div>
            <img class='stim' src=""pictures/food/0.jpg""></div><div class=""button_prompt"">
                        <b>请用数字键1-3回答</b>
                        </div>","","","","","","","","","","","","","","","","","","",""
"831","null","sub_response","html-keyboard-response","179","582919","0.0-1.0-7.0-3.0-2.41","01:29:21","2","","","","","","","<div style='text-align: center;'>
                            <span style=""color: green; font-size: 40px""><b>正确！+1 pts</b></span></div>
                            ","","learn","0","0","0","learn","0","0","[0, 1, 2]","41","13","setsize","3S3A","food","1","37","0","1",""
"null","null","fixation","html-keyboard-response","180","583420","0.0-1.0-7.0-3.0-0.42","01:29:21","2","","","","","","","fixation","","","","","","","","","","","","","","","","","","",""
"881","1","pic_response","html-keyboard-response","181","584303","0.0-1.0-7.0-3.0-1.42","01:29:21","2","","","","","","","<div>
            <img class='stim' src=""pictures/food/0.jpg""></div><div class=""button_prompt"">
                        <b>请用数字键1-3回答</b>
                        </div>","","","","","","","","","","","","","","","","","","",""
"881","null","sub_response","html-keyboard-response","182","585305","0.0-1.0-7.0-3.0-2.42","01:29:21","2","","","","","","","<div style='text-align: center;'>
                            <span style=""color: green; font-size: 40px""><b>正确！+1 pts</b></span></div>
                            ","","learn","0","0","0","learn","0","0","[0, 1, 2]","42","14","setsize","3S3A","food","1","38","0","1",""
"null","null","fixation","html-keyboard-response","183","585807","0.0-1.0-7.0-3.0-0.43","01:29:21","2","","","","","","","fixation","","","","","","","","","","","","","","","","","","",""
"1030","1","pic_response","html-keyboard-response","184","586839","0.0-1.0-7.0-3.0-1.43","01:29:21","2","","","","","","","<div>
            <img class='stim' src=""pictures/food/1.jpg""></div><div class=""button_prompt"">
                        <b>请用数字键1-3回答</b>
                        </div>","","","","","","","","","","","","","","","","","","",""
"1030","null","sub_response","html-keyboard-response","185","587841","0.0-1.0-7.0-3.0-2.43","01:29:21","2","","","","","","","<div style='text-align: center;'>
                            <span style=""color: green; font-size: 40px""><b>正确！+1 pts</b></span></div>
                            ","","learn","1","1","1","learn","0","0","[0, 1, 2]","43","14","setsize","3S3A","food","1","39","0","1",""
"null","null","fixation","html-keyboard-response","186","588342","0.0-1.0-7.0-3.0-0.44","01:29:21","2","","","","","","","fixation","","","","","","","","","","","","","","","","","","",""
"1975","3","pic_response","html-keyboard-response","187","590318","0.0-1.0-7.0-3.0-1.44","01:29:21","2","","","","","","","<div>
            <img class='stim' src=""pictures/food/2.jpg""></div><div class=""button_prompt"">
                        <b>请用数字键1-3回答</b>
                        </div>","","","","","","","","","","","","","","","","","","",""
"1975","null","sub_response","html-keyboard-response","188","591319","0.0-1.0-7.0-3.0-2.44","01:29:21","2","","","","","","","<div style='text-align: center;'>
                            <span style=""color: green; font-size: 40px""><b>正确！+1 pts</b></span></div>
                            ","","learn","2","2","2","learn","2","2","[0, 1, 2]","44","14","setsize","3S3A","food","1","40","2","1",""
"null","null","fixation","html-keyboard-response","189","591821","0.0-1.0-7.0-3.0-0.45","01:29:21","2","","","","","","","fixation","","","","","","","","","","","","","","","","","","",""
"1226","1","pic_response","html-keyboard-response","190","593048","0.0-1.0-7.0-3.0-1.45","01:29:21","2","","","","","","","<div>
            <img class='stim' src=""pictures/food/0.jpg""></div><div class=""button_prompt"">
                        <b>请用数字键1-3回答</b>
                        </div>","","","","","","","","","","","","","","","","","","",""
"1226","null","sub_response","html-keyboard-response","191","594050","0.0-1.0-7.0-3.0-2.45","01:29:21","2","","","","","","","<div style='text-align: center;'>
                            <span style=""color: green; font-size: 40px""><b>正确！+1 pts</b></span></div>
                            ","","learn","0","0","0","learn","0","0","[0, 1, 2]","45","15","setsize","3S3A","food","1","41","0","1",""
"null","null","","html-keyboard-response","192","654052","0.0-1.0-8.0","01:29:21","2","","","","","","","<div style=""font-size: 25px""><p>距下一个实验开始还有</p><div style=""font-size: 50px; color: blue""><p><span id=""clock"">1:00</span></div></p><p>按""空格""跳过休息</p></div>","","","","","","","","","","","","","","","","","","",""
"","","","preload","193","654386","0.0-1.0-9.0-0.0","01:29:21","2","true","false","[]","[]","[]","","","","","","","","","","","","","","","","","","","","",""
"10916"," ","","html-keyboard-response","194","665303","0.0-1.0-9.0-1.0","01:29:21","2","","","","","","","<div style='font-size: 32px; text-align: center;'
                    <p>请学习图片和数字之间的对应关系</p>
                    <p>我们将<span style='color: blue'><b> 告诉 </b></span>您选择的对错。请根据反馈学习。</p>
                    <p>请按""空格""继续实验。</p></div>","","","","","","","","","","","","","","","","","","",""
"35727"," ","inst","html-keyboard-response","195","701031","0.0-1.0-9.0-2.0","01:29:21","2","","","","","","","<img class='instruct_stim' src=""instruction/sports10.PNG""></div>","","","","","","","","","","","","","","","","","","",""
"null","null","fixation","html-keyboard-response","196","701533","0.0-1.0-9.0-3.0-0.0","01:29:21","2","","","","","","","fixation","","","","","","","","","","","","","","","","","","",""
"2480","0","pic_response","html-keyboard-response","197","704015","0.0-1.0-9.0-3.0-1.0","01:29:21","2","","","","","","","<div>
            <img class='stim' src=""pictures/sports/4.jpg""></div><div class=""button_prompt"">
                    <b>请用数字键0-9回答</b>
                    </div>","","","","","","","","","","","","","","","","","","",""
"2480","null","sub_response","html-keyboard-response","198","705017","0.0-1.0-9.0-3.0-2.0","01:29:21","2","","","","","","","<div style='text-align: center;'>
                            <span style=""color: red; font-size: 40px""><b>错误！+0 pts</b></span></div>
                            ","","learn","4","4","4","learn","4","4","[0, 1, 2, 3, 4, 5, 6, 7, 8, 9]","0","0","setsize","10S10A","sports","2","0","9","0",""
"null","null","fixation","html-keyboard-response","199","705518","0.0-1.0-9.0-3.0-0.1","01:29:21","2","","","","","","","fixation","","","","","","","","","","","","","","","","","","",""
"864","1","pic_response","html-keyboard-response","200","706383","0.0-1.0-9.0-3.0-1.1","01:29:21","2","","","","","","","<div>
            <img class='stim' src=""pictures/sports/0.jpg""></div><div class=""button_prompt"">
                    <b>请用数字键0-9回答</b>
                    </div>","","","","","","","","","","","","","","","","","","",""
"864","null","sub_response","html-keyboard-response","201","707384","0.0-1.0-9.0-3.0-2.1","01:29:21","2","","","","","","","<div style='text-align: center;'>
                            <span style=""color: green; font-size: 40px""><b>正确！+1 pts</b></span></div>
                            ","","learn","0","0","0","learn","0","0","[0, 1, 2, 3, 4, 5, 6, 7, 8, 9]","1","0","setsize","10S10A","sports","2","1","0","1",""
"null","null","fixation","html-keyboard-response","202","707885","0.0-1.0-9.0-3.0-0.2","01:29:21","2","","","","","","","fixation","","","","","","","","","","","","","","","","","","",""
"844","2","pic_response","html-keyboard-response","203","708731","0.0-1.0-9.0-3.0-1.2","01:29:21","2","","","","","","","<div>
            <img class='stim' src=""pictures/sports/1.jpg""></div><div class=""button_prompt"">
                    <b>请用数字键0-9回答</b>
                    </div>","","","","","","","","","","","","","","","","","","",""
"844","null","sub_response","html-keyboard-response","204","709733","0.0-1.0-9.0-3.0-2.2","01:29:21","2","","","","","","","<div style='text-align: center;'>
                            <span style=""color: green; font-size: 40px""><b>正确！+1 pts</b></span></div>
                            ","","learn","1","1","1","learn","1","1","[0, 1, 2, 3, 4, 5, 6, 7, 8, 9]","2","0","setsize","10S10A","sports","2","2","1","1",""
"null","null","fixation","html-keyboard-response","205","710235","0.0-1.0-9.0-3.0-0.3","01:29:21","2","","","","","","","fixation","","","","","","","","","","","","","","","","","","",""
"876","3","pic_response","html-keyboard-response","206","711112","0.0-1.0-9.0-3.0-1.3","01:29:21","2","","","","","","","<div>
            <img class='stim' src=""pictures/sports/6.jpg""></div><div class=""button_prompt"">
                    <b>请用数字键0-9回答</b>
                    </div>","","","","","","","","","","","","","","","","","","",""
"876","null","sub_response","html-keyboard-response","207","712114","0.0-1.0-9.0-3.0-2.3","01:29:21","2","","","","","","","<div style='text-align: center;'>
                            <span style=""color: red; font-size: 40px""><b>错误！+0 pts</b></span></div>
                            ","","learn","6","6","6","learn","6","6","[0, 1, 2, 3, 4, 5, 6, 7, 8, 9]","3","0","setsize","10S10A","sports","2","0","2","0",""
"null","null","fixation","html-keyboard-response","208","712616","0.0-1.0-9.0-3.0-0.4","01:29:21","2","","","","","","","fixation","","","","","","","","","","","","","","","","","","",""
"1909","3","pic_response","html-keyboard-response","209","714527","0.0-1.0-9.0-3.0-1.4","01:29:21","2","","","","","","","<div>
            <img class='stim' src=""pictures/sports/9.jpg""></div><div class=""button_prompt"">
                    <b>请用数字键0-9回答</b>
                    </div>","","","","","","","","","","","","","","","","","","",""
"1909","null","sub_response","html-keyboard-response","210","715528","0.0-1.0-9.0-3.0-2.4","01:29:21","2","","","","","","","<div style='text-align: center;'>
                            <span style=""color: red; font-size: 40px""><b>错误！+0 pts</b></span></div>
                            ","","learn","9","9","9","learn","9","9","[0, 1, 2, 3, 4, 5, 6, 7, 8, 9]","4","0","setsize","10S10A","sports","2","0","2","0",""
"null","null","fixation","html-keyboard-response","211","716030","0.0-1.0-9.0-3.0-0.5","01:29:21","2","","","","","","","fixation","","","","","","","","","","","","","","","","","","",""
"1175","3","pic_response","html-keyboard-response","212","717206","0.0-1.0-9.0-3.0-1.5","01:29:21","2","","","","","","","<div>
            <img class='stim' src=""pictures/sports/5.jpg""></div><div class=""button_prompt"">
                    <b>请用数字键0-9回答</b>
                    </div>","","","","","","","","","","","","","","","","","","",""
"1175","null","sub_response","html-keyboard-response","213","718209","0.0-1.0-9.0-3.0-2.5","01:29:21","2","","","","","","","<div style='text-align: center;'>
                            <span style=""color: red; font-size: 40px""><b>错误！+0 pts</b></span></div>
                            ","","learn","5","5","5","learn","5","5","[0, 1, 2, 3, 4, 5, 6, 7, 8, 9]","5","0","setsize","10S10A","sports","2","0","2","0",""
"null","null","fixation","html-keyboard-response","214","718711","0.0-1.0-9.0-3.0-0.6","01:29:21","2","","","","","","","fixation","","","","","","","","","","","","","","","","","","",""
"767","3","pic_response","html-keyboard-response","215","719479","0.0-1.0-9.0-3.0-1.6","01:29:21","2","","","","","","","<div>
            <img class='stim' src=""pictures/sports/2.jpg""></div><div class=""button_prompt"">
                    <b>请用数字键0-9回答</b>
                    </div>","","","","","","","","","","","","","","","","","","",""
"767","null","sub_response","html-keyboard-response","216","720480","0.0-1.0-9.0-3.0-2.6","01:29:21","2","","","","","","","<div style='text-align: center;'>
                            <span style=""color: green; font-size: 40px""><b>正确！+1 pts</b></span></div>
                            ","","learn","2","2","2","learn","2","2","[0, 1, 2, 3, 4, 5, 6, 7, 8, 9]","6","0","setsize","10S10A","sports","2","1","2","1",""
"null","null","fixation","html-keyboard-response","217","720982","0.0-1.0-9.0-3.0-0.7","01:29:21","2","","","","","","","fixation","","","","","","","","","","","","","","","","","","",""
"1471","5","pic_response","html-keyboard-response","218","722455","0.0-1.0-9.0-3.0-1.7","01:29:21","2","","","","","","","<div>
            <img class='stim' src=""pictures/sports/3.jpg""></div><div class=""button_prompt"">
                    <b>请用数字键0-9回答</b>
                    </div>","","","","","","","","","","","","","","","","","","",""
"1471","null","sub_response","html-keyboard-response","219","723457","0.0-1.0-9.0-3.0-2.7","01:29:21","2","","","","","","","<div style='text-align: center;'>
                            <span style=""color: red; font-size: 40px""><b>错误！+0 pts</b></span></div>
                            ","","learn","3","3","3","learn","3","3","[0, 1, 2, 3, 4, 5, 6, 7, 8, 9]","7","0","setsize","10S10A","sports","2","0","4","0",""
"null","null","fixation","html-keyboard-response","220","723958","0.0-1.0-9.0-3.0-0.8","01:29:21","2","","","","","","","fixation","","","","","","","","","","","","","","","","","","",""
"1282","4","pic_response","html-keyboard-response","221","725241","0.0-1.0-9.0-3.0-1.8","01:29:21","2","","","","","","","<div>
            <img class='stim' src=""pictures/sports/7.jpg""></div><div class=""button_prompt"">
                    <b>请用数字键0-9回答</b>
                    </div>","","","","","","","","","","","","","","","","","","",""
"1282","null","sub_response","html-keyboard-response","222","726243","0.0-1.0-9.0-3.0-2.8","01:29:21","2","","","","","","","<div style='text-align: center;'>
                            <span style=""color: red; font-size: 40px""><b>错误！+0 pts</b></span></div>
                            ","","learn","7","7","7","learn","7","7","[0, 1, 2, 3, 4, 5, 6, 7, 8, 9]","8","0","setsize","10S10A","sports","2","0","3","0",""
"null","null","fixation","html-keyboard-response","223","726745","0.0-1.0-9.0-3.0-0.9","01:29:21","2","","","","","","","fixation","","","","","","","","","","","","","","","","","","",""
"1540","6","pic_response","html-keyboard-response","224","728287","0.0-1.0-9.0-3.0-1.9","01:29:21","2","","","","","","","<div>
            <img class='stim' src=""pictures/sports/8.jpg""></div><div class=""button_prompt"">
                    <b>请用数字键0-9回答</b>
                    </div>","","","","","","","","","","","","","","","","","","",""
"1540","null","sub_response","html-keyboard-response","225","729289","0.0-1.0-9.0-3.0-2.9","01:29:21","2","","","","","","","<div style='text-align: center;'>
                            <span style=""color: red; font-size: 40px""><b>错误！+0 pts</b></span></div>
                            ","","learn","8","8","8","learn","8","8","[0, 1, 2, 3, 4, 5, 6, 7, 8, 9]","9","0","setsize","10S10A","sports","2","0","5","0",""
"null","null","fixation","html-keyboard-response","226","729790","0.0-1.0-9.0-3.0-0.10","01:29:21","2","","","","","","","fixation","","","","","","","","","","","","","","","","","","",""
"1642","6","pic_response","html-keyboard-response","227","731433","0.0-1.0-9.0-3.0-1.10","01:29:21","2","","","","","","","<div>
            <img class='stim' src=""pictures/sports/6.jpg""></div><div class=""button_prompt"">
                    <b>请用数字键0-9回答</b>
                    </div>","","","","","","","","","","","","","","","","","","",""
"1642","null","sub_response","html-keyboard-response","228","732435","0.0-1.0-9.0-3.0-2.10","01:29:21","2","","","","","","","<div style='text-align: center;'>
                            <span style=""color: red; font-size: 40px""><b>错误！+0 pts</b></span></div>
                            ","","learn","6","6","6","learn","6","6","[0, 1, 2, 3, 4, 5, 6, 7, 8, 9]","10","1","setsize","10S10A","sports","2","0","5","0",""
"null","null","fixation","html-keyboard-response","229","732937","0.0-1.0-9.0-3.0-0.11","01:29:21","2","","","","","","","fixation","","","","","","","","","","","","","","","","","","",""
"1045","0","pic_response","html-keyboard-response","230","733983","0.0-1.0-9.0-3.0-1.11","01:29:21","2","","","","","","","<div>
            <img class='stim' src=""pictures/sports/9.jpg""></div><div class=""button_prompt"">
                    <b>请用数字键0-9回答</b>
                    </div>","","","","","","","","","","","","","","","","","","",""
"1045","null","sub_response","html-keyboard-response","231","734985","0.0-1.0-9.0-3.0-2.11","01:29:21","2","","","","","","","<div style='text-align: center;'>
                            <span style=""color: green; font-size: 40px""><b>正确！+1 pts</b></span></div>
                            ","","learn","9","9","9","learn","9","9","[0, 1, 2, 3, 4, 5, 6, 7, 8, 9]","11","1","setsize","10S10A","sports","2","1","9","1",""
"null","null","fixation","html-keyboard-response","232","735486","0.0-1.0-9.0-3.0-0.12","01:29:21","2","","","","","","","fixation","","","","","","","","","","","","","","","","","","",""
"1217","5","pic_response","html-keyboard-response","233","736704","0.0-1.0-9.0-3.0-1.12","01:29:21","2","","","","","","","<div>
            <img class='stim' src=""pictures/sports/4.jpg""></div><div class=""button_prompt"">
                    <b>请用数字键0-9回答</b>
                    </div>","","","","","","","","","","","","","","","","","","",""
"1217","null","sub_response","html-keyboard-response","234","737706","0.0-1.0-9.0-3.0-2.12","01:29:21","2","","","","","","","<div style='text-align: center;'>
                            <span style=""color: green; font-size: 40px""><b>正确！+1 pts</b></span></div>
                            ","","learn","4","4","4","learn","4","4","[0, 1, 2, 3, 4, 5, 6, 7, 8, 9]","12","1","setsize","10S10A","sports","2","2","4","1",""
"null","null","fixation","html-keyboard-response","235","738208","0.0-1.0-9.0-3.0-0.13","01:29:21","2","","","","","","","fixation","","","","","","","","","","","","","","","","","","",""
"1374","4","pic_response","html-keyboard-response","236","739584","0.0-1.0-9.0-3.0-1.13","01:29:21","2","","","","","","","<div>
            <img class='stim' src=""pictures/sports/5.jpg""></div><div class=""button_prompt"">
                    <b>请用数字键0-9回答</b>
                    </div>","","","","","","","","","","","","","","","","","","",""
"1374","null","sub_response","html-keyboard-response","237","740586","0.0-1.0-9.0-3.0-2.13","01:29:21","2","","","","","","","<div style='text-align: center;'>
                            <span style=""color: red; font-size: 40px""><b>错误！+0 pts</b></span></div>
                            ","","learn","5","5","5","learn","5","5","[0, 1, 2, 3, 4, 5, 6, 7, 8, 9]","13","1","setsize","10S10A","sports","2","0","3","0",""
"null","null","fixation","html-keyboard-response","238","741088","0.0-1.0-9.0-3.0-0.14","01:29:21","2","","","","","","","fixation","","","","","","","","","","","","","","","","","","",""
"1037","3","pic_response","html-keyboard-response","239","742127","0.0-1.0-9.0-3.0-1.14","01:29:21","2","","","","","","","<div>
            <img class='stim' src=""pictures/sports/2.jpg""></div><div class=""button_prompt"">
                    <b>请用数字键0-9回答</b>
                    </div>","","","","","","","","","","","","","","","","","","",""
"1037","null","sub_response","html-keyboard-response","240","743128","0.0-1.0-9.0-3.0-2.14","01:29:21","2","","","","","","","<div style='text-align: center;'>
                            <span style=""color: green; font-size: 40px""><b>正确！+1 pts</b></span></div>
                            ","","learn","2","2","2","learn","2","2","[0, 1, 2, 3, 4, 5, 6, 7, 8, 9]","14","1","setsize","10S10A","sports","2","1","2","1",""
"null","null","fixation","html-keyboard-response","241","743630","0.0-1.0-9.0-3.0-0.15","01:29:21","2","","","","","","","fixation","","","","","","","","","","","","","","","","","","",""
"1191","4","pic_response","html-keyboard-response","242","744822","0.0-1.0-9.0-3.0-1.15","01:29:21","2","","","","","","","<div>
            <img class='stim' src=""pictures/sports/3.jpg""></div><div class=""button_prompt"">
                    <b>请用数字键0-9回答</b>
                    </div>","","","","","","","","","","","","","","","","","","",""
"1191","null","sub_response","html-keyboard-response","243","745824","0.0-1.0-9.0-3.0-2.15","01:29:21","2","","","","","","","<div style='text-align: center;'>
                            <span style=""color: green; font-size: 40px""><b>正确！+1 pts</b></span></div>
                            ","","learn","3","3","3","learn","3","3","[0, 1, 2, 3, 4, 5, 6, 7, 8, 9]","15","1","setsize","10S10A","sports","2","2","3","1",""
"null","null","fixation","html-keyboard-response","244","746325","0.0-1.0-9.0-3.0-0.16","01:29:21","2","","","","","","","fixation","","","","","","","","","","","","","","","","","","",""
"873","2","pic_response","html-keyboard-response","245","747199","0.0-1.0-9.0-3.0-1.16","01:29:21","2","","","","","","","<div>
            <img class='stim' src=""pictures/sports/1.jpg""></div><div class=""button_prompt"">
                    <b>请用数字键0-9回答</b>
                    </div>","","","","","","","","","","","","","","","","","","",""
"873","null","sub_response","html-keyboard-response","246","748211","0.0-1.0-9.0-3.0-2.16","01:29:21","2","","","","","","","<div style='text-align: center;'>
                            <span style=""color: green; font-size: 40px""><b>正确！+1 pts</b></span></div>
                            ","","learn","1","1","1","learn","1","1","[0, 1, 2, 3, 4, 5, 6, 7, 8, 9]","16","1","setsize","10S10A","sports","2","3","1","1",""
"null","null","fixation","html-keyboard-response","247","748713","0.0-1.0-9.0-3.0-0.17","01:29:21","2","","","","","","","fixation","","","","","","","","","","","","","","","","","","",""
"933","5","pic_response","html-keyboard-response","248","749647","0.0-1.0-9.0-3.0-1.17","01:29:21","2","","","","","","","<div>
            <img class='stim' src=""pictures/sports/7.jpg""></div><div class=""button_prompt"">
                    <b>请用数字键0-9回答</b>
                    </div>","","","","","","","","","","","","","","","","","","",""
"933","null","sub_response","html-keyboard-response","249","750648","0.0-1.0-9.0-3.0-2.17","01:29:21","2","","","","","","","<div style='text-align: center;'>
                            <span style=""color: red; font-size: 40px""><b>错误！+0 pts</b></span></div>
                            ","","learn","7","7","7","learn","7","7","[0, 1, 2, 3, 4, 5, 6, 7, 8, 9]","17","1","setsize","10S10A","sports","2","0","4","0",""
"null","null","fixation","html-keyboard-response","250","751150","0.0-1.0-9.0-3.0-0.18","01:29:21","2","","","","","","","fixation","","","","","","","","","","","","","","","","","","",""
"2304","8","pic_response","html-keyboard-response","251","753455","0.0-1.0-9.0-3.0-1.18","01:29:21","2","","","","","","","<div>
            <img class='stim' src=""pictures/sports/8.jpg""></div><div class=""button_prompt"">
                    <b>请用数字键0-9回答</b>
                    </div>","","","","","","","","","","","","","","","","","","",""
"2304","null","sub_response","html-keyboard-response","252","754456","0.0-1.0-9.0-3.0-2.18","01:29:21","2","","","","","","","<div style='text-align: center;'>
                            <span style=""color: red; font-size: 40px""><b>错误！+0 pts</b></span></div>
                            ","","learn","8","8","8","learn","8","8","[0, 1, 2, 3, 4, 5, 6, 7, 8, 9]","18","1","setsize","10S10A","sports","2","0","7","0",""
"null","null","fixation","html-keyboard-response","253","754958","0.0-1.0-9.0-3.0-0.19","01:29:21","2","","","","","","","fixation","","","","","","","","","","","","","","","","","","",""
"1160","1","pic_response","html-keyboard-response","254","756119","0.0-1.0-9.0-3.0-1.19","01:29:21","2","","","","","","","<div>
            <img class='stim' src=""pictures/sports/0.jpg""></div><div class=""button_prompt"">
                    <b>请用数字键0-9回答</b>
                    </div>","","","","","","","","","","","","","","","","","","",""
"1160","null","sub_response","html-keyboard-response","255","757131","0.0-1.0-9.0-3.0-2.19","01:29:21","2","","","","","","","<div style='text-align: center;'>
                            <span style=""color: green; font-size: 40px""><b>正确！+1 pts</b></span></div>
                            ","","learn","0","0","0","learn","0","0","[0, 1, 2, 3, 4, 5, 6, 7, 8, 9]","19","1","setsize","10S10A","sports","2","1","0","1",""
"null","null","fixation","html-keyboard-response","256","757641","0.0-1.0-9.0-3.0-0.20","01:29:21","2","","","","","","","fixation","","","","","","","","","","","","","","","","","","",""
"804","4","pic_response","html-keyboard-response","257","758447","0.0-1.0-9.0-3.0-1.20","01:29:21","2","","","","","","","<div>
            <img class='stim' src=""pictures/sports/3.jpg""></div><div class=""button_prompt"">
                    <b>请用数字键0-9回答</b>
                    </div>","","","","","","","","","","","","","","","","","","",""
"804","null","sub_response","html-keyboard-response","258","759449","0.0-1.0-9.0-3.0-2.20","01:29:21","2","","","","","","","<div style='text-align: center;'>
                            <span style=""color: green; font-size: 40px""><b>正确！+1 pts</b></span></div>
                            ","","learn","3","3","3","learn","3","3","[0, 1, 2, 3, 4, 5, 6, 7, 8, 9]","20","2","setsize","10S10A","sports","2","2","3","1",""
"null","null","fixation","html-keyboard-response","259","759951","0.0-1.0-9.0-3.0-0.21","01:29:21","2","","","","","","","fixation","","","","","","","","","","","","","","","","","","",""
"1582","4","pic_response","html-keyboard-response","260","761535","0.0-1.0-9.0-3.0-1.21","01:29:21","2","","","","","","","<div>
            <img class='stim' src=""pictures/sports/5.jpg""></div><div class=""button_prompt"">
                    <b>请用数字键0-9回答</b>
                    </div>","","","","","","","","","","","","","","","","","","",""
"1582","null","sub_response","html-keyboard-response","261","762537","0.0-1.0-9.0-3.0-2.21","01:29:21","2","","","","","","","<div style='text-align: center;'>
                            <span style=""color: red; font-size: 40px""><b>错误！+0 pts</b></span></div>
                            ","","learn","5","5","5","learn","5","5","[0, 1, 2, 3, 4, 5, 6, 7, 8, 9]","21","2","setsize","10S10A","sports","2","0","3","0",""
"null","null","fixation","html-keyboard-response","262","763038","0.0-1.0-9.0-3.0-0.22","01:29:21","2","","","","","","","fixation","","","","","","","","","","","","","","","","","","",""
"1489","7","pic_response","html-keyboard-response","263","764529","0.0-1.0-9.0-3.0-1.22","01:29:21","2","","","","","","","<div>
            <img class='stim' src=""pictures/sports/8.jpg""></div><div class=""button_prompt"">
                    <b>请用数字键0-9回答</b>
                    </div>","","","","","","","","","","","","","","","","","","",""
"1489","null","sub_response","html-keyboard-response","264","765533","0.0-1.0-9.0-3.0-2.22","01:29:21","2","","","","","","","<div style='text-align: center;'>
                            <span style=""color: red; font-size: 40px""><b>错误！+0 pts</b></span></div>
                            ","","learn","8","8","8","learn","8","8","[0, 1, 2, 3, 4, 5, 6, 7, 8, 9]","22","2","setsize","10S10A","sports","2","0","6","0",""
"null","null","fixation","html-keyboard-response","265","766035","0.0-1.0-9.0-3.0-0.23","01:29:21","2","","","","","","","fixation","","","","","","","","","","","","","","","","","","",""
"1251","1","pic_response","html-keyboard-response","266","767287","0.0-1.0-9.0-3.0-1.23","01:29:21","2","","","","","","","<div>
            <img class='stim' src=""pictures/sports/0.jpg""></div><div class=""button_prompt"">
                    <b>请用数字键0-9回答</b>
                    </div>","","","","","","","","","","","","","","","","","","",""
"1251","null","sub_response","html-keyboard-response","267","768288","0.0-1.0-9.0-3.0-2.23","01:29:21","2","","","","","","","<div style='text-align: center;'>
                            <span style=""color: green; font-size: 40px""><b>正确！+1 pts</b></span></div>
                            ","","learn","0","0","0","learn","0","0","[0, 1, 2, 3, 4, 5, 6, 7, 8, 9]","23","2","setsize","10S10A","sports","2","1","0","1",""
"null","null","fixation","html-keyboard-response","268","768790","0.0-1.0-9.0-3.0-0.24","01:29:21","2","","","","","","","fixation","","","","","","","","","","","","","","","","","","",""
"1127","0","pic_response","html-keyboard-response","269","769918","0.0-1.0-9.0-3.0-1.24","01:29:21","2","","","","","","","<div>
            <img class='stim' src=""pictures/sports/9.jpg""></div><div class=""button_prompt"">
                    <b>请用数字键0-9回答</b>
                    </div>","","","","","","","","","","","","","","","","","","",""
"1127","null","sub_response","html-keyboard-response","270","770919","0.0-1.0-9.0-3.0-2.24","01:29:21","2","","","","","","","<div style='text-align: center;'>
                            <span style=""color: green; font-size: 40px""><b>正确！+1 pts</b></span></div>
                            ","","learn","9","9","9","learn","9","9","[0, 1, 2, 3, 4, 5, 6, 7, 8, 9]","24","2","setsize","10S10A","sports","2","2","9","1",""
"null","null","fixation","html-keyboard-response","271","771421","0.0-1.0-9.0-3.0-0.25","01:29:21","2","","","","","","","fixation","","","","","","","","","","","","","","","","","","",""
"1585","5","pic_response","html-keyboard-response","272","773007","0.0-1.0-9.0-3.0-1.25","01:29:21","2","","","","","","","<div>
            <img class='stim' src=""pictures/sports/4.jpg""></div><div class=""button_prompt"">
                    <b>请用数字键0-9回答</b>
                    </div>","","","","","","","","","","","","","","","","","","",""
"1585","null","sub_response","html-keyboard-response","273","774009","0.0-1.0-9.0-3.0-2.25","01:29:21","2","","","","","","","<div style='text-align: center;'>
                            <span style=""color: green; font-size: 40px""><b>正确！+1 pts</b></span></div>
                            ","","learn","4","4","4","learn","4","4","[0, 1, 2, 3, 4, 5, 6, 7, 8, 9]","25","2","setsize","10S10A","sports","2","3","4","1",""
"null","null","fixation","html-keyboard-response","274","774510","0.0-1.0-9.0-3.0-0.26","01:29:21","2","","","","","","","fixation","","","","","","","","","","","","","","","","","","",""
"787","3","pic_response","html-keyboard-response","275","775299","0.0-1.0-9.0-3.0-1.26","01:29:21","2","","","","","","","<div>
            <img class='stim' src=""pictures/sports/2.jpg""></div><div class=""button_prompt"">
                    <b>请用数字键0-9回答</b>
                    </div>","","","","","","","","","","","","","","","","","","",""
"787","null","sub_response","html-keyboard-response","276","776300","0.0-1.0-9.0-3.0-2.26","01:29:21","2","","","","","","","<div style='text-align: center;'>
                            <span style=""color: green; font-size: 40px""><b>正确！+1 pts</b></span></div>
                            ","","learn","2","2","2","learn","2","2","[0, 1, 2, 3, 4, 5, 6, 7, 8, 9]","26","2","setsize","10S10A","sports","2","4","2","1",""
"null","null","fixation","html-keyboard-response","277","776802","0.0-1.0-9.0-3.0-0.27","01:29:21","2","","","","","","","fixation","","","","","","","","","","","","","","","","","","",""
"991","2","pic_response","html-keyboard-response","278","777794","0.0-1.0-9.0-3.0-1.27","01:29:21","2","","","","","","","<div>
            <img class='stim' src=""pictures/sports/1.jpg""></div><div class=""button_prompt"">
                    <b>请用数字键0-9回答</b>
                    </div>","","","","","","","","","","","","","","","","","","",""
"991","null","sub_response","html-keyboard-response","279","778796","0.0-1.0-9.0-3.0-2.27","01:29:21","2","","","","","","","<div style='text-align: center;'>
                            <span style=""color: green; font-size: 40px""><b>正确！+1 pts</b></span></div>
                            ","","learn","1","1","1","learn","1","1","[0, 1, 2, 3, 4, 5, 6, 7, 8, 9]","27","2","setsize","10S10A","sports","2","5","1","1",""
"null","null","fixation","html-keyboard-response","280","779297","0.0-1.0-9.0-3.0-0.28","01:29:21","2","","","","","","","fixation","","","","","","","","","","","","","","","","","","",""
"1556","7","pic_response","html-keyboard-response","281","780855","0.0-1.0-9.0-3.0-1.28","01:29:21","2","","","","","","","<div>
            <img class='stim' src=""pictures/sports/7.jpg""></div><div class=""button_prompt"">
                    <b>请用数字键0-9回答</b>
                    </div>","","","","","","","","","","","","","","","","","","",""
"1556","null","sub_response","html-keyboard-response","282","781856","0.0-1.0-9.0-3.0-2.28","01:29:21","2","","","","","","","<div style='text-align: center;'>
                            <span style=""color: red; font-size: 40px""><b>错误！+0 pts</b></span></div>
                            ","","learn","7","7","7","learn","7","7","[0, 1, 2, 3, 4, 5, 6, 7, 8, 9]","28","2","setsize","10S10A","sports","2","0","6","0",""
"null","null","fixation","html-keyboard-response","283","782358","0.0-1.0-9.0-3.0-0.29","01:29:21","2","","","","","","","fixation","","","","","","","","","","","","","","","","","","",""
"1122","7","pic_response","html-keyboard-response","284","783481","0.0-1.0-9.0-3.0-1.29","01:29:21","2","","","","","","","<div>
            <img class='stim' src=""pictures/sports/6.jpg""></div><div class=""button_prompt"">
                    <b>请用数字键0-9回答</b>
                    </div>","","","","","","","","","","","","","","","","","","",""
"1122","null","sub_response","html-keyboard-response","285","784483","0.0-1.0-9.0-3.0-2.29","01:29:21","2","","","","","","","<div style='text-align: center;'>
                            <span style=""color: green; font-size: 40px""><b>正确！+1 pts</b></span></div>
                            ","","learn","6","6","6","learn","6","6","[0, 1, 2, 3, 4, 5, 6, 7, 8, 9]","29","2","setsize","10S10A","sports","2","1","6","1",""
"null","null","fixation","html-keyboard-response","286","784984","0.0-1.0-9.0-3.0-0.30","01:29:21","2","","","","","","","fixation","","","","","","","","","","","","","","","","","","",""
"1000","4","pic_response","html-keyboard-response","287","785986","0.0-1.0-9.0-3.0-1.30","01:29:21","2","","","","","","","<div>
            <img class='stim' src=""pictures/sports/3.jpg""></div><div class=""button_prompt"">
                    <b>请用数字键0-9回答</b>
                    </div>","","","","","","","","","","","","","","","","","","",""
"1000","null","sub_response","html-keyboard-response","288","786987","0.0-1.0-9.0-3.0-2.30","01:29:21","2","","","","","","","<div style='text-align: center;'>
                            <span style=""color: green; font-size: 40px""><b>正确！+1 pts</b></span></div>
                            ","","learn","3","3","3","learn","3","3","[0, 1, 2, 3, 4, 5, 6, 7, 8, 9]","30","3","setsize","10S10A","sports","2","2","3","1",""
"null","null","fixation","html-keyboard-response","289","787489","0.0-1.0-9.0-3.0-0.31","01:29:21","2","","","","","","","fixation","","","","","","","","","","","","","","","","","","",""
"1245","6","pic_response","html-keyboard-response","290","788736","0.0-1.0-9.0-3.0-1.31","01:29:21","2","","","","","","","<div>
            <img class='stim' src=""pictures/sports/5.jpg""></div><div class=""button_prompt"">
                    <b>请用数字键0-9回答</b>
                    </div>","","","","","","","","","","","","","","","","","","",""
"1245","null","sub_response","html-keyboard-response","291","789738","0.0-1.0-9.0-3.0-2.31","01:29:21","2","","","","","","","<div style='text-align: center;'>
                            <span style=""color: green; font-size: 40px""><b>正确！+1 pts</b></span></div>
                            ","","learn","5","5","5","learn","5","5","[0, 1, 2, 3, 4, 5, 6, 7, 8, 9]","31","3","setsize","10S10A","sports","2","3","5","1",""
"null","null","fixation","html-keyboard-response","292","790240","0.0-1.0-9.0-3.0-0.32","01:29:21","2","","","","","","","fixation","","","","","","","","","","","","","","","","","","",""
"929","2","pic_response","html-keyboard-response","293","791171","0.0-1.0-9.0-3.0-1.32","01:29:21","2","","","","","","","<div>
            <img class='stim' src=""pictures/sports/1.jpg""></div><div class=""button_prompt"">
                    <b>请用数字键0-9回答</b>
                    </div>","","","","","","","","","","","","","","","","","","",""
"929","null","sub_response","html-keyboard-response","294","792172","0.0-1.0-9.0-3.0-2.32","01:29:21","2","","","","","","","<div style='text-align: center;'>
                            <span style=""color: green; font-size: 40px""><b>正确！+1 pts</b></span></div>
                            ","","learn","1","1","1","learn","1","1","[0, 1, 2, 3, 4, 5, 6, 7, 8, 9]","32","3","setsize","10S10A","sports","2","4","1","1",""
"null","null","fixation","html-keyboard-response","295","792674","0.0-1.0-9.0-3.0-0.33","01:29:21","2","","","","","","","fixation","","","","","","","","","","","","","","","","","","",""
"875","1","pic_response","html-keyboard-response","296","793551","0.0-1.0-9.0-3.0-1.33","01:29:21","2","","","","","","","<div>
            <img class='stim' src=""pictures/sports/0.jpg""></div><div class=""button_prompt"">
                    <b>请用数字键0-9回答</b>
                    </div>","","","","","","","","","","","","","","","","","","",""
"875","null","sub_response","html-keyboard-response","297","794553","0.0-1.0-9.0-3.0-2.33","01:29:21","2","","","","","","","<div style='text-align: center;'>
                            <span style=""color: green; font-size: 40px""><b>正确！+1 pts</b></span></div>
                            ","","learn","0","0","0","learn","0","0","[0, 1, 2, 3, 4, 5, 6, 7, 8, 9]","33","3","setsize","10S10A","sports","2","5","0","1",""
"null","null","fixation","html-keyboard-response","298","795055","0.0-1.0-9.0-3.0-0.34","01:29:21","2","","","","","","","fixation","","","","","","","","","","","","","","","","","","",""
"2910","9","pic_response","html-keyboard-response","299","797967","0.0-1.0-9.0-3.0-1.34","01:29:21","2","","","","","","","<div>
            <img class='stim' src=""pictures/sports/8.jpg""></div><div class=""button_prompt"">
                    <b>请用数字键0-9回答</b>
                    </div>","","","","","","","","","","","","","","","","","","",""
"2910","null","sub_response","html-keyboard-response","300","798968","0.0-1.0-9.0-3.0-2.34","01:29:21","2","","","","","","","<div style='text-align: center;'>
                            <span style=""color: green; font-size: 40px""><b>正确！+1 pts</b></span></div>
                            ","","learn","8","8","8","learn","8","8","[0, 1, 2, 3, 4, 5, 6, 7, 8, 9]","34","3","setsize","10S10A","sports","2","6","8","1",""
"null","null","fixation","html-keyboard-response","301","799470","0.0-1.0-9.0-3.0-0.35","01:29:21","2","","","","","","","fixation","","","","","","","","","","","","","","","","","","",""
"945","7","pic_response","html-keyboard-response","302","800416","0.0-1.0-9.0-3.0-1.35","01:29:21","2","","","","","","","<div>
            <img class='stim' src=""pictures/sports/6.jpg""></div><div class=""button_prompt"">
                    <b>请用数字键0-9回答</b>
                    </div>","","","","","","","","","","","","","","","","","","",""
"945","null","sub_response","html-keyboard-response","303","801418","0.0-1.0-9.0-3.0-2.35","01:29:21","2","","","","","","","<div style='text-align: center;'>
                            <span style=""color: green; font-size: 40px""><b>正确！+1 pts</b></span></div>
                            ","","learn","6","6","6","learn","6","6","[0, 1, 2, 3, 4, 5, 6, 7, 8, 9]","35","3","setsize","10S10A","sports","2","7","6","1",""
"null","null","fixation","html-keyboard-response","304","801920","0.0-1.0-9.0-3.0-0.36","01:29:21","2","","","","","","","fixation","","","","","","","","","","","","","","","","","","",""
"1409","3","pic_response","html-keyboard-response","305","803330","0.0-1.0-9.0-3.0-1.36","01:29:21","2","","","","","","","<div>
            <img class='stim' src=""pictures/sports/2.jpg""></div><div class=""button_prompt"">
                    <b>请用数字键0-9回答</b>
                    </div>","","","","","","","","","","","","","","","","","","",""
"1409","null","sub_response","html-keyboard-response","306","804333","0.0-1.0-9.0-3.0-2.36","01:29:21","2","","","","","","","<div style='text-align: center;'>
                            <span style=""color: green; font-size: 40px""><b>正确！+1 pts</b></span></div>
                            ","","learn","2","2","2","learn","2","2","[0, 1, 2, 3, 4, 5, 6, 7, 8, 9]","36","3","setsize","10S10A","sports","2","8","2","1",""
"null","null","fixation","html-keyboard-response","307","804834","0.0-1.0-9.0-3.0-0.37","01:29:21","2","","","","","","","fixation","","","","","","","","","","","","","","","","","","",""
"2412","0","pic_response","html-keyboard-response","308","807248","0.0-1.0-9.0-3.0-1.37","01:29:21","2","","","","","","","<div>
            <img class='stim' src=""pictures/sports/9.jpg""></div><div class=""button_prompt"">
                    <b>请用数字键0-9回答</b>
                    </div>","","","","","","","","","","","","","","","","","","",""
"2412","null","sub_response","html-keyboard-response","309","808249","0.0-1.0-9.0-3.0-2.37","01:29:21","2","","","","","","","<div style='text-align: center;'>
                            <span style=""color: green; font-size: 40px""><b>正确！+1 pts</b></span></div>
                            ","","learn","9","9","9","learn","9","9","[0, 1, 2, 3, 4, 5, 6, 7, 8, 9]","37","3","setsize","10S10A","sports","2","9","9","1",""
"null","null","fixation","html-keyboard-response","310","808751","0.0-1.0-9.0-3.0-0.38","01:29:21","2","","","","","","","fixation","","","","","","","","","","","","","","","","","","",""
"1566","8","pic_response","html-keyboard-response","311","810318","0.0-1.0-9.0-3.0-1.38","01:29:21","2","","","","","","","<div>
            <img class='stim' src=""pictures/sports/7.jpg""></div><div class=""button_prompt"">
                    <b>请用数字键0-9回答</b>
                    </div>","","","","","","","","","","","","","","","","","","",""
"1566","null","sub_response","html-keyboard-response","312","811324","0.0-1.0-9.0-3.0-2.38","01:29:21","2","","","","","","","<div style='text-align: center;'>
                            <span style=""color: green; font-size: 40px""><b>正确！+1 pts</b></span></div>
                            ","","learn","7","7","7","learn","7","7","[0, 1, 2, 3, 4, 5, 6, 7, 8, 9]","38","3","setsize","10S10A","sports","2","10","7","1",""
"null","null","fixation","html-keyboard-response","313","811826","0.0-1.0-9.0-3.0-0.39","01:29:21","2","","","","","","","fixation","","","","","","","","","","","","","","","","","","",""
"864","6","pic_response","html-keyboard-response","314","812691","0.0-1.0-9.0-3.0-1.39","01:29:21","2","","","","","","","<div>
            <img class='stim' src=""pictures/sports/4.jpg""></div><div class=""button_prompt"">
                    <b>请用数字键0-9回答</b>
                    </div>","","","","","","","","","","","","","","","","","","",""
"864","null","sub_response","html-keyboard-response","315","813692","0.0-1.0-9.0-3.0-2.39","01:29:21","2","","","","","","","<div style='text-align: center;'>
                            <span style=""color: red; font-size: 40px""><b>错误！+0 pts</b></span></div>
                            ","","learn","4","4","4","learn","4","4","[0, 1, 2, 3, 4, 5, 6, 7, 8, 9]","39","3","setsize","10S10A","sports","2","0","5","0",""
"null","null","fixation","html-keyboard-response","316","814193","0.0-1.0-9.0-3.0-0.40","01:29:21","2","","","","","","","fixation","","","","","","","","","","","","","","","","","","",""
"1021","8","pic_response","html-keyboard-response","317","815216","0.0-1.0-9.0-3.0-1.40","01:29:21","2","","","","","","","<div>
            <img class='stim' src=""pictures/sports/7.jpg""></div><div class=""button_prompt"">
                    <b>请用数字键0-9回答</b>
                    </div>","","","","","","","","","","","","","","","","","","",""
"1021","null","sub_response","html-keyboard-response","318","816218","0.0-1.0-9.0-3.0-2.40","01:29:21","2","","","","","","","<div style='text-align: center;'>
                            <span style=""color: green; font-size: 40px""><b>正确！+1 pts</b></span></div>
                            ","","learn","7","7","7","learn","7","7","[0, 1, 2, 3, 4, 5, 6, 7, 8, 9]","40","4","setsize","10S10A","sports","2","1","7","1",""
