"rt","response","screen_id","trial_type","trial_index","time_elapsed","internal_node_id","start_time","n_Prac","success","timeout","failed_images","failed_audio","failed_video","view_history","stimulus","question_order","stage","s","word","word_id","phase","a_cor","a_real","a_ava","trial","tps","task_type","block_typ","pic_typ","block_id","cum_r","a","r","plugin_name"
"46639","{""sub_id"":""5784"",""task_type"":""task1"",""name"":""华建程"",""gender"":""男""}","basic_info","survey-html-form","0","46651","0.0-0.0","17:59:29","6","","","","","","","","","","","","","","","","","","","","","","","","","",""
"","","","preload","1","47676","0.0-1.0-0.0","17:59:29","6","true","false","[]","[]","[]","","","","","","","","","","","","","","","","","","","","",""
"","","","preload","2","47940","0.0-1.0-1.0","17:59:29","6","true","false","[]","[]","[]","","","","","","","","","","","","","","","","","","","","",""
"","","","fullscreen","3","49732","0.0-1.0-2.0","17:59:29","6","true","","","","","","","","","","","","","","","","","","","","","","","","",""
"16581","","instruct","instructions","4","66314","0.0-1.0-3.0-0.0","17:59:29","6","","","","","","[{""page_index"":0,""viewing_time"":7717},{""page_index"":1,""viewing_time"":4639},{""page_index"":2,""viewing_time"":4224}]","","","","","","","","","","","","","","","","","","","",""
"6507","{""Q0"":"""",""task1"":""<span style='font-size: 24px'>学习图片和数字的对应关系</span>"",""task2"":""<span style='font-size: 24px'> 数字键1-3 </span>"",""task3"":""<span style='font-size: 24px'> 看到图片选出正确对应的数字 </span>""}","question","survey-multi-choice","5","72853","0.0-1.0-3.0-1.0","17:59:29","6","","","","","","","","[0,1,2,3]","","","","","","","","","","","","","","","","","",""
"1694"," ","inst_q","html-keyboard-response","6","74559","0.0-1.0-3.0-2.0","17:59:29","6","","","","","","","inst","","1","","","","","","","","","","","","","","","","",""
"12072","","instruct","instructions","7","86632","0.0-1.0-3.1-0.1","17:59:29","6","","","","","","[{""page_index"":0,""viewing_time"":6032},{""page_index"":1,""viewing_time"":3256},{""page_index"":2,""viewing_time"":2784}]","","","","","","","","","","","","","","","","","","","",""
"15014","{""Q0"":"""",""task1"":""<span style='font-size: 24px'>学习图片和数字的对应关系</span>"",""task2"":""<span style='font-size: 24px'> 图片下方标注为可用的数字键（数字键1-3或0-9） </span>"",""task3"":""<span style='font-size: 24px'> 看到图片选出正确对应的数字 </span>""}","question","survey-multi-choice","8","101650","0.0-1.0-3.1-1.1","17:59:29","6","","","","","","","","[0,1,2,3]","","","","","","","","","","","","","","","","","",""
"2295"," ","inst_q","html-keyboard-response","9","103951","0.0-1.0-3.1-2.1","17:59:29","6","","","","","","","inst","","1","","","","","","","","","","","","","","","","",""
"","","","preload","10","104341","0.0-1.0-4.0-0.0","17:59:29","6","true","false","[]","[]","[]","","","","","","","","","","","","","","","","","","","","",""
"5901"," ","","html-keyboard-response","11","110244","0.0-1.0-4.0-1.0","17:59:29","6","","","","","","","<div style='font-size: 32px; text-align: center;'
                    <p>请学习图片和数字之间的对应关系</p>
                    <p>我们将<span style='color: blue'><b> 告诉 </b></span>您选择的对错。请根据反馈学习。</p>
                    <p>请按""空格""继续实验。</p></div>","","","","","","","","","","","","","","","","","","",""
"4961"," ","inst","html-keyboard-response","12","115207","0.0-1.0-4.0-2.0","17:59:29","6","","","","","","","<img class='instruct_stim' src=""instruction/prac3.PNG""></div>","","","","","","","","","","","","","","","","","","",""
"null","null","fixation","html-keyboard-response","13","115709","0.0-1.0-4.0-3.0-0.0","17:59:29","6","","","","","","","fixation","","","","","","","","","","","","","","","","","","",""
"960","2","pic_response","html-keyboard-response","14","116672","0.0-1.0-4.0-3.0-1.0","17:59:29","6","","","","","","","<div>
            <img class='stim' src=""pictures/prac/0.jpg""></div><div class=""button_prompt"">
                        <b>请用数字键1-3回答</b>
                        </div>","","","","","","","","","","","","","","","","","","",""
"960","null","sub_response","html-keyboard-response","15","117676","0.0-1.0-4.0-3.0-2.0","17:59:29","6","","","","","","","<div style='text-align: center;'>
                            <span style=""color: red; font-size: 40px""><b>错误！+0 pts</b></span></div>
                            ","","learn","0","0","0","learn","0","0","[0, 1, 2]","0","0","setsize","99","prac","0","0","1","0",""
"null","null","fixation","html-keyboard-response","16","118177","0.0-1.0-4.0-3.0-0.1","17:59:29","6","","","","","","","fixation","","","","","","","","","","","","","","","","","","",""
"926","1","pic_response","html-keyboard-response","17","119104","0.0-1.0-4.0-3.0-1.1","17:59:29","6","","","","","","","<div>
            <img class='stim' src=""pictures/prac/2.jpg""></div><div class=""button_prompt"">
                        <b>请用数字键1-3回答</b>
                        </div>","","","","","","","","","","","","","","","","","","",""
"926","null","sub_response","html-keyboard-response","18","120105","0.0-1.0-4.0-3.0-2.1","17:59:29","6","","","","","","","<div style='text-align: center;'>
                            <span style=""color: red; font-size: 40px""><b>错误！+0 pts</b></span></div>
                            ","","learn","2","2","2","learn","2","2","[0, 1, 2]","1","0","setsize","99","prac","0","0","0","0",""
"null","null","fixation","html-keyboard-response","19","120607","0.0-1.0-4.0-3.0-0.2","17:59:29","6","","","","","","","fixation","","","","","","","","","","","","","","","","","","",""
"913","3","pic_response","html-keyboard-response","20","121521","0.0-1.0-4.0-3.0-1.2","17:59:29","6","","","","","","","<div>
            <img class='stim' src=""pictures/prac/1.jpg""></div><div class=""button_prompt"">
                        <b>请用数字键1-3回答</b>
                        </div>","","","","","","","","","","","","","","","","","","",""
"913","null","sub_response","html-keyboard-response","21","122522","0.0-1.0-4.0-3.0-2.2","17:59:29","6","","","","","","","<div style='text-align: center;'>
                            <span style=""color: red; font-size: 40px""><b>错误！+0 pts</b></span></div>
                            ","","learn","1","1","1","learn","0","0","[0, 1, 2]","2","0","setsize","99","prac","0","0","2","0",""
"null","null","fixation","html-keyboard-response","22","123024","0.0-1.0-4.0-3.0-0.3","17:59:29","6","","","","","","","fixation","","","","","","","","","","","","","","","","","","",""
"695","2","pic_response","html-keyboard-response","23","123720","0.0-1.0-4.0-3.0-1.3","17:59:29","6","","","","","","","<div>
            <img class='stim' src=""pictures/prac/2.jpg""></div><div class=""button_prompt"">
                        <b>请用数字键1-3回答</b>
                        </div>","","","","","","","","","","","","","","","","","","",""
"695","null","sub_response","html-keyboard-response","24","124722","0.0-1.0-4.0-3.0-2.3","17:59:29","6","","","","","","","<div style='text-align: center;'>
                            <span style=""color: red; font-size: 40px""><b>错误！+0 pts</b></span></div>
                            ","","learn","2","2","2","learn","2","2","[0, 1, 2]","3","1","setsize","99","prac","0","0","1","0",""
"null","null","fixation","html-keyboard-response","25","125223","0.0-1.0-4.0-3.0-0.4","17:59:29","6","","","","","","","fixation","","","","","","","","","","","","","","","","","","",""
"1534","3","pic_response","html-keyboard-response","26","126758","0.0-1.0-4.0-3.0-1.4","17:59:29","6","","","","","","","<div>
            <img class='stim' src=""pictures/prac/1.jpg""></div><div class=""button_prompt"">
                        <b>请用数字键1-3回答</b>
                        </div>","","","","","","","","","","","","","","","","","","",""
"1534","null","sub_response","html-keyboard-response","27","127760","0.0-1.0-4.0-3.0-2.4","17:59:29","6","","","","","","","<div style='text-align: center;'>
                            <span style=""color: red; font-size: 40px""><b>错误！+0 pts</b></span></div>
                            ","","learn","1","1","1","learn","0","0","[0, 1, 2]","4","1","setsize","99","prac","0","0","2","0",""
"null","null","fixation","html-keyboard-response","28","128261","0.0-1.0-4.0-3.0-0.5","17:59:29","6","","","","","","","fixation","","","","","","","","","","","","","","","","","","",""
"812","3","pic_response","html-keyboard-response","29","129074","0.0-1.0-4.0-3.0-1.5","17:59:29","6","","","","","","","<div>
            <img class='stim' src=""pictures/prac/0.jpg""></div><div class=""button_prompt"">
                        <b>请用数字键1-3回答</b>
                        </div>","","","","","","","","","","","","","","","","","","",""
"812","null","sub_response","html-keyboard-response","30","130075","0.0-1.0-4.0-3.0-2.5","17:59:29","6","","","","","","","<div style='text-align: center;'>
                            <span style=""color: red; font-size: 40px""><b>错误！+0 pts</b></span></div>
                            ","","learn","0","0","0","learn","0","0","[0, 1, 2]","5","1","setsize","99","prac","0","0","2","0",""
"","","","preload","31","130080","0.0-1.0-4.1-0.1","17:59:29","6","true","false","[]","[]","[]","","","","","","","","","","","","","","","","","","","","",""
"2906"," ","","html-keyboard-response","32","132986","0.0-1.0-4.1-1.1","17:59:29","6","","","","","","","<div style='font-size: 32px; text-align: center;'
                    <p>请学习图片和数字之间的对应关系</p>
                    <p>我们将<span style='color: blue'><b> 告诉 </b></span>您选择的对错。请根据反馈学习。</p>
                    <p>请按""空格""继续实验。</p></div>","","","","","","","","","","","","","","","","","","",""
"3593"," ","inst","html-keyboard-response","33","136580","0.0-1.0-4.1-2.1","17:59:29","6","","","","","","","<img class='instruct_stim' src=""instruction/prac3.PNG""></div>","","","","","","","","","","","","","","","","","","",""
"null","null","fixation","html-keyboard-response","34","137086","0.0-1.0-4.1-3.1-0.6","17:59:29","6","","","","","","","fixation","","","","","","","","","","","","","","","","","","",""
"526","3","pic_response","html-keyboard-response","35","137613","0.0-1.0-4.1-3.1-1.6","17:59:29","6","","","","","","","<div>
            <img class='stim' src=""pictures/prac/0.jpg""></div><div class=""button_prompt"">
                        <b>请用数字键1-3回答</b>
                        </div>","","","","","","","","","","","","","","","","","","",""
"526","null","sub_response","html-keyboard-response","36","138614","0.0-1.0-4.1-3.1-2.6","17:59:29","6","","","","","","","<div style='text-align: center;'>
                            <span style=""color: red; font-size: 40px""><b>错误！+0 pts</b></span></div>
                            ","","learn","0","0","0","learn","0","0","[0, 1, 2]","0","0","setsize","99","prac","0","0","2","0",""
"null","null","fixation","html-keyboard-response","37","139116","0.0-1.0-4.1-3.1-0.7","17:59:29","6","","","","","","","fixation","","","","","","","","","","","","","","","","","","",""
"1214","3","pic_response","html-keyboard-response","38","140330","0.0-1.0-4.1-3.1-1.7","17:59:29","6","","","","","","","<div>
            <img class='stim' src=""pictures/prac/2.jpg""></div><div class=""button_prompt"">
                        <b>请用数字键1-3回答</b>
                        </div>","","","","","","","","","","","","","","","","","","",""
"1214","null","sub_response","html-keyboard-response","39","141333","0.0-1.0-4.1-3.1-2.7","17:59:29","6","","","","","","","<div style='text-align: center;'>
                            <span style=""color: green; font-size: 40px""><b>正确！+1 pts</b></span></div>
                            ","","learn","2","2","2","learn","2","2","[0, 1, 2]","1","0","setsize","99","prac","0","1","2","1",""
"null","null","fixation","html-keyboard-response","40","141834","0.0-1.0-4.1-3.1-0.8","17:59:29","6","","","","","","","fixation","","","","","","","","","","","","","","","","","","",""
"589","1","pic_response","html-keyboard-response","41","142424","0.0-1.0-4.1-3.1-1.8","17:59:29","6","","","","","","","<div>
            <img class='stim' src=""pictures/prac/1.jpg""></div><div class=""button_prompt"">
                        <b>请用数字键1-3回答</b>
                        </div>","","","","","","","","","","","","","","","","","","",""
"589","null","sub_response","html-keyboard-response","42","143426","0.0-1.0-4.1-3.1-2.8","17:59:29","6","","","","","","","<div style='text-align: center;'>
                            <span style=""color: green; font-size: 40px""><b>正确！+1 pts</b></span></div>
                            ","","learn","1","1","1","learn","0","0","[0, 1, 2]","2","0","setsize","99","prac","0","2","0","1",""
"null","null","fixation","html-keyboard-response","43","143928","0.0-1.0-4.1-3.1-0.9","17:59:29","6","","","","","","","fixation","","","","","","","","","","","","","","","","","","",""
"809","3","pic_response","html-keyboard-response","44","144738","0.0-1.0-4.1-3.1-1.9","17:59:29","6","","","","","","","<div>
            <img class='stim' src=""pictures/prac/2.jpg""></div><div class=""button_prompt"">
                        <b>请用数字键1-3回答</b>
                        </div>","","","","","","","","","","","","","","","","","","",""
"809","null","sub_response","html-keyboard-response","45","145741","0.0-1.0-4.1-3.1-2.9","17:59:29","6","","","","","","","<div style='text-align: center;'>
                            <span style=""color: green; font-size: 40px""><b>正确！+1 pts</b></span></div>
                            ","","learn","2","2","2","learn","2","2","[0, 1, 2]","3","1","setsize","99","prac","0","3","2","1",""
"null","null","fixation","html-keyboard-response","46","146242","0.0-1.0-4.1-3.1-0.10","17:59:29","6","","","","","","","fixation","","","","","","","","","","","","","","","","","","",""
"492","2","pic_response","html-keyboard-response","47","146734","0.0-1.0-4.1-3.1-1.10","17:59:29","6","","","","","","","<div>
            <img class='stim' src=""pictures/prac/1.jpg""></div><div class=""button_prompt"">
                        <b>请用数字键1-3回答</b>
                        </div>","","","","","","","","","","","","","","","","","","",""
"492","null","sub_response","html-keyboard-response","48","147736","0.0-1.0-4.1-3.1-2.10","17:59:29","6","","","","","","","<div style='text-align: center;'>
                            <span style=""color: red; font-size: 40px""><b>错误！+0 pts</b></span></div>
                            ","","learn","1","1","1","learn","0","0","[0, 1, 2]","4","1","setsize","99","prac","0","0","1","0",""
"null","null","fixation","html-keyboard-response","49","148239","0.0-1.0-4.1-3.1-0.11","17:59:29","6","","","","","","","fixation","","","","","","","","","","","","","","","","","","",""
"421","2","pic_response","html-keyboard-response","50","148660","0.0-1.0-4.1-3.1-1.11","17:59:29","6","","","","","","","<div>
            <img class='stim' src=""pictures/prac/0.jpg""></div><div class=""button_prompt"">
                        <b>请用数字键1-3回答</b>
                        </div>","","","","","","","","","","","","","","","","","","",""
"421","null","sub_response","html-keyboard-response","51","149662","0.0-1.0-4.1-3.1-2.11","17:59:29","6","","","","","","","<div style='text-align: center;'>
                            <span style=""color: red; font-size: 40px""><b>错误！+0 pts</b></span></div>
                            ","","learn","0","0","0","learn","0","0","[0, 1, 2]","5","1","setsize","99","prac","0","0","1","0",""
"","","","preload","52","149682","0.0-1.0-4.2-0.2","17:59:29","6","true","false","[]","[]","[]","","","","","","","","","","","","","","","","","","","","",""
"1471"," ","","html-keyboard-response","53","151154","0.0-1.0-4.2-1.2","17:59:29","6","","","","","","","<div style='font-size: 32px; text-align: center;'
                    <p>请学习图片和数字之间的对应关系</p>
                    <p>我们将<span style='color: blue'><b> 告诉 </b></span>您选择的对错。请根据反馈学习。</p>
                    <p>请按""空格""继续实验。</p></div>","","","","","","","","","","","","","","","","","","",""
"43115"," ","inst","html-keyboard-response","54","194297","0.0-1.0-4.2-2.2","17:59:29","6","","","","","","","<img class='instruct_stim' src=""instruction/prac3.PNG""></div>","","","","","","","","","","","","","","","","","","",""
"null","null","fixation","html-keyboard-response","55","194822","0.0-1.0-4.2-3.2-0.12","17:59:29","6","","","","","","","fixation","","","","","","","","","","","","","","","","","","",""
"1002","3","pic_response","html-keyboard-response","56","195835","0.0-1.0-4.2-3.2-1.12","17:59:29","6","","","","","","","<div>
            <img class='stim' src=""pictures/prac/0.jpg""></div><div class=""button_prompt"">
                        <b>请用数字键1-3回答</b>
                        </div>","","","","","","","","","","","","","","","","","","",""
"1002","null","sub_response","html-keyboard-response","57","196837","0.0-1.0-4.2-3.2-2.12","17:59:29","6","","","","","","","<div style='text-align: center;'>
                            <span style=""color: red; font-size: 40px""><b>错误！+0 pts</b></span></div>
                            ","","learn","0","0","0","learn","0","0","[0, 1, 2]","0","0","setsize","99","prac","0","0","2","0",""
"null","null","fixation","html-keyboard-response","58","197338","0.0-1.0-4.2-3.2-0.13","17:59:29","6","","","","","","","fixation","","","","","","","","","","","","","","","","","","",""
"586","3","pic_response","html-keyboard-response","59","197925","0.0-1.0-4.2-3.2-1.13","17:59:29","6","","","","","","","<div>
            <img class='stim' src=""pictures/prac/2.jpg""></div><div class=""button_prompt"">
                        <b>请用数字键1-3回答</b>
                        </div>","","","","","","","","","","","","","","","","","","",""
"586","null","sub_response","html-keyboard-response","60","198926","0.0-1.0-4.2-3.2-2.13","17:59:29","6","","","","","","","<div style='text-align: center;'>
                            <span style=""color: green; font-size: 40px""><b>正确！+1 pts</b></span></div>
                            ","","learn","2","2","2","learn","2","2","[0, 1, 2]","1","0","setsize","99","prac","0","1","2","1",""
"null","null","fixation","html-keyboard-response","61","199428","0.0-1.0-4.2-3.2-0.14","17:59:29","6","","","","","","","fixation","","","","","","","","","","","","","","","","","","",""
"575","1","pic_response","html-keyboard-response","62","200003","0.0-1.0-4.2-3.2-1.14","17:59:29","6","","","","","","","<div>
            <img class='stim' src=""pictures/prac/1.jpg""></div><div class=""button_prompt"">
                        <b>请用数字键1-3回答</b>
                        </div>","","","","","","","","","","","","","","","","","","",""
"575","null","sub_response","html-keyboard-response","63","201004","0.0-1.0-4.2-3.2-2.14","17:59:29","6","","","","","","","<div style='text-align: center;'>
                            <span style=""color: green; font-size: 40px""><b>正确！+1 pts</b></span></div>
                            ","","learn","1","1","1","learn","0","0","[0, 1, 2]","2","0","setsize","99","prac","0","2","0","1",""
"null","null","fixation","html-keyboard-response","64","201505","0.0-1.0-4.2-3.2-0.15","17:59:29","6","","","","","","","fixation","","","","","","","","","","","","","","","","","","",""
"607","3","pic_response","html-keyboard-response","65","202113","0.0-1.0-4.2-3.2-1.15","17:59:29","6","","","","","","","<div>
            <img class='stim' src=""pictures/prac/2.jpg""></div><div class=""button_prompt"">
                        <b>请用数字键1-3回答</b>
                        </div>","","","","","","","","","","","","","","","","","","",""
"607","null","sub_response","html-keyboard-response","66","203115","0.0-1.0-4.2-3.2-2.15","17:59:29","6","","","","","","","<div style='text-align: center;'>
                            <span style=""color: green; font-size: 40px""><b>正确！+1 pts</b></span></div>
                            ","","learn","2","2","2","learn","2","2","[0, 1, 2]","3","1","setsize","99","prac","0","3","2","1",""
"null","null","fixation","html-keyboard-response","67","203618","0.0-1.0-4.2-3.2-0.16","17:59:29","6","","","","","","","fixation","","","","","","","","","","","","","","","","","","",""
"435","1","pic_response","html-keyboard-response","68","204053","0.0-1.0-4.2-3.2-1.16","17:59:29","6","","","","","","","<div>
            <img class='stim' src=""pictures/prac/1.jpg""></div><div class=""button_prompt"">
                        <b>请用数字键1-3回答</b>
                        </div>","","","","","","","","","","","","","","","","","","",""
"435","null","sub_response","html-keyboard-response","69","205055","0.0-1.0-4.2-3.2-2.16","17:59:29","6","","","","","","","<div style='text-align: center;'>
                            <span style=""color: green; font-size: 40px""><b>正确！+1 pts</b></span></div>
                            ","","learn","1","1","1","learn","0","0","[0, 1, 2]","4","1","setsize","99","prac","0","4","0","1",""
"null","null","fixation","html-keyboard-response","70","205556","0.0-1.0-4.2-3.2-0.17","17:59:29","6","","","","","","","fixation","","","","","","","","","","","","","","","","","","",""
"1608","2","pic_response","html-keyboard-response","71","207165","0.0-1.0-4.2-3.2-1.17","17:59:29","6","","","","","","","<div>
            <img class='stim' src=""pictures/prac/0.jpg""></div><div class=""button_prompt"">
                        <b>请用数字键1-3回答</b>
                        </div>","","","","","","","","","","","","","","","","","","",""
"1608","null","sub_response","html-keyboard-response","72","208167","0.0-1.0-4.2-3.2-2.17","17:59:29","6","","","","","","","<div style='text-align: center;'>
                            <span style=""color: red; font-size: 40px""><b>错误！+0 pts</b></span></div>
                            ","","learn","0","0","0","learn","0","0","[0, 1, 2]","5","1","setsize","99","prac","0","0","1","0",""
"","","","preload","73","208187","0.0-1.0-4.3-0.3","17:59:29","6","true","false","[]","[]","[]","","","","","","","","","","","","","","","","","","","","",""
"1513"," ","","html-keyboard-response","74","209701","0.0-1.0-4.3-1.3","17:59:29","6","","","","","","","<div style='font-size: 32px; text-align: center;'
                    <p>请学习图片和数字之间的对应关系</p>
                    <p>我们将<span style='color: blue'><b> 告诉 </b></span>您选择的对错。请根据反馈学习。</p>
                    <p>请按""空格""继续实验。</p></div>","","","","","","","","","","","","","","","","","","",""
"10184"," ","inst","html-keyboard-response","75","219886","0.0-1.0-4.3-2.3","17:59:29","6","","","","","","","<img class='instruct_stim' src=""instruction/prac3.PNG""></div>","","","","","","","","","","","","","","","","","","",""
"null","null","fixation","html-keyboard-response","76","220387","0.0-1.0-4.3-3.3-0.18","17:59:29","6","","","","","","","fixation","","","","","","","","","","","","","","","","","","",""
"null","null","pic_response","html-keyboard-response","77","223389","0.0-1.0-4.3-3.3-1.18","17:59:29","6","","","","","","","<div>
            <img class='stim' src=""pictures/prac/0.jpg""></div><div class=""button_prompt"">
                        <b>请用数字键1-3回答</b>
                        </div>","","","","","","","","","","","","","","","","","","",""
"null","null","sub_response","html-keyboard-response","78","224392","0.0-1.0-4.3-3.3-2.18","17:59:29","6","","","","","","","<div style='text-align: center;'>
                            <span style=""color: red; font-size: 40px""><b>错误！+0 pts</b></span></div>
                            ","","learn","0","0","0","learn","0","0","[0, 1, 2]","0","0","setsize","99","prac","0","0","999","0",""
"null","null","fixation","html-keyboard-response","79","224893","0.0-1.0-4.3-3.3-0.19","17:59:29","6","","","","","","","fixation","","","","","","","","","","","","","","","","","","",""
"772","3","pic_response","html-keyboard-response","80","225665","0.0-1.0-4.3-3.3-1.19","17:59:29","6","","","","","","","<div>
            <img class='stim' src=""pictures/prac/2.jpg""></div><div class=""button_prompt"">
                        <b>请用数字键1-3回答</b>
                        </div>","","","","","","","","","","","","","","","","","","",""
"772","null","sub_response","html-keyboard-response","81","226666","0.0-1.0-4.3-3.3-2.19","17:59:29","6","","","","","","","<div style='text-align: center;'>
                            <span style=""color: green; font-size: 40px""><b>正确！+1 pts</b></span></div>
                            ","","learn","2","2","2","learn","2","2","[0, 1, 2]","1","0","setsize","99","prac","0","1","2","1",""
"null","null","fixation","html-keyboard-response","82","227169","0.0-1.0-4.3-3.3-0.20","17:59:29","6","","","","","","","fixation","","","","","","","","","","","","","","","","","","",""
"201","1","pic_response","html-keyboard-response","83","227371","0.0-1.0-4.3-3.3-1.20","17:59:29","6","","","","","","","<div>
            <img class='stim' src=""pictures/prac/1.jpg""></div><div class=""button_prompt"">
                        <b>请用数字键1-3回答</b>
                        </div>","","","","","","","","","","","","","","","","","","",""
"201","null","sub_response","html-keyboard-response","84","228373","0.0-1.0-4.3-3.3-2.20","17:59:29","6","","","","","","","<div style='text-align: center;'>
                            <span style=""color: green; font-size: 40px""><b>正确！+1 pts</b></span></div>
                            ","","learn","1","1","1","learn","0","0","[0, 1, 2]","2","0","setsize","99","prac","0","2","0","1",""
"null","null","fixation","html-keyboard-response","85","228874","0.0-1.0-4.3-3.3-0.21","17:59:29","6","","","","","","","fixation","","","","","","","","","","","","","","","","","","",""
"384","3","pic_response","html-keyboard-response","86","229259","0.0-1.0-4.3-3.3-1.21","17:59:29","6","","","","","","","<div>
            <img class='stim' src=""pictures/prac/2.jpg""></div><div class=""button_prompt"">
                        <b>请用数字键1-3回答</b>
                        </div>","","","","","","","","","","","","","","","","","","",""
"384","null","sub_response","html-keyboard-response","87","230261","0.0-1.0-4.3-3.3-2.21","17:59:29","6","","","","","","","<div style='text-align: center;'>
                            <span style=""color: green; font-size: 40px""><b>正确！+1 pts</b></span></div>
                            ","","learn","2","2","2","learn","2","2","[0, 1, 2]","3","1","setsize","99","prac","0","3","2","1",""
"null","null","fixation","html-keyboard-response","88","230762","0.0-1.0-4.3-3.3-0.22","17:59:29","6","","","","","","","fixation","","","","","","","","","","","","","","","","","","",""
"678","3","pic_response","html-keyboard-response","89","231441","0.0-1.0-4.3-3.3-1.22","17:59:29","6","","","","","","","<div>
            <img class='stim' src=""pictures/prac/1.jpg""></div><div class=""button_prompt"">
                        <b>请用数字键1-3回答</b>
                        </div>","","","","","","","","","","","","","","","","","","",""
"678","null","sub_response","html-keyboard-response","90","232442","0.0-1.0-4.3-3.3-2.22","17:59:29","6","","","","","","","<div style='text-align: center;'>
                            <span style=""color: red; font-size: 40px""><b>错误！+0 pts</b></span></div>
                            ","","learn","1","1","1","learn","0","0","[0, 1, 2]","4","1","setsize","99","prac","0","0","2","0",""
"null","null","fixation","html-keyboard-response","91","232944","0.0-1.0-4.3-3.3-0.23","17:59:29","6","","","","","","","fixation","","","","","","","","","","","","","","","","","","",""
"354","3","pic_response","html-keyboard-response","92","233299","0.0-1.0-4.3-3.3-1.23","17:59:29","6","","","","","","","<div>
            <img class='stim' src=""pictures/prac/0.jpg""></div><div class=""button_prompt"">
                        <b>请用数字键1-3回答</b>
                        </div>","","","","","","","","","","","","","","","","","","",""
"354","null","sub_response","html-keyboard-response","93","234301","0.0-1.0-4.3-3.3-2.23","17:59:29","6","","","","","","","<div style='text-align: center;'>
                            <span style=""color: red; font-size: 40px""><b>错误！+0 pts</b></span></div>
                            ","","learn","0","0","0","learn","0","0","[0, 1, 2]","5","1","setsize","99","prac","0","0","2","0",""
"","","","preload","94","234305","0.0-1.0-4.4-0.4","17:59:29","6","true","false","[]","[]","[]","","","","","","","","","","","","","","","","","","","","",""
"572"," ","","html-keyboard-response","95","234877","0.0-1.0-4.4-1.4","17:59:29","6","","","","","","","<div style='font-size: 32px; text-align: center;'
                    <p>请学习图片和数字之间的对应关系</p>
                    <p>我们将<span style='color: blue'><b> 告诉 </b></span>您选择的对错。请根据反馈学习。</p>
                    <p>请按""空格""继续实验。</p></div>","","","","","","","","","","","","","","","","","","",""
"407"," ","inst","html-keyboard-response","96","235285","0.0-1.0-4.4-2.4","17:59:29","6","","","","","","","<img class='instruct_stim' src=""instruction/prac3.PNG""></div>","","","","","","","","","","","","","","","","","","",""
"null","null","fixation","html-keyboard-response","97","235786","0.0-1.0-4.4-3.4-0.24","17:59:29","6","","","","","","","fixation","","","","","","","","","","","","","","","","","","",""
"362","3","pic_response","html-keyboard-response","98","236149","0.0-1.0-4.4-3.4-1.24","17:59:29","6","","","","","","","<div>
            <img class='stim' src=""pictures/prac/0.jpg""></div><div class=""button_prompt"">
                        <b>请用数字键1-3回答</b>
                        </div>","","","","","","","","","","","","","","","","","","",""
"362","null","sub_response","html-keyboard-response","99","237150","0.0-1.0-4.4-3.4-2.24","17:59:29","6","","","","","","","<div style='text-align: center;'>
                            <span style=""color: red; font-size: 40px""><b>错误！+0 pts</b></span></div>
                            ","","learn","0","0","0","learn","0","0","[0, 1, 2]","0","0","setsize","99","prac","0","0","2","0",""
"null","null","fixation","html-keyboard-response","100","237653","0.0-1.0-4.4-3.4-0.25","17:59:29","6","","","","","","","fixation","","","","","","","","","","","","","","","","","","",""
"581","3","pic_response","html-keyboard-response","101","238235","0.0-1.0-4.4-3.4-1.25","17:59:29","6","","","","","","","<div>
            <img class='stim' src=""pictures/prac/2.jpg""></div><div class=""button_prompt"">
                        <b>请用数字键1-3回答</b>
                        </div>","","","","","","","","","","","","","","","","","","",""
"581","null","sub_response","html-keyboard-response","102","239239","0.0-1.0-4.4-3.4-2.25","17:59:29","6","","","","","","","<div style='text-align: center;'>
                            <span style=""color: green; font-size: 40px""><b>正确！+1 pts</b></span></div>
                            ","","learn","2","2","2","learn","2","2","[0, 1, 2]","1","0","setsize","99","prac","0","1","2","1",""
"null","null","fixation","html-keyboard-response","103","239741","0.0-1.0-4.4-3.4-0.26","17:59:29","6","","","","","","","fixation","","","","","","","","","","","","","","","","","","",""
"821","1","pic_response","html-keyboard-response","104","240563","0.0-1.0-4.4-3.4-1.26","17:59:29","6","","","","","","","<div>
            <img class='stim' src=""pictures/prac/1.jpg""></div><div class=""button_prompt"">
                        <b>请用数字键1-3回答</b>
                        </div>","","","","","","","","","","","","","","","","","","",""
"821","null","sub_response","html-keyboard-response","105","241565","0.0-1.0-4.4-3.4-2.26","17:59:29","6","","","","","","","<div style='text-align: center;'>
                            <span style=""color: green; font-size: 40px""><b>正确！+1 pts</b></span></div>
                            ","","learn","1","1","1","learn","0","0","[0, 1, 2]","2","0","setsize","99","prac","0","2","0","1",""
"null","null","fixation","html-keyboard-response","106","242066","0.0-1.0-4.4-3.4-0.27","17:59:29","6","","","","","","","fixation","","","","","","","","","","","","","","","","","","",""
"592","3","pic_response","html-keyboard-response","107","242659","0.0-1.0-4.4-3.4-1.27","17:59:29","6","","","","","","","<div>
            <img class='stim' src=""pictures/prac/2.jpg""></div><div class=""button_prompt"">
                        <b>请用数字键1-3回答</b>
                        </div>","","","","","","","","","","","","","","","","","","",""
"592","null","sub_response","html-keyboard-response","108","243660","0.0-1.0-4.4-3.4-2.27","17:59:29","6","","","","","","","<div style='text-align: center;'>
                            <span style=""color: green; font-size: 40px""><b>正确！+1 pts</b></span></div>
                            ","","learn","2","2","2","learn","2","2","[0, 1, 2]","3","1","setsize","99","prac","0","3","2","1",""
"null","null","fixation","html-keyboard-response","109","244162","0.0-1.0-4.4-3.4-0.28","17:59:29","6","","","","","","","fixation","","","","","","","","","","","","","","","","","","",""
"664","1","pic_response","html-keyboard-response","110","244827","0.0-1.0-4.4-3.4-1.28","17:59:29","6","","","","","","","<div>
            <img class='stim' src=""pictures/prac/1.jpg""></div><div class=""button_prompt"">
                        <b>请用数字键1-3回答</b>
                        </div>","","","","","","","","","","","","","","","","","","",""
"664","null","sub_response","html-keyboard-response","111","245829","0.0-1.0-4.4-3.4-2.28","17:59:29","6","","","","","","","<div style='text-align: center;'>
                            <span style=""color: green; font-size: 40px""><b>正确！+1 pts</b></span></div>
                            ","","learn","1","1","1","learn","0","0","[0, 1, 2]","4","1","setsize","99","prac","0","4","0","1",""
"null","null","fixation","html-keyboard-response","112","246331","0.0-1.0-4.4-3.4-0.29","17:59:29","6","","","","","","","fixation","","","","","","","","","","","","","","","","","","",""
"1602","3","pic_response","html-keyboard-response","113","247933","0.0-1.0-4.4-3.4-1.29","17:59:29","6","","","","","","","<div>
            <img class='stim' src=""pictures/prac/0.jpg""></div><div class=""button_prompt"">
                        <b>请用数字键1-3回答</b>
                        </div>","","","","","","","","","","","","","","","","","","",""
"1602","null","sub_response","html-keyboard-response","114","248934","0.0-1.0-4.4-3.4-2.29","17:59:29","6","","","","","","","<div style='text-align: center;'>
                            <span style=""color: red; font-size: 40px""><b>错误！+0 pts</b></span></div>
                            ","","learn","0","0","0","learn","0","0","[0, 1, 2]","5","1","setsize","99","prac","0","0","2","0",""
"","","","preload","115","248940","0.0-1.0-4.5-0.5","17:59:29","6","true","false","[]","[]","[]","","","","","","","","","","","","","","","","","","","","",""
"619"," ","","html-keyboard-response","116","249560","0.0-1.0-4.5-1.5","17:59:29","6","","","","","","","<div style='font-size: 32px; text-align: center;'
                    <p>请学习图片和数字之间的对应关系</p>
                    <p>我们将<span style='color: blue'><b> 告诉 </b></span>您选择的对错。请根据反馈学习。</p>
                    <p>请按""空格""继续实验。</p></div>","","","","","","","","","","","","","","","","","","",""
"6086"," ","inst","html-keyboard-response","117","255646","0.0-1.0-4.5-2.5","17:59:29","6","","","","","","","<img class='instruct_stim' src=""instruction/prac3.PNG""></div>","","","","","","","","","","","","","","","","","","",""
"null","null","fixation","html-keyboard-response","118","256148","0.0-1.0-4.5-3.5-0.30","17:59:29","6","","","","","","","fixation","","","","","","","","","","","","","","","","","","",""
"2403","1","pic_response","html-keyboard-response","119","258552","0.0-1.0-4.5-3.5-1.30","17:59:29","6","","","","","","","<div>
            <img class='stim' src=""pictures/prac/0.jpg""></div><div class=""button_prompt"">
                        <b>请用数字键1-3回答</b>
                        </div>","","","","","","","","","","","","","","","","","","",""
"2403","null","sub_response","html-keyboard-response","120","259554","0.0-1.0-4.5-3.5-2.30","17:59:29","6","","","","","","","<div style='text-align: center;'>
                            <span style=""color: green; font-size: 40px""><b>正确！+1 pts</b></span></div>
                            ","","learn","0","0","0","learn","0","0","[0, 1, 2]","0","0","setsize","99","prac","0","1","0","1",""
"null","null","fixation","html-keyboard-response","121","260056","0.0-1.0-4.5-3.5-0.31","17:59:29","6","","","","","","","fixation","","","","","","","","","","","","","","","","","","",""
"757","3","pic_response","html-keyboard-response","122","260814","0.0-1.0-4.5-3.5-1.31","17:59:29","6","","","","","","","<div>
            <img class='stim' src=""pictures/prac/2.jpg""></div><div class=""button_prompt"">
                        <b>请用数字键1-3回答</b>
                        </div>","","","","","","","","","","","","","","","","","","",""
"757","null","sub_response","html-keyboard-response","123","261815","0.0-1.0-4.5-3.5-2.31","17:59:29","6","","","","","","","<div style='text-align: center;'>
                            <span style=""color: green; font-size: 40px""><b>正确！+1 pts</b></span></div>
                            ","","learn","2","2","2","learn","2","2","[0, 1, 2]","1","0","setsize","99","prac","0","2","2","1",""
"null","null","fixation","html-keyboard-response","124","262317","0.0-1.0-4.5-3.5-0.32","17:59:29","6","","","","","","","fixation","","","","","","","","","","","","","","","","","","",""
"435","1","pic_response","html-keyboard-response","125","262752","0.0-1.0-4.5-3.5-1.32","17:59:29","6","","","","","","","<div>
            <img class='stim' src=""pictures/prac/1.jpg""></div><div class=""button_prompt"">
                        <b>请用数字键1-3回答</b>
                        </div>","","","","","","","","","","","","","","","","","","",""
"435","null","sub_response","html-keyboard-response","126","263753","0.0-1.0-4.5-3.5-2.32","17:59:29","6","","","","","","","<div style='text-align: center;'>
                            <span style=""color: green; font-size: 40px""><b>正确！+1 pts</b></span></div>
                            ","","learn","1","1","1","learn","0","0","[0, 1, 2]","2","0","setsize","99","prac","0","3","0","1",""
"null","null","fixation","html-keyboard-response","127","264254","0.0-1.0-4.5-3.5-0.33","17:59:29","6","","","","","","","fixation","","","","","","","","","","","","","","","","","","",""
"321","3","pic_response","html-keyboard-response","128","264576","0.0-1.0-4.5-3.5-1.33","17:59:29","6","","","","","","","<div>
            <img class='stim' src=""pictures/prac/2.jpg""></div><div class=""button_prompt"">
                        <b>请用数字键1-3回答</b>
                        </div>","","","","","","","","","","","","","","","","","","",""
"321","null","sub_response","html-keyboard-response","129","265577","0.0-1.0-4.5-3.5-2.33","17:59:29","6","","","","","","","<div style='text-align: center;'>
                            <span style=""color: green; font-size: 40px""><b>正确！+1 pts</b></span></div>
                            ","","learn","2","2","2","learn","2","2","[0, 1, 2]","3","1","setsize","99","prac","0","4","2","1",""
"null","null","fixation","html-keyboard-response","130","266079","0.0-1.0-4.5-3.5-0.34","17:59:29","6","","","","","","","fixation","","","","","","","","","","","","","","","","","","",""
"279","1","pic_response","html-keyboard-response","131","266360","0.0-1.0-4.5-3.5-1.34","17:59:29","6","","","","","","","<div>
            <img class='stim' src=""pictures/prac/1.jpg""></div><div class=""button_prompt"">
                        <b>请用数字键1-3回答</b>
                        </div>","","","","","","","","","","","","","","","","","","",""
"279","null","sub_response","html-keyboard-response","132","267363","0.0-1.0-4.5-3.5-2.34","17:59:29","6","","","","","","","<div style='text-align: center;'>
                            <span style=""color: green; font-size: 40px""><b>正确！+1 pts</b></span></div>
                            ","","learn","1","1","1","learn","0","0","[0, 1, 2]","4","1","setsize","99","prac","0","5","0","1",""
"null","null","fixation","html-keyboard-response","133","267864","0.0-1.0-4.5-3.5-0.35","17:59:29","6","","","","","","","fixation","","","","","","","","","","","","","","","","","","",""
"355","3","pic_response","html-keyboard-response","134","268220","0.0-1.0-4.5-3.5-1.35","17:59:29","6","","","","","","","<div>
            <img class='stim' src=""pictures/prac/0.jpg""></div><div class=""button_prompt"">
                        <b>请用数字键1-3回答</b>
                        </div>","","","","","","","","","","","","","","","","","","",""
"355","null","sub_response","html-keyboard-response","135","269222","0.0-1.0-4.5-3.5-2.35","17:59:29","6","","","","","","","<div style='text-align: center;'>
                            <span style=""color: red; font-size: 40px""><b>错误！+0 pts</b></span></div>
                            ","","learn","0","0","0","learn","0","0","[0, 1, 2]","5","1","setsize","99","prac","0","0","2","0",""
"12346"," ","","html-keyboard-response","136","281572","0.0-1.0-5.0","17:59:29","6","","","","","","","<div style=""font-size: 25px""><p>距下一个实验开始还有</p><div style=""font-size: 50px; color: blue""><p><span id=""clock"">1:00</span></div></p><p>按""空格""跳过休息</p></div>","","","","","","","","","","","","","","","","","","",""
"573"," ","","html-keyboard-response","137","282148","0.0-1.0-6.0","17:59:29","6","","","","","","","<div style='font-size: 32px; text-align: center;'
                    <p>请按""空格""继续正式实验。</p></div>","","","","","","","","","","","","","","","","","","",""
"","","","preload","138","282840","0.0-1.0-7.0-0.0","17:59:29","6","true","false","[]","[]","[]","","","","","","","","","","","","","","","","","","","","",""
"967"," ","","html-keyboard-response","139","283808","0.0-1.0-7.0-1.0","17:59:29","6","","","","","","","<div style='font-size: 32px; text-align: center;'
                    <p>请学习图片和数字之间的对应关系</p>
                    <p>我们将<span style='color: blue'><b> 告诉 </b></span>您选择的对错。请根据反馈学习。</p>
                    <p>请按""空格""继续实验。</p></div>","","","","","","","","","","","","","","","","","","",""
"5307"," ","inst","html-keyboard-response","140","289117","0.0-1.0-7.0-2.0","17:59:29","6","","","","","","","<img class='instruct_stim' src=""instruction/animals10.PNG""></div>","","","","","","","","","","","","","","","","","","",""
"null","null","fixation","html-keyboard-response","141","289618","0.0-1.0-7.0-3.0-0.0","17:59:29","6","","","","","","","fixation","","","","","","","","","","","","","","","","","","",""
"2762","1","pic_response","html-keyboard-response","142","292380","0.0-1.0-7.0-3.0-1.0","17:59:29","6","","","","","","","<div>
            <img class='stim' src=""pictures/animals/2.jpg""></div><div class=""button_prompt"">
                    <b>请用数字键0-9回答</b>
                    </div>","","","","","","","","","","","","","","","","","","",""
"2762","null","sub_response","html-keyboard-response","143","293383","0.0-1.0-7.0-3.0-2.0","17:59:29","6","","","","","","","<div style='text-align: center;'>
                            <span style=""color: red; font-size: 40px""><b>错误！+0 pts</b></span></div>
                            ","","learn","2","2","2","learn","2","2","[0, 1, 2, 3, 4, 5, 6, 7, 8, 9]","0","0","setsize","10S10A","animals","1","0","0","0",""
"null","null","fixation","html-keyboard-response","144","293885","0.0-1.0-7.0-3.0-0.1","17:59:29","6","","","","","","","fixation","","","","","","","","","","","","","","","","","","",""
"530","1","pic_response","html-keyboard-response","145","294416","0.0-1.0-7.0-3.0-1.1","17:59:29","6","","","","","","","<div>
            <img class='stim' src=""pictures/animals/5.jpg""></div><div class=""button_prompt"">
                    <b>请用数字键0-9回答</b>
                    </div>","","","","","","","","","","","","","","","","","","",""
"530","null","sub_response","html-keyboard-response","146","295418","0.0-1.0-7.0-3.0-2.1","17:59:29","6","","","","","","","<div style='text-align: center;'>
                            <span style=""color: red; font-size: 40px""><b>错误！+0 pts</b></span></div>
                            ","","learn","5","5","5","learn","5","5","[0, 1, 2, 3, 4, 5, 6, 7, 8, 9]","1","0","setsize","10S10A","animals","1","0","0","0",""
"null","null","fixation","html-keyboard-response","147","295919","0.0-1.0-7.0-3.0-0.2","17:59:29","6","","","","","","","fixation","","","","","","","","","","","","","","","","","","",""
"832","2","pic_response","html-keyboard-response","148","296752","0.0-1.0-7.0-3.0-1.2","17:59:29","6","","","","","","","<div>
            <img class='stim' src=""pictures/animals/7.jpg""></div><div class=""button_prompt"">
                    <b>请用数字键0-9回答</b>
                    </div>","","","","","","","","","","","","","","","","","","",""
"832","null","sub_response","html-keyboard-response","149","297754","0.0-1.0-7.0-3.0-2.2","17:59:29","6","","","","","","","<div style='text-align: center;'>
                            <span style=""color: red; font-size: 40px""><b>错误！+0 pts</b></span></div>
                            ","","learn","7","7","7","learn","7","7","[0, 1, 2, 3, 4, 5, 6, 7, 8, 9]","2","0","setsize","10S10A","animals","1","0","1","0",""
"null","null","fixation","html-keyboard-response","150","298256","0.0-1.0-7.0-3.0-0.3","17:59:29","6","","","","","","","fixation","","","","","","","","","","","","","","","","","","",""
"277","5","pic_response","html-keyboard-response","151","298534","0.0-1.0-7.0-3.0-1.3","17:59:29","6","","","","","","","<div>
            <img class='stim' src=""pictures/animals/9.jpg""></div><div class=""button_prompt"">
                    <b>请用数字键0-9回答</b>
                    </div>","","","","","","","","","","","","","","","","","","",""
"277","null","sub_response","html-keyboard-response","152","299535","0.0-1.0-7.0-3.0-2.3","17:59:29","6","","","","","","","<div style='text-align: center;'>
                            <span style=""color: red; font-size: 40px""><b>错误！+0 pts</b></span></div>
                            ","","learn","9","9","9","learn","9","9","[0, 1, 2, 3, 4, 5, 6, 7, 8, 9]","3","0","setsize","10S10A","animals","1","0","4","0",""
"null","null","fixation","html-keyboard-response","153","300037","0.0-1.0-7.0-3.0-0.4","17:59:29","6","","","","","","","fixation","","","","","","","","","","","","","","","","","","",""
"180","7","pic_response","html-keyboard-response","154","300218","0.0-1.0-7.0-3.0-1.4","17:59:29","6","","","","","","","<div>
            <img class='stim' src=""pictures/animals/6.jpg""></div><div class=""button_prompt"">
                    <b>请用数字键0-9回答</b>
                    </div>","","","","","","","","","","","","","","","","","","",""
"180","null","sub_response","html-keyboard-response","155","301219","0.0-1.0-7.0-3.0-2.4","17:59:29","6","","","","","","","<div style='text-align: center;'>
                            <span style=""color: green; font-size: 40px""><b>正确！+1 pts</b></span></div>
                            ","","learn","6","6","6","learn","6","6","[0, 1, 2, 3, 4, 5, 6, 7, 8, 9]","4","0","setsize","10S10A","animals","1","1","6","1",""
"null","null","fixation","html-keyboard-response","156","301720","0.0-1.0-7.0-3.0-0.5","17:59:29","6","","","","","","","fixation","","","","","","","","","","","","","","","","","","",""
"849","8","pic_response","html-keyboard-response","157","302570","0.0-1.0-7.0-3.0-1.5","17:59:29","6","","","","","","","<div>
            <img class='stim' src=""pictures/animals/4.jpg""></div><div class=""button_prompt"">
                    <b>请用数字键0-9回答</b>
                    </div>","","","","","","","","","","","","","","","","","","",""
"849","null","sub_response","html-keyboard-response","158","303572","0.0-1.0-7.0-3.0-2.5","17:59:29","6","","","","","","","<div style='text-align: center;'>
                            <span style=""color: red; font-size: 40px""><b>错误！+0 pts</b></span></div>
                            ","","learn","4","4","4","learn","4","4","[0, 1, 2, 3, 4, 5, 6, 7, 8, 9]","5","0","setsize","10S10A","animals","1","0","7","0",""
"null","null","fixation","html-keyboard-response","159","304073","0.0-1.0-7.0-3.0-0.6","17:59:29","6","","","","","","","fixation","","","","","","","","","","","","","","","","","","",""
"442","4","pic_response","html-keyboard-response","160","304516","0.0-1.0-7.0-3.0-1.6","17:59:29","6","","","","","","","<div>
            <img class='stim' src=""pictures/animals/0.jpg""></div><div class=""button_prompt"">
                    <b>请用数字键0-9回答</b>
                    </div>","","","","","","","","","","","","","","","","","","",""
"442","null","sub_response","html-keyboard-response","161","305517","0.0-1.0-7.0-3.0-2.6","17:59:29","6","","","","","","","<div style='text-align: center;'>
                            <span style=""color: red; font-size: 40px""><b>错误！+0 pts</b></span></div>
                            ","","learn","0","0","0","learn","0","0","[0, 1, 2, 3, 4, 5, 6, 7, 8, 9]","6","0","setsize","10S10A","animals","1","0","3","0",""
"null","null","fixation","html-keyboard-response","162","306019","0.0-1.0-7.0-3.0-0.7","17:59:29","6","","","","","","","fixation","","","","","","","","","","","","","","","","","","",""
"575","6","pic_response","html-keyboard-response","163","306594","0.0-1.0-7.0-3.0-1.7","17:59:29","6","","","","","","","<div>
            <img class='stim' src=""pictures/animals/8.jpg""></div><div class=""button_prompt"">
                    <b>请用数字键0-9回答</b>
                    </div>","","","","","","","","","","","","","","","","","","",""
"575","null","sub_response","html-keyboard-response","164","307596","0.0-1.0-7.0-3.0-2.7","17:59:29","6","","","","","","","<div style='text-align: center;'>
                            <span style=""color: red; font-size: 40px""><b>错误！+0 pts</b></span></div>
                            ","","learn","8","8","8","learn","8","8","[0, 1, 2, 3, 4, 5, 6, 7, 8, 9]","7","0","setsize","10S10A","animals","1","0","5","0",""
"null","null","fixation","html-keyboard-response","165","308097","0.0-1.0-7.0-3.0-0.8","17:59:29","6","","","","","","","fixation","","","","","","","","","","","","","","","","","","",""
"214","8","pic_response","html-keyboard-response","166","308312","0.0-1.0-7.0-3.0-1.8","17:59:29","6","","","","","","","<div>
            <img class='stim' src=""pictures/animals/1.jpg""></div><div class=""button_prompt"">
                    <b>请用数字键0-9回答</b>
                    </div>","","","","","","","","","","","","","","","","","","",""
"214","null","sub_response","html-keyboard-response","167","309313","0.0-1.0-7.0-3.0-2.8","17:59:29","6","","","","","","","<div style='text-align: center;'>
                            <span style=""color: red; font-size: 40px""><b>错误！+0 pts</b></span></div>
                            ","","learn","1","1","1","learn","1","1","[0, 1, 2, 3, 4, 5, 6, 7, 8, 9]","8","0","setsize","10S10A","animals","1","0","7","0",""
"null","null","fixation","html-keyboard-response","168","309814","0.0-1.0-7.0-3.0-0.9","17:59:29","6","","","","","","","fixation","","","","","","","","","","","","","","","","","","",""
"266","9","pic_response","html-keyboard-response","169","310080","0.0-1.0-7.0-3.0-1.9","17:59:29","6","","","","","","","<div>
            <img class='stim' src=""pictures/animals/3.jpg""></div><div class=""button_prompt"">
                    <b>请用数字键0-9回答</b>
                    </div>","","","","","","","","","","","","","","","","","","",""
"266","null","sub_response","html-keyboard-response","170","311081","0.0-1.0-7.0-3.0-2.9","17:59:29","6","","","","","","","<div style='text-align: center;'>
                            <span style=""color: red; font-size: 40px""><b>错误！+0 pts</b></span></div>
                            ","","learn","3","3","3","learn","3","3","[0, 1, 2, 3, 4, 5, 6, 7, 8, 9]","9","0","setsize","10S10A","animals","1","0","8","0",""
"null","null","fixation","html-keyboard-response","171","311584","0.0-1.0-7.0-3.0-0.10","17:59:29","6","","","","","","","fixation","","","","","","","","","","","","","","","","","","",""
"889","7","pic_response","html-keyboard-response","172","312474","0.0-1.0-7.0-3.0-1.10","17:59:29","6","","","","","","","<div>
            <img class='stim' src=""pictures/animals/4.jpg""></div><div class=""button_prompt"">
                    <b>请用数字键0-9回答</b>
                    </div>","","","","","","","","","","","","","","","","","","",""
"889","null","sub_response","html-keyboard-response","173","313476","0.0-1.0-7.0-3.0-2.10","17:59:29","6","","","","","","","<div style='text-align: center;'>
                            <span style=""color: red; font-size: 40px""><b>错误！+0 pts</b></span></div>
                            ","","learn","4","4","4","learn","4","4","[0, 1, 2, 3, 4, 5, 6, 7, 8, 9]","10","1","setsize","10S10A","animals","1","0","6","0",""
"null","null","fixation","html-keyboard-response","174","313976","0.0-1.0-7.0-3.0-0.11","17:59:29","6","","","","","","","fixation","","","","","","","","","","","","","","","","","","",""
"389","7","pic_response","html-keyboard-response","175","314366","0.0-1.0-7.0-3.0-1.11","17:59:29","6","","","","","","","<div>
            <img class='stim' src=""pictures/animals/6.jpg""></div><div class=""button_prompt"">
                    <b>请用数字键0-9回答</b>
                    </div>","","","","","","","","","","","","","","","","","","",""
"389","null","sub_response","html-keyboard-response","176","315368","0.0-1.0-7.0-3.0-2.11","17:59:29","6","","","","","","","<div style='text-align: center;'>
                            <span style=""color: green; font-size: 40px""><b>正确！+1 pts</b></span></div>
                            ","","learn","6","6","6","learn","6","6","[0, 1, 2, 3, 4, 5, 6, 7, 8, 9]","11","1","setsize","10S10A","animals","1","1","6","1",""
"null","null","fixation","html-keyboard-response","177","315870","0.0-1.0-7.0-3.0-0.12","17:59:29","6","","","","","","","fixation","","","","","","","","","","","","","","","","","","",""
"556","5","pic_response","html-keyboard-response","178","316427","0.0-1.0-7.0-3.0-1.12","17:59:29","6","","","","","","","<div>
            <img class='stim' src=""pictures/animals/1.jpg""></div><div class=""button_prompt"">
                    <b>请用数字键0-9回答</b>
                    </div>","","","","","","","","","","","","","","","","","","",""
"556","null","sub_response","html-keyboard-response","179","317428","0.0-1.0-7.0-3.0-2.12","17:59:29","6","","","","","","","<div style='text-align: center;'>
                            <span style=""color: red; font-size: 40px""><b>错误！+0 pts</b></span></div>
                            ","","learn","1","1","1","learn","1","1","[0, 1, 2, 3, 4, 5, 6, 7, 8, 9]","12","1","setsize","10S10A","animals","1","0","4","0",""
"null","null","fixation","html-keyboard-response","180","317929","0.0-1.0-7.0-3.0-0.13","17:59:29","6","","","","","","","fixation","","","","","","","","","","","","","","","","","","",""
"279","2","pic_response","html-keyboard-response","181","318209","0.0-1.0-7.0-3.0-1.13","17:59:29","6","","","","","","","<div>
            <img class='stim' src=""pictures/animals/2.jpg""></div><div class=""button_prompt"">
                    <b>请用数字键0-9回答</b>
                    </div>","","","","","","","","","","","","","","","","","","",""
"279","null","sub_response","html-keyboard-response","182","319210","0.0-1.0-7.0-3.0-2.13","17:59:29","6","","","","","","","<div style='text-align: center;'>
                            <span style=""color: red; font-size: 40px""><b>错误！+0 pts</b></span></div>
                            ","","learn","2","2","2","learn","2","2","[0, 1, 2, 3, 4, 5, 6, 7, 8, 9]","13","1","setsize","10S10A","animals","1","0","1","0",""
"null","null","fixation","html-keyboard-response","183","319713","0.0-1.0-7.0-3.0-0.14","17:59:29","6","","","","","","","fixation","","","","","","","","","","","","","","","","","","",""
"423","3","pic_response","html-keyboard-response","184","320137","0.0-1.0-7.0-3.0-1.14","17:59:29","6","","","","","","","<div>
            <img class='stim' src=""pictures/animals/8.jpg""></div><div class=""button_prompt"">
                    <b>请用数字键0-9回答</b>
                    </div>","","","","","","","","","","","","","","","","","","",""
"423","null","sub_response","html-keyboard-response","185","321138","0.0-1.0-7.0-3.0-2.14","17:59:29","6","","","","","","","<div style='text-align: center;'>
                            <span style=""color: red; font-size: 40px""><b>错误！+0 pts</b></span></div>
                            ","","learn","8","8","8","learn","8","8","[0, 1, 2, 3, 4, 5, 6, 7, 8, 9]","14","1","setsize","10S10A","animals","1","0","2","0",""
"null","null","fixation","html-keyboard-response","186","321640","0.0-1.0-7.0-3.0-0.15","17:59:29","6","","","","","","","fixation","","","","","","","","","","","","","","","","","","",""
"246","1","pic_response","html-keyboard-response","187","321887","0.0-1.0-7.0-3.0-1.15","17:59:29","6","","","","","","","<div>
            <img class='stim' src=""pictures/animals/7.jpg""></div><div class=""button_prompt"">
                    <b>请用数字键0-9回答</b>
                    </div>","","","","","","","","","","","","","","","","","","",""
"246","null","sub_response","html-keyboard-response","188","322888","0.0-1.0-7.0-3.0-2.15","17:59:29","6","","","","","","","<div style='text-align: center;'>
                            <span style=""color: red; font-size: 40px""><b>错误！+0 pts</b></span></div>
                            ","","learn","7","7","7","learn","7","7","[0, 1, 2, 3, 4, 5, 6, 7, 8, 9]","15","1","setsize","10S10A","animals","1","0","0","0",""
"null","null","fixation","html-keyboard-response","189","323390","0.0-1.0-7.0-3.0-0.16","17:59:29","6","","","","","","","fixation","","","","","","","","","","","","","","","","","","",""
"465","1","pic_response","html-keyboard-response","190","323855","0.0-1.0-7.0-3.0-1.16","17:59:29","6","","","","","","","<div>
            <img class='stim' src=""pictures/animals/3.jpg""></div><div class=""button_prompt"">
                    <b>请用数字键0-9回答</b>
                    </div>","","","","","","","","","","","","","","","","","","",""
"465","null","sub_response","html-keyboard-response","191","324857","0.0-1.0-7.0-3.0-2.16","17:59:29","6","","","","","","","<div style='text-align: center;'>
                            <span style=""color: red; font-size: 40px""><b>错误！+0 pts</b></span></div>
                            ","","learn","3","3","3","learn","3","3","[0, 1, 2, 3, 4, 5, 6, 7, 8, 9]","16","1","setsize","10S10A","animals","1","0","0","0",""
"null","null","fixation","html-keyboard-response","192","325359","0.0-1.0-7.0-3.0-0.17","17:59:29","6","","","","","","","fixation","","","","","","","","","","","","","","","","","","",""
"216","2","pic_response","html-keyboard-response","193","325575","0.0-1.0-7.0-3.0-1.17","17:59:29","6","","","","","","","<div>
            <img class='stim' src=""pictures/animals/9.jpg""></div><div class=""button_prompt"">
                    <b>请用数字键0-9回答</b>
                    </div>","","","","","","","","","","","","","","","","","","",""
"216","null","sub_response","html-keyboard-response","194","326576","0.0-1.0-7.0-3.0-2.17","17:59:29","6","","","","","","","<div style='text-align: center;'>
                            <span style=""color: red; font-size: 40px""><b>错误！+0 pts</b></span></div>
                            ","","learn","9","9","9","learn","9","9","[0, 1, 2, 3, 4, 5, 6, 7, 8, 9]","17","1","setsize","10S10A","animals","1","0","1","0",""
"null","null","fixation","html-keyboard-response","195","327079","0.0-1.0-7.0-3.0-0.18","17:59:29","6","","","","","","","fixation","","","","","","","","","","","","","","","","","","",""
"118","1","pic_response","html-keyboard-response","196","327197","0.0-1.0-7.0-3.0-1.18","17:59:29","6","","","","","","","<div>
            <img class='stim' src=""pictures/animals/5.jpg""></div><div class=""button_prompt"">
                    <b>请用数字键0-9回答</b>
                    </div>","","","","","","","","","","","","","","","","","","",""
"118","null","sub_response","html-keyboard-response","197","328198","0.0-1.0-7.0-3.0-2.18","17:59:29","6","","","","","","","<div style='text-align: center;'>
                            <span style=""color: red; font-size: 40px""><b>错误！+0 pts</b></span></div>
                            ","","learn","5","5","5","learn","5","5","[0, 1, 2, 3, 4, 5, 6, 7, 8, 9]","18","1","setsize","10S10A","animals","1","0","0","0",""
"null","null","fixation","html-keyboard-response","198","328700","0.0-1.0-7.0-3.0-0.19","17:59:29","6","","","","","","","fixation","","","","","","","","","","","","","","","","","","",""
"188","1","pic_response","html-keyboard-response","199","328889","0.0-1.0-7.0-3.0-1.19","17:59:29","6","","","","","","","<div>
            <img class='stim' src=""pictures/animals/0.jpg""></div><div class=""button_prompt"">
                    <b>请用数字键0-9回答</b>
                    </div>","","","","","","","","","","","","","","","","","","",""
"188","null","sub_response","html-keyboard-response","200","329889","0.0-1.0-7.0-3.0-2.19","17:59:29","6","","","","","","","<div style='text-align: center;'>
                            <span style=""color: green; font-size: 40px""><b>正确！+1 pts</b></span></div>
                            ","","learn","0","0","0","learn","0","0","[0, 1, 2, 3, 4, 5, 6, 7, 8, 9]","19","1","setsize","10S10A","animals","1","1","0","1",""
"null","null","fixation","html-keyboard-response","201","330391","0.0-1.0-7.0-3.0-0.20","17:59:29","6","","","","","","","fixation","","","","","","","","","","","","","","","","","","",""
"1037","4","pic_response","html-keyboard-response","202","331429","0.0-1.0-7.0-3.0-1.20","17:59:29","6","","","","","","","<div>
            <img class='stim' src=""pictures/animals/1.jpg""></div><div class=""button_prompt"">
                    <b>请用数字键0-9回答</b>
                    </div>","","","","","","","","","","","","","","","","","","",""
"1037","null","sub_response","html-keyboard-response","203","332430","0.0-1.0-7.0-3.0-2.20","17:59:29","6","","","","","","","<div style='text-align: center;'>
                            <span style=""color: red; font-size: 40px""><b>错误！+0 pts</b></span></div>
                            ","","learn","1","1","1","learn","1","1","[0, 1, 2, 3, 4, 5, 6, 7, 8, 9]","20","2","setsize","10S10A","animals","1","0","3","0",""
"null","null","fixation","html-keyboard-response","204","332933","0.0-1.0-7.0-3.0-0.21","17:59:29","6","","","","","","","fixation","","","","","","","","","","","","","","","","","","",""
"794","1","pic_response","html-keyboard-response","205","333727","0.0-1.0-7.0-3.0-1.21","17:59:29","6","","","","","","","<div>
            <img class='stim' src=""pictures/animals/0.jpg""></div><div class=""button_prompt"">
                    <b>请用数字键0-9回答</b>
                    </div>","","","","","","","","","","","","","","","","","","",""
"794","null","sub_response","html-keyboard-response","206","334729","0.0-1.0-7.0-3.0-2.21","17:59:29","6","","","","","","","<div style='text-align: center;'>
                            <span style=""color: green; font-size: 40px""><b>正确！+1 pts</b></span></div>
                            ","","learn","0","0","0","learn","0","0","[0, 1, 2, 3, 4, 5, 6, 7, 8, 9]","21","2","setsize","10S10A","animals","1","1","0","1",""
"null","null","fixation","html-keyboard-response","207","335231","0.0-1.0-7.0-3.0-0.22","17:59:29","6","","","","","","","fixation","","","","","","","","","","","","","","","","","","",""
"440","7","pic_response","html-keyboard-response","208","335671","0.0-1.0-7.0-3.0-1.22","17:59:29","6","","","","","","","<div>
            <img class='stim' src=""pictures/animals/6.jpg""></div><div class=""button_prompt"">
                    <b>请用数字键0-9回答</b>
                    </div>","","","","","","","","","","","","","","","","","","",""
"440","null","sub_response","html-keyboard-response","209","336673","0.0-1.0-7.0-3.0-2.22","17:59:29","6","","","","","","","<div style='text-align: center;'>
                            <span style=""color: green; font-size: 40px""><b>正确！+1 pts</b></span></div>
                            ","","learn","6","6","6","learn","6","6","[0, 1, 2, 3, 4, 5, 6, 7, 8, 9]","22","2","setsize","10S10A","animals","1","2","6","1",""
"null","null","fixation","html-keyboard-response","210","337175","0.0-1.0-7.0-3.0-0.23","17:59:29","6","","","","","","","fixation","","","","","","","","","","","","","","","","","","",""
"1645","6","pic_response","html-keyboard-response","211","338821","0.0-1.0-7.0-3.0-1.23","17:59:29","6","","","","","","","<div>
            <img class='stim' src=""pictures/animals/7.jpg""></div><div class=""button_prompt"">
                    <b>请用数字键0-9回答</b>
                    </div>","","","","","","","","","","","","","","","","","","",""
"1645","null","sub_response","html-keyboard-response","212","339823","0.0-1.0-7.0-3.0-2.23","17:59:29","6","","","","","","","<div style='text-align: center;'>
                            <span style=""color: red; font-size: 40px""><b>错误！+0 pts</b></span></div>
                            ","","learn","7","7","7","learn","7","7","[0, 1, 2, 3, 4, 5, 6, 7, 8, 9]","23","2","setsize","10S10A","animals","1","0","5","0",""
"null","null","fixation","html-keyboard-response","213","340325","0.0-1.0-7.0-3.0-0.24","17:59:29","6","","","","","","","fixation","","","","","","","","","","","","","","","","","","",""
"1555","7","pic_response","html-keyboard-response","214","341881","0.0-1.0-7.0-3.0-1.24","17:59:29","6","","","","","","","<div>
            <img class='stim' src=""pictures/animals/4.jpg""></div><div class=""button_prompt"">
                    <b>请用数字键0-9回答</b>
                    </div>","","","","","","","","","","","","","","","","","","",""
"1555","null","sub_response","html-keyboard-response","215","342882","0.0-1.0-7.0-3.0-2.24","17:59:29","6","","","","","","","<div style='text-align: center;'>
                            <span style=""color: red; font-size: 40px""><b>错误！+0 pts</b></span></div>
                            ","","learn","4","4","4","learn","4","4","[0, 1, 2, 3, 4, 5, 6, 7, 8, 9]","24","2","setsize","10S10A","animals","1","0","6","0",""
"null","null","fixation","html-keyboard-response","216","343384","0.0-1.0-7.0-3.0-0.25","17:59:29","6","","","","","","","fixation","","","","","","","","","","","","","","","","","","",""
"414","2","pic_response","html-keyboard-response","217","343799","0.0-1.0-7.0-3.0-1.25","17:59:29","6","","","","","","","<div>
            <img class='stim' src=""pictures/animals/8.jpg""></div><div class=""button_prompt"">
                    <b>请用数字键0-9回答</b>
                    </div>","","","","","","","","","","","","","","","","","","",""
"414","null","sub_response","html-keyboard-response","218","344801","0.0-1.0-7.0-3.0-2.25","17:59:29","6","","","","","","","<div style='text-align: center;'>
                            <span style=""color: red; font-size: 40px""><b>错误！+0 pts</b></span></div>
                            ","","learn","8","8","8","learn","8","8","[0, 1, 2, 3, 4, 5, 6, 7, 8, 9]","25","2","setsize","10S10A","animals","1","0","1","0",""
"null","null","fixation","html-keyboard-response","219","345303","0.0-1.0-7.0-3.0-0.26","17:59:29","6","","","","","","","fixation","","","","","","","","","","","","","","","","","","",""
"46","2","pic_response","html-keyboard-response","220","345349","0.0-1.0-7.0-3.0-1.26","17:59:29","6","","","","","","","<div>
            <img class='stim' src=""pictures/animals/9.jpg""></div><div class=""button_prompt"">
                    <b>请用数字键0-9回答</b>
                    </div>","","","","","","","","","","","","","","","","","","",""
"46","null","sub_response","html-keyboard-response","221","346350","0.0-1.0-7.0-3.0-2.26","17:59:29","6","","","","","","","<div style='text-align: center;'>
                            <span style=""color: red; font-size: 40px""><b>错误！+0 pts</b></span></div>
                            ","","learn","9","9","9","learn","9","9","[0, 1, 2, 3, 4, 5, 6, 7, 8, 9]","26","2","setsize","10S10A","animals","1","0","1","0",""
"null","null","fixation","html-keyboard-response","222","346853","0.0-1.0-7.0-3.0-0.27","17:59:29","6","","","","","","","fixation","","","","","","","","","","","","","","","","","","",""
"437","2","pic_response","html-keyboard-response","223","347291","0.0-1.0-7.0-3.0-1.27","17:59:29","6","","","","","","","<div>
            <img class='stim' src=""pictures/animals/3.jpg""></div><div class=""button_prompt"">
                    <b>请用数字键0-9回答</b>
                    </div>","","","","","","","","","","","","","","","","","","",""
"437","null","sub_response","html-keyboard-response","224","348293","0.0-1.0-7.0-3.0-2.27","17:59:29","6","","","","","","","<div style='text-align: center;'>
                            <span style=""color: red; font-size: 40px""><b>错误！+0 pts</b></span></div>
                            ","","learn","3","3","3","learn","3","3","[0, 1, 2, 3, 4, 5, 6, 7, 8, 9]","27","2","setsize","10S10A","animals","1","0","1","0",""
"null","null","fixation","html-keyboard-response","225","348795","0.0-1.0-7.0-3.0-0.28","17:59:29","6","","","","","","","fixation","","","","","","","","","","","","","","","","","","",""
"827","2","pic_response","html-keyboard-response","226","349623","0.0-1.0-7.0-3.0-1.28","17:59:29","6","","","","","","","<div>
            <img class='stim' src=""pictures/animals/2.jpg""></div><div class=""button_prompt"">
                    <b>请用数字键0-9回答</b>
                    </div>","","","","","","","","","","","","","","","","","","",""
"827","null","sub_response","html-keyboard-response","227","350625","0.0-1.0-7.0-3.0-2.28","17:59:29","6","","","","","","","<div style='text-align: center;'>
                            <span style=""color: red; font-size: 40px""><b>错误！+0 pts</b></span></div>
                            ","","learn","2","2","2","learn","2","2","[0, 1, 2, 3, 4, 5, 6, 7, 8, 9]","28","2","setsize","10S10A","animals","1","0","1","0",""
"null","null","fixation","html-keyboard-response","228","351126","0.0-1.0-7.0-3.0-0.29","17:59:29","6","","","","","","","fixation","","","","","","","","","","","","","","","","","","",""
"509","2","pic_response","html-keyboard-response","229","351635","0.0-1.0-7.0-3.0-1.29","17:59:29","6","","","","","","","<div>
            <img class='stim' src=""pictures/animals/5.jpg""></div><div class=""button_prompt"">
                    <b>请用数字键0-9回答</b>
                    </div>","","","","","","","","","","","","","","","","","","",""
"509","null","sub_response","html-keyboard-response","230","352636","0.0-1.0-7.0-3.0-2.29","17:59:29","6","","","","","","","<div style='text-align: center;'>
                            <span style=""color: red; font-size: 40px""><b>错误！+0 pts</b></span></div>
                            ","","learn","5","5","5","learn","5","5","[0, 1, 2, 3, 4, 5, 6, 7, 8, 9]","29","2","setsize","10S10A","animals","1","0","1","0",""
"null","null","fixation","html-keyboard-response","231","353137","0.0-1.0-7.0-3.0-0.30","17:59:29","6","","","","","","","fixation","","","","","","","","","","","","","","","","","","",""
"693","2","pic_response","html-keyboard-response","232","353831","0.0-1.0-7.0-3.0-1.30","17:59:29","6","","","","","","","<div>
            <img class='stim' src=""pictures/animals/9.jpg""></div><div class=""button_prompt"">
                    <b>请用数字键0-9回答</b>
                    </div>","","","","","","","","","","","","","","","","","","",""
"693","null","sub_response","html-keyboard-response","233","354832","0.0-1.0-7.0-3.0-2.30","17:59:29","6","","","","","","","<div style='text-align: center;'>
                            <span style=""color: red; font-size: 40px""><b>错误！+0 pts</b></span></div>
                            ","","learn","9","9","9","learn","9","9","[0, 1, 2, 3, 4, 5, 6, 7, 8, 9]","30","3","setsize","10S10A","animals","1","0","1","0",""
"null","null","fixation","html-keyboard-response","234","355334","0.0-1.0-7.0-3.0-0.31","17:59:29","6","","","","","","","fixation","","","","","","","","","","","","","","","","","","",""
"890","2","pic_response","html-keyboard-response","235","356225","0.0-1.0-7.0-3.0-1.31","17:59:29","6","","","","","","","<div>
            <img class='stim' src=""pictures/animals/3.jpg""></div><div class=""button_prompt"">
                    <b>请用数字键0-9回答</b>
                    </div>","","","","","","","","","","","","","","","","","","",""
"890","null","sub_response","html-keyboard-response","236","357226","0.0-1.0-7.0-3.0-2.31","17:59:29","6","","","","","","","<div style='text-align: center;'>
                            <span style=""color: red; font-size: 40px""><b>错误！+0 pts</b></span></div>
                            ","","learn","3","3","3","learn","3","3","[0, 1, 2, 3, 4, 5, 6, 7, 8, 9]","31","3","setsize","10S10A","animals","1","0","1","0",""
"null","null","fixation","html-keyboard-response","237","357728","0.0-1.0-7.0-3.0-0.32","17:59:29","6","","","","","","","fixation","","","","","","","","","","","","","","","","","","",""
"1363","3","pic_response","html-keyboard-response","238","359091","0.0-1.0-7.0-3.0-1.32","17:59:29","6","","","","","","","<div>
            <img class='stim' src=""pictures/animals/4.jpg""></div><div class=""button_prompt"">
                    <b>请用数字键0-9回答</b>
                    </div>","","","","","","","","","","","","","","","","","","",""
"1363","null","sub_response","html-keyboard-response","239","360093","0.0-1.0-7.0-3.0-2.32","17:59:29","6","","","","","","","<div style='text-align: center;'>
                            <span style=""color: red; font-size: 40px""><b>错误！+0 pts</b></span></div>
                            ","","learn","4","4","4","learn","4","4","[0, 1, 2, 3, 4, 5, 6, 7, 8, 9]","32","3","setsize","10S10A","animals","1","0","2","0",""
"null","null","fixation","html-keyboard-response","240","360595","0.0-1.0-7.0-3.0-0.33","17:59:29","6","","","","","","","fixation","","","","","","","","","","","","","","","","","","",""
"686","3","pic_response","html-keyboard-response","241","361281","0.0-1.0-7.0-3.0-1.33","17:59:29","6","","","","","","","<div>
            <img class='stim' src=""pictures/animals/8.jpg""></div><div class=""button_prompt"">
                    <b>请用数字键0-9回答</b>
                    </div>","","","","","","","","","","","","","","","","","","",""
"686","null","sub_response","html-keyboard-response","242","362282","0.0-1.0-7.0-3.0-2.33","17:59:29","6","","","","","","","<div style='text-align: center;'>
                            <span style=""color: red; font-size: 40px""><b>错误！+0 pts</b></span></div>
                            ","","learn","8","8","8","learn","8","8","[0, 1, 2, 3, 4, 5, 6, 7, 8, 9]","33","3","setsize","10S10A","animals","1","0","2","0",""
"null","null","fixation","html-keyboard-response","243","362785","0.0-1.0-7.0-3.0-0.34","17:59:29","6","","","","","","","fixation","","","","","","","","","","","","","","","","","","",""
"598","1","pic_response","html-keyboard-response","244","363383","0.0-1.0-7.0-3.0-1.34","17:59:29","6","","","","","","","<div>
            <img class='stim' src=""pictures/animals/0.jpg""></div><div class=""button_prompt"">
                    <b>请用数字键0-9回答</b>
                    </div>","","","","","","","","","","","","","","","","","","",""
"598","null","sub_response","html-keyboard-response","245","364385","0.0-1.0-7.0-3.0-2.34","17:59:29","6","","","","","","","<div style='text-align: center;'>
                            <span style=""color: green; font-size: 40px""><b>正确！+1 pts</b></span></div>
                            ","","learn","0","0","0","learn","0","0","[0, 1, 2, 3, 4, 5, 6, 7, 8, 9]","34","3","setsize","10S10A","animals","1","1","0","1",""
"null","null","fixation","html-keyboard-response","246","364887","0.0-1.0-7.0-3.0-0.35","17:59:29","6","","","","","","","fixation","","","","","","","","","","","","","","","","","","",""
"569","4","pic_response","html-keyboard-response","247","365457","0.0-1.0-7.0-3.0-1.35","17:59:29","6","","","","","","","<div>
            <img class='stim' src=""pictures/animals/1.jpg""></div><div class=""button_prompt"">
                    <b>请用数字键0-9回答</b>
                    </div>","","","","","","","","","","","","","","","","","","",""
"569","null","sub_response","html-keyboard-response","248","366458","0.0-1.0-7.0-3.0-2.35","17:59:29","6","","","","","","","<div style='text-align: center;'>
                            <span style=""color: red; font-size: 40px""><b>错误！+0 pts</b></span></div>
                            ","","learn","1","1","1","learn","1","1","[0, 1, 2, 3, 4, 5, 6, 7, 8, 9]","35","3","setsize","10S10A","animals","1","0","3","0",""
"null","null","fixation","html-keyboard-response","249","366959","0.0-1.0-7.0-3.0-0.36","17:59:29","6","","","","","","","fixation","","","","","","","","","","","","","","","","","","",""
"762","7","pic_response","html-keyboard-response","250","367721","0.0-1.0-7.0-3.0-1.36","17:59:29","6","","","","","","","<div>
            <img class='stim' src=""pictures/animals/6.jpg""></div><div class=""button_prompt"">
                    <b>请用数字键0-9回答</b>
                    </div>","","","","","","","","","","","","","","","","","","",""
"762","null","sub_response","html-keyboard-response","251","368723","0.0-1.0-7.0-3.0-2.36","17:59:29","6","","","","","","","<div style='text-align: center;'>
                            <span style=""color: green; font-size: 40px""><b>正确！+1 pts</b></span></div>
                            ","","learn","6","6","6","learn","6","6","[0, 1, 2, 3, 4, 5, 6, 7, 8, 9]","36","3","setsize","10S10A","animals","1","1","6","1",""
"null","null","fixation","html-keyboard-response","252","369224","0.0-1.0-7.0-3.0-0.37","17:59:29","6","","","","","","","fixation","","","","","","","","","","","","","","","","","","",""
"847","6","pic_response","html-keyboard-response","253","370071","0.0-1.0-7.0-3.0-1.37","17:59:29","6","","","","","","","<div>
            <img class='stim' src=""pictures/animals/7.jpg""></div><div class=""button_prompt"">
                    <b>请用数字键0-9回答</b>
                    </div>","","","","","","","","","","","","","","","","","","",""
"847","null","sub_response","html-keyboard-response","254","371073","0.0-1.0-7.0-3.0-2.37","17:59:29","6","","","","","","","<div style='text-align: center;'>
                            <span style=""color: red; font-size: 40px""><b>错误！+0 pts</b></span></div>
                            ","","learn","7","7","7","learn","7","7","[0, 1, 2, 3, 4, 5, 6, 7, 8, 9]","37","3","setsize","10S10A","animals","1","0","5","0",""
"null","null","fixation","html-keyboard-response","255","371575","0.0-1.0-7.0-3.0-0.38","17:59:29","6","","","","","","","fixation","","","","","","","","","","","","","","","","","","",""
"571","7","pic_response","html-keyboard-response","256","372147","0.0-1.0-7.0-3.0-1.38","17:59:29","6","","","","","","","<div>
            <img class='stim' src=""pictures/animals/5.jpg""></div><div class=""button_prompt"">
                    <b>请用数字键0-9回答</b>
                    </div>","","","","","","","","","","","","","","","","","","",""
"571","null","sub_response","html-keyboard-response","257","373148","0.0-1.0-7.0-3.0-2.38","17:59:29","6","","","","","","","<div style='text-align: center;'>
                            <span style=""color: red; font-size: 40px""><b>错误！+0 pts</b></span></div>
                            ","","learn","5","5","5","learn","5","5","[0, 1, 2, 3, 4, 5, 6, 7, 8, 9]","38","3","setsize","10S10A","animals","1","0","6","0",""
"null","null","fixation","html-keyboard-response","258","373649","0.0-1.0-7.0-3.0-0.39","17:59:29","6","","","","","","","fixation","","","","","","","","","","","","","","","","","","",""
"308","9","pic_response","html-keyboard-response","259","373959","0.0-1.0-7.0-3.0-1.39","17:59:29","6","","","","","","","<div>
            <img class='stim' src=""pictures/animals/2.jpg""></div><div class=""button_prompt"">
                    <b>请用数字键0-9回答</b>
                    </div>","","","","","","","","","","","","","","","","","","",""
"308","null","sub_response","html-keyboard-response","260","374960","0.0-1.0-7.0-3.0-2.39","17:59:29","6","","","","","","","<div style='text-align: center;'>
                            <span style=""color: red; font-size: 40px""><b>错误！+0 pts</b></span></div>
                            ","","learn","2","2","2","learn","2","2","[0, 1, 2, 3, 4, 5, 6, 7, 8, 9]","39","3","setsize","10S10A","animals","1","0","8","0",""
"null","null","fixation","html-keyboard-response","261","375461","0.0-1.0-7.0-3.0-0.40","17:59:29","6","","","","","","","fixation","","","","","","","","","","","","","","","","","","",""
"189","8","pic_response","html-keyboard-response","262","375651","0.0-1.0-7.0-3.0-1.40","17:59:29","6","","","","","","","<div>
            <img class='stim' src=""pictures/animals/2.jpg""></div><div class=""button_prompt"">
                    <b>请用数字键0-9回答</b>
                    </div>","","","","","","","","","","","","","","","","","","",""
"189","null","sub_response","html-keyboard-response","263","376652","0.0-1.0-7.0-3.0-2.40","17:59:29","6","","","","","","","<div style='text-align: center;'>
                            <span style=""color: red; font-size: 40px""><b>错误！+0 pts</b></span></div>
                            ","","learn","2","2","2","learn","2","2","[0, 1, 2, 3, 4, 5, 6, 7, 8, 9]","40","4","setsize","10S10A","animals","1","0","7","0",""
"null","null","fixation","html-keyboard-response","264","377153","0.0-1.0-7.0-3.0-0.41","17:59:29","6","","","","","","","fixation","","","","","","","","","","","","","","","","","","",""
"329","8","pic_response","html-keyboard-response","265","377483","0.0-1.0-7.0-3.0-1.41","17:59:29","6","","","","","","","<div>
            <img class='stim' src=""pictures/animals/3.jpg""></div><div class=""button_prompt"">
                    <b>请用数字键0-9回答</b>
                    </div>","","","","","","","","","","","","","","","","","","",""
"329","null","sub_response","html-keyboard-response","266","378484","0.0-1.0-7.0-3.0-2.41","17:59:29","6","","","","","","","<div style='text-align: center;'>
                            <span style=""color: red; font-size: 40px""><b>错误！+0 pts</b></span></div>
                            ","","learn","3","3","3","learn","3","3","[0, 1, 2, 3, 4, 5, 6, 7, 8, 9]","41","4","setsize","10S10A","animals","1","0","7","0",""
"null","null","fixation","html-keyboard-response","267","378985","0.0-1.0-7.0-3.0-0.42","17:59:29","6","","","","","","","fixation","","","","","","","","","","","","","","","","","","",""
"181","5","pic_response","html-keyboard-response","268","379167","0.0-1.0-7.0-3.0-1.42","17:59:29","6","","","","","","","<div>
            <img class='stim' src=""pictures/animals/4.jpg""></div><div class=""button_prompt"">
                    <b>请用数字键0-9回答</b>
                    </div>","","","","","","","","","","","","","","","","","","",""
"181","null","sub_response","html-keyboard-response","269","380169","0.0-1.0-7.0-3.0-2.42","17:59:29","6","","","","","","","<div style='text-align: center;'>
                            <span style=""color: green; font-size: 40px""><b>正确！+1 pts</b></span></div>
                            ","","learn","4","4","4","learn","4","4","[0, 1, 2, 3, 4, 5, 6, 7, 8, 9]","42","4","setsize","10S10A","animals","1","1","4","1",""
"null","null","fixation","html-keyboard-response","270","380671","0.0-1.0-7.0-3.0-0.43","17:59:29","6","","","","","","","fixation","","","","","","","","","","","","","","","","","","",""
"1219","3","pic_response","html-keyboard-response","271","381891","0.0-1.0-7.0-3.0-1.43","17:59:29","6","","","","","","","<div>
            <img class='stim' src=""pictures/animals/9.jpg""></div><div class=""button_prompt"">
                    <b>请用数字键0-9回答</b>
                    </div>","","","","","","","","","","","","","","","","","","",""
"1219","null","sub_response","html-keyboard-response","272","382893","0.0-1.0-7.0-3.0-2.43","17:59:29","6","","","","","","","<div style='text-align: center;'>
                            <span style=""color: red; font-size: 40px""><b>错误！+0 pts</b></span></div>
                            ","","learn","9","9","9","learn","9","9","[0, 1, 2, 3, 4, 5, 6, 7, 8, 9]","43","4","setsize","10S10A","animals","1","0","2","0",""
"null","null","fixation","html-keyboard-response","273","383395","0.0-1.0-7.0-3.0-0.44","17:59:29","6","","","","","","","fixation","","","","","","","","","","","","","","","","","","",""
"2087","9","pic_response","html-keyboard-response","274","385483","0.0-1.0-7.0-3.0-1.44","17:59:29","6","","","","","","","<div>
            <img class='stim' src=""pictures/animals/8.jpg""></div><div class=""button_prompt"">
                    <b>请用数字键0-9回答</b>
                    </div>","","","","","","","","","","","","","","","","","","",""
"2087","null","sub_response","html-keyboard-response","275","386485","0.0-1.0-7.0-3.0-2.44","17:59:29","6","","","","","","","<div style='text-align: center;'>
                            <span style=""color: green; font-size: 40px""><b>正确！+1 pts</b></span></div>
                            ","","learn","8","8","8","learn","8","8","[0, 1, 2, 3, 4, 5, 6, 7, 8, 9]","44","4","setsize","10S10A","animals","1","1","8","1",""
"null","null","fixation","html-keyboard-response","276","386987","0.0-1.0-7.0-3.0-0.45","17:59:29","6","","","","","","","fixation","","","","","","","","","","","","","","","","","","",""
"309","1","pic_response","html-keyboard-response","277","387297","0.0-1.0-7.0-3.0-1.45","17:59:29","6","","","","","","","<div>
            <img class='stim' src=""pictures/animals/5.jpg""></div><div class=""button_prompt"">
                    <b>请用数字键0-9回答</b>
                    </div>","","","","","","","","","","","","","","","","","","",""
"309","null","sub_response","html-keyboard-response","278","388298","0.0-1.0-7.0-3.0-2.45","17:59:29","6","","","","","","","<div style='text-align: center;'>
                            <span style=""color: red; font-size: 40px""><b>错误！+0 pts</b></span></div>
                            ","","learn","5","5","5","learn","5","5","[0, 1, 2, 3, 4, 5, 6, 7, 8, 9]","45","4","setsize","10S10A","animals","1","0","0","0",""
"null","null","fixation","html-keyboard-response","279","388800","0.0-1.0-7.0-3.0-0.46","17:59:29","6","","","","","","","fixation","","","","","","","","","","","","","","","","","","",""
"510","1","pic_response","html-keyboard-response","280","389311","0.0-1.0-7.0-3.0-1.46","17:59:29","6","","","","","","","<div>
            <img class='stim' src=""pictures/animals/0.jpg""></div><div class=""button_prompt"">
                    <b>请用数字键0-9回答</b>
                    </div>","","","","","","","","","","","","","","","","","","",""
"510","null","sub_response","html-keyboard-response","281","390313","0.0-1.0-7.0-3.0-2.46","17:59:29","6","","","","","","","<div style='text-align: center;'>
                            <span style=""color: green; font-size: 40px""><b>正确！+1 pts</b></span></div>
                            ","","learn","0","0","0","learn","0","0","[0, 1, 2, 3, 4, 5, 6, 7, 8, 9]","46","4","setsize","10S10A","animals","1","1","0","1",""
"null","null","fixation","html-keyboard-response","282","390814","0.0-1.0-7.0-3.0-0.47","17:59:29","6","","","","","","","fixation","","","","","","","","","","","","","","","","","","",""
"1243","2","pic_response","html-keyboard-response","283","392057","0.0-1.0-7.0-3.0-1.47","17:59:29","6","","","","","","","<div>
            <img class='stim' src=""pictures/animals/7.jpg""></div><div class=""button_prompt"">
                    <b>请用数字键0-9回答</b>
                    </div>","","","","","","","","","","","","","","","","","","",""
"1243","null","sub_response","html-keyboard-response","284","393059","0.0-1.0-7.0-3.0-2.47","17:59:29","6","","","","","","","<div style='text-align: center;'>
                            <span style=""color: red; font-size: 40px""><b>错误！+0 pts</b></span></div>
                            ","","learn","7","7","7","learn","7","7","[0, 1, 2, 3, 4, 5, 6, 7, 8, 9]","47","4","setsize","10S10A","animals","1","0","1","0",""
"null","null","fixation","html-keyboard-response","285","393561","0.0-1.0-7.0-3.0-0.48","17:59:29","6","","","","","","","fixation","","","","","","","","","","","","","","","","","","",""
"319","3","pic_response","html-keyboard-response","286","393881","0.0-1.0-7.0-3.0-1.48","17:59:29","6","","","","","","","<div>
            <img class='stim' src=""pictures/animals/6.jpg""></div><div class=""button_prompt"">
                    <b>请用数字键0-9回答</b>
                    </div>","","","","","","","","","","","","","","","","","","",""
"319","null","sub_response","html-keyboard-response","287","394882","0.0-1.0-7.0-3.0-2.48","17:59:29","6","","","","","","","<div style='text-align: center;'>
                            <span style=""color: red; font-size: 40px""><b>错误！+0 pts</b></span></div>
                            ","","learn","6","6","6","learn","6","6","[0, 1, 2, 3, 4, 5, 6, 7, 8, 9]","48","4","setsize","10S10A","animals","1","0","2","0",""
"null","null","fixation","html-keyboard-response","288","395384","0.0-1.0-7.0-3.0-0.49","17:59:29","6","","","","","","","fixation","","","","","","","","","","","","","","","","","","",""
"2191","9","pic_response","html-keyboard-response","289","397575","0.0-1.0-7.0-3.0-1.49","17:59:29","6","","","","","","","<div>
            <img class='stim' src=""pictures/animals/1.jpg""></div><div class=""button_prompt"">
                    <b>请用数字键0-9回答</b>
                    </div>","","","","","","","","","","","","","","","","","","",""
"2191","null","sub_response","html-keyboard-response","290","398576","0.0-1.0-7.0-3.0-2.49","17:59:29","6","","","","","","","<div style='text-align: center;'>
                            <span style=""color: red; font-size: 40px""><b>错误！+0 pts</b></span></div>
                            ","","learn","1","1","1","learn","1","1","[0, 1, 2, 3, 4, 5, 6, 7, 8, 9]","49","4","setsize","10S10A","animals","1","0","8","0",""
"null","null","fixation","html-keyboard-response","291","399078","0.0-1.0-7.0-3.0-0.50","17:59:29","6","","","","","","","fixation","","","","","","","","","","","","","","","","","","",""
"818","9","pic_response","html-keyboard-response","292","399897","0.0-1.0-7.0-3.0-1.50","17:59:29","6","","","","","","","<div>
            <img class='stim' src=""pictures/animals/6.jpg""></div><div class=""button_prompt"">
                    <b>请用数字键0-9回答</b>
                    </div>","","","","","","","","","","","","","","","","","","",""
"818","null","sub_response","html-keyboard-response","293","400898","0.0-1.0-7.0-3.0-2.50","17:59:29","6","","","","","","","<div style='text-align: center;'>
                            <span style=""color: red; font-size: 40px""><b>错误！+0 pts</b></span></div>
                            ","","learn","6","6","6","learn","6","6","[0, 1, 2, 3, 4, 5, 6, 7, 8, 9]","50","5","setsize","10S10A","animals","1","0","8","0",""
"null","null","fixation","html-keyboard-response","294","401400","0.0-1.0-7.0-3.0-0.51","17:59:29","6","","","","","","","fixation","","","","","","","","","","","","","","","","","","",""
"833","9","pic_response","html-keyboard-response","295","402233","0.0-1.0-7.0-3.0-1.51","17:59:29","6","","","","","","","<div>
            <img class='stim' src=""pictures/animals/2.jpg""></div><div class=""button_prompt"">
                    <b>请用数字键0-9回答</b>
                    </div>","","","","","","","","","","","","","","","","","","",""
"833","null","sub_response","html-keyboard-response","296","403234","0.0-1.0-7.0-3.0-2.51","17:59:29","6","","","","","","","<div style='text-align: center;'>
                            <span style=""color: red; font-size: 40px""><b>错误！+0 pts</b></span></div>
                            ","","learn","2","2","2","learn","2","2","[0, 1, 2, 3, 4, 5, 6, 7, 8, 9]","51","5","setsize","10S10A","animals","1","0","8","0",""
"null","null","fixation","html-keyboard-response","297","403736","0.0-1.0-7.0-3.0-0.52","17:59:29","6","","","","","","","fixation","","","","","","","","","","","","","","","","","","",""
"852","9","pic_response","html-keyboard-response","298","404589","0.0-1.0-7.0-3.0-1.52","17:59:29","6","","","","","","","<div>
            <img class='stim' src=""pictures/animals/5.jpg""></div><div class=""button_prompt"">
                    <b>请用数字键0-9回答</b>
                    </div>","","","","","","","","","","","","","","","","","","",""
"852","null","sub_response","html-keyboard-response","299","405591","0.0-1.0-7.0-3.0-2.52","17:59:29","6","","","","","","","<div style='text-align: center;'>
                            <span style=""color: red; font-size: 40px""><b>错误！+0 pts</b></span></div>
                            ","","learn","5","5","5","learn","5","5","[0, 1, 2, 3, 4, 5, 6, 7, 8, 9]","52","5","setsize","10S10A","animals","1","0","8","0",""
"null","null","fixation","html-keyboard-response","300","406093","0.0-1.0-7.0-3.0-0.53","17:59:29","6","","","","","","","fixation","","","","","","","","","","","","","","","","","","",""
"971","9","pic_response","html-keyboard-response","301","407065","0.0-1.0-7.0-3.0-1.53","17:59:29","6","","","","","","","<div>
            <img class='stim' src=""pictures/animals/4.jpg""></div><div class=""button_prompt"">
                    <b>请用数字键0-9回答</b>
                    </div>","","","","","","","","","","","","","","","","","","",""
"971","null","sub_response","html-keyboard-response","302","408067","0.0-1.0-7.0-3.0-2.53","17:59:29","6","","","","","","","<div style='text-align: center;'>
                            <span style=""color: red; font-size: 40px""><b>错误！+0 pts</b></span></div>
                            ","","learn","4","4","4","learn","4","4","[0, 1, 2, 3, 4, 5, 6, 7, 8, 9]","53","5","setsize","10S10A","animals","1","0","8","0",""
"null","null","fixation","html-keyboard-response","303","408569","0.0-1.0-7.0-3.0-0.54","17:59:29","6","","","","","","","fixation","","","","","","","","","","","","","","","","","","",""
"486","9","pic_response","html-keyboard-response","304","409057","0.0-1.0-7.0-3.0-1.54","17:59:29","6","","","","","","","<div>
            <img class='stim' src=""pictures/animals/7.jpg""></div><div class=""button_prompt"">
                    <b>请用数字键0-9回答</b>
                    </div>","","","","","","","","","","","","","","","","","","",""
"486","null","sub_response","html-keyboard-response","305","410058","0.0-1.0-7.0-3.0-2.54","17:59:29","6","","","","","","","<div style='text-align: center;'>
                            <span style=""color: red; font-size: 40px""><b>错误！+0 pts</b></span></div>
                            ","","learn","7","7","7","learn","7","7","[0, 1, 2, 3, 4, 5, 6, 7, 8, 9]","54","5","setsize","10S10A","animals","1","0","8","0",""
"null","null","fixation","html-keyboard-response","306","410561","0.0-1.0-7.0-3.0-0.55","17:59:29","6","","","","","","","fixation","","","","","","","","","","","","","","","","","","",""
"623","9","pic_response","html-keyboard-response","307","411185","0.0-1.0-7.0-3.0-1.55","17:59:29","6","","","","","","","<div>
            <img class='stim' src=""pictures/animals/1.jpg""></div><div class=""button_prompt"">
                    <b>请用数字键0-9回答</b>
                    </div>","","","","","","","","","","","","","","","","","","",""
"623","null","sub_response","html-keyboard-response","308","412187","0.0-1.0-7.0-3.0-2.55","17:59:29","6","","","","","","","<div style='text-align: center;'>
                            <span style=""color: red; font-size: 40px""><b>错误！+0 pts</b></span></div>
                            ","","learn","1","1","1","learn","1","1","[0, 1, 2, 3, 4, 5, 6, 7, 8, 9]","55","5","setsize","10S10A","animals","1","0","8","0",""
"null","null","fixation","html-keyboard-response","309","412689","0.0-1.0-7.0-3.0-0.56","17:59:29","6","","","","","","","fixation","","","","","","","","","","","","","","","","","","",""
"878","9","pic_response","html-keyboard-response","310","413567","0.0-1.0-7.0-3.0-1.56","17:59:29","6","","","","","","","<div>
            <img class='stim' src=""pictures/animals/9.jpg""></div><div class=""button_prompt"">
                    <b>请用数字键0-9回答</b>
                    </div>","","","","","","","","","","","","","","","","","","",""
"878","null","sub_response","html-keyboard-response","311","414569","0.0-1.0-7.0-3.0-2.56","17:59:29","6","","","","","","","<div style='text-align: center;'>
                            <span style=""color: red; font-size: 40px""><b>错误！+0 pts</b></span></div>
                            ","","learn","9","9","9","learn","9","9","[0, 1, 2, 3, 4, 5, 6, 7, 8, 9]","56","5","setsize","10S10A","animals","1","0","8","0",""
"null","null","fixation","html-keyboard-response","312","415071","0.0-1.0-7.0-3.0-0.57","17:59:29","6","","","","","","","fixation","","","","","","","","","","","","","","","","","","",""
"671","9","pic_response","html-keyboard-response","313","415743","0.0-1.0-7.0-3.0-1.57","17:59:29","6","","","","","","","<div>
            <img class='stim' src=""pictures/animals/3.jpg""></div><div class=""button_prompt"">
                    <b>请用数字键0-9回答</b>
                    </div>","","","","","","","","","","","","","","","","","","",""
"671","null","sub_response","html-keyboard-response","314","416745","0.0-1.0-7.0-3.0-2.57","17:59:29","6","","","","","","","<div style='text-align: center;'>
                            <span style=""color: red; font-size: 40px""><b>错误！+0 pts</b></span></div>
                            ","","learn","3","3","3","learn","3","3","[0, 1, 2, 3, 4, 5, 6, 7, 8, 9]","57","5","setsize","10S10A","animals","1","0","8","0",""
"null","null","fixation","html-keyboard-response","315","417246","0.0-1.0-7.0-3.0-0.58","17:59:29","6","","","","","","","fixation","","","","","","","","","","","","","","","","","","",""
"685","1","pic_response","html-keyboard-response","316","417931","0.0-1.0-7.0-3.0-1.58","17:59:29","6","","","","","","","<div>
            <img class='stim' src=""pictures/animals/0.jpg""></div><div class=""button_prompt"">
                    <b>请用数字键0-9回答</b>
                    </div>","","","","","","","","","","","","","","","","","","",""
"685","null","sub_response","html-keyboard-response","317","418933","0.0-1.0-7.0-3.0-2.58","17:59:29","6","","","","","","","<div style='text-align: center;'>
                            <span style=""color: green; font-size: 40px""><b>正确！+1 pts</b></span></div>
                            ","","learn","0","0","0","learn","0","0","[0, 1, 2, 3, 4, 5, 6, 7, 8, 9]","58","5","setsize","10S10A","animals","1","1","0","1",""
"null","null","fixation","html-keyboard-response","318","419434","0.0-1.0-7.0-3.0-0.59","17:59:29","6","","","","","","","fixation","","","","","","","","","","","","","","","","","","",""
"828","3","pic_response","html-keyboard-response","319","420263","0.0-1.0-7.0-3.0-1.59","17:59:29","6","","","","","","","<div>
            <img class='stim' src=""pictures/animals/8.jpg""></div><div class=""button_prompt"">
                    <b>请用数字键0-9回答</b>
                    </div>","","","","","","","","","","","","","","","","","","",""
"828","null","sub_response","html-keyboard-response","320","421264","0.0-1.0-7.0-3.0-2.59","17:59:29","6","","","","","","","<div style='text-align: center;'>
                            <span style=""color: red; font-size: 40px""><b>错误！+0 pts</b></span></div>
