"rt","response","screen_id","trial_type","trial_index","time_elapsed","internal_node_id","start_time","n_Prac","success","timeout","failed_images","failed_audio","failed_video","view_history","stimulus","question_order","stage","s","word","word_id","phase","a_cor","a_real","a_ava","trial","tps","task_type","block_typ","pic_typ","block_id","cum_r","a","r","plugin_name"
"109125","{""sub_id"":""980269407836311554"",""task_type"":""task1"",""name"":""白雨繁"",""gender"":""F""}","basic_info","survey-html-form","0","109132","0.0-0.0","07:56:25","1","","","","","","","","","","","","","","","","","","","","","","","","","",""
"","","","preload","1","109527","0.0-1.0-0.0","07:56:25","1","true","false","[]","[]","[]","","","","","","","","","","","","","","","","","","","","",""
"","","","preload","2","109584","0.0-1.0-1.0","07:56:25","1","true","false","[]","[]","[]","","","","","","","","","","","","","","","","","","","","",""
"","","","fullscreen","3","111632","0.0-1.0-2.0","07:56:25","1","true","","","","","","","","","","","","","","","","","","","","","","","","",""
"21301","","instruct","instructions","4","132934","0.0-1.0-3.0-0.0","07:56:25","1","","","","","","[{""page_index"":0,""viewing_time"":8680},{""page_index"":1,""viewing_time"":7068},{""page_index"":2,""viewing_time"":5552}]","","","","","","","","","","","","","","","","","","","",""
"13056","{""Q0"":"""",""task1"":""<span style='font-size: 24px'>学习图片和数字的对应关系</span>"",""task2"":""<span style='font-size: 24px'> 数字键1-3 </span>"",""task3"":""<span style='font-size: 24px'> 看到图片选出正确对应的数字 </span>""}","question","survey-multi-choice","5","145995","0.0-1.0-3.0-1.0","07:56:25","1","","","","","","","","[0,1,2,3]","","","","","","","","","","","","","","","","","",""
"3828"," ","inst_q","html-keyboard-response","6","149827","0.0-1.0-3.0-2.0","07:56:25","1","","","","","","","inst","","1","","","","","","","","","","","","","","","","",""
"8435","","instruct","instructions","7","158264","0.0-1.0-3.1-0.1","07:56:25","1","","","","","","[{""page_index"":0,""viewing_time"":3034},{""page_index"":1,""viewing_time"":2140},{""page_index"":2,""viewing_time"":3260}]","","","","","","","","","","","","","","","","","","","",""
"13009","{""Q0"":"""",""task1"":""<span style='font-size: 24px'>学习图片和数字的对应关系</span>"",""task2"":""<span style='font-size: 24px'> 图片下方标注为可用的数字键（数字键1-3或0-9） </span>"",""task3"":""<span style='font-size: 24px'> 看到图片选出正确对应的数字 </span>""}","question","survey-multi-choice","8","171276","0.0-1.0-3.1-1.1","07:56:25","1","","","","","","","","[0,1,2,3]","","","","","","","","","","","","","","","","","",""
"3346"," ","inst_q","html-keyboard-response","9","174624","0.0-1.0-3.1-2.1","07:56:25","1","","","","","","","inst","","1","","","","","","","","","","","","","","","","",""
"","","","preload","10","174676","0.0-1.0-4.0-0.0","07:56:25","1","true","false","[]","[]","[]","","","","","","","","","","","","","","","","","","","","",""
"4835"," ","","html-keyboard-response","11","179513","0.0-1.0-4.0-1.0","07:56:25","1","","","","","","","<div style='font-size: 32px; text-align: center;'
                    <p>请学习图片和数字之间的对应关系</p>
                    <p>我们将<span style='color: blue'><b> 告诉 </b></span>您选择的对错。请根据反馈学习。</p>
                    <p>请按""空格""继续实验。</p></div>","","","","","","","","","","","","","","","","","","",""
"7892"," ","inst","html-keyboard-response","12","187407","0.0-1.0-4.0-2.0","07:56:25","1","","","","","","","<img class='instruct_stim' src=""instruction/prac3.PNG""></div>","","","","","","","","","","","","","","","","","","",""
"null","null","fixation","html-keyboard-response","13","187909","0.0-1.0-4.0-3.0-0.0","07:56:25","1","","","","","","","fixation","","","","","","","","","","","","","","","","","","",""
"2404","1","pic_response","html-keyboard-response","14","190316","0.0-1.0-4.0-3.0-1.0","07:56:25","1","","","","","","","<div>
            <img class='stim' src=""pictures/prac/0.jpg""></div><div class=""button_prompt"">
                        <b>请用数字键1-3回答</b>
                        </div>","","","","","","","","","","","","","","","","","","",""
"2404","null","sub_response","html-keyboard-response","15","191320","0.0-1.0-4.0-3.0-2.0","07:56:25","1","","","","","","","<div style='text-align: center;'>
                            <span style=""color: green; font-size: 40px""><b>正确！+1 pts</b></span></div>
                            ","","learn","0","0","0","learn","0","0","[0, 1, 2]","0","0","setsize","99","prac","0","1","0","1",""
"null","null","fixation","html-keyboard-response","16","191823","0.0-1.0-4.0-3.0-0.1","07:56:25","1","","","","","","","fixation","","","","","","","","","","","","","","","","","","",""
"1564","1","pic_response","html-keyboard-response","17","193388","0.0-1.0-4.0-3.0-1.1","07:56:25","1","","","","","","","<div>
            <img class='stim' src=""pictures/prac/1.jpg""></div><div class=""button_prompt"">
                        <b>请用数字键1-3回答</b>
                        </div>","","","","","","","","","","","","","","","","","","",""
"1564","null","sub_response","html-keyboard-response","18","194391","0.0-1.0-4.0-3.0-2.1","07:56:25","1","","","","","","","<div style='text-align: center;'>
                            <span style=""color: green; font-size: 40px""><b>正确！+1 pts</b></span></div>
                            ","","learn","1","1","1","learn","0","0","[0, 1, 2]","1","0","setsize","99","prac","0","2","0","1",""
"null","null","fixation","html-keyboard-response","19","194893","0.0-1.0-4.0-3.0-0.2","07:56:25","1","","","","","","","fixation","","","","","","","","","","","","","","","","","","",""
"2122","3","pic_response","html-keyboard-response","20","197016","0.0-1.0-4.0-3.0-1.2","07:56:25","1","","","","","","","<div>
            <img class='stim' src=""pictures/prac/2.jpg""></div><div class=""button_prompt"">
                        <b>请用数字键1-3回答</b>
                        </div>","","","","","","","","","","","","","","","","","","",""
"2122","null","sub_response","html-keyboard-response","21","198018","0.0-1.0-4.0-3.0-2.2","07:56:25","1","","","","","","","<div style='text-align: center;'>
                            <span style=""color: green; font-size: 40px""><b>正确！+1 pts</b></span></div>
                            ","","learn","2","2","2","learn","2","2","[0, 1, 2]","2","0","setsize","99","prac","0","3","2","1",""
"null","null","fixation","html-keyboard-response","22","198520","0.0-1.0-4.0-3.0-0.3","07:56:25","1","","","","","","","fixation","","","","","","","","","","","","","","","","","","",""
"1489","1","pic_response","html-keyboard-response","23","200010","0.0-1.0-4.0-3.0-1.3","07:56:25","1","","","","","","","<div>
            <img class='stim' src=""pictures/prac/1.jpg""></div><div class=""button_prompt"">
                        <b>请用数字键1-3回答</b>
                        </div>","","","","","","","","","","","","","","","","","","",""
"1489","null","sub_response","html-keyboard-response","24","201013","0.0-1.0-4.0-3.0-2.3","07:56:25","1","","","","","","","<div style='text-align: center;'>
                            <span style=""color: green; font-size: 40px""><b>正确！+1 pts</b></span></div>
                            ","","learn","1","1","1","learn","0","0","[0, 1, 2]","3","1","setsize","99","prac","0","4","0","1",""
"null","null","fixation","html-keyboard-response","25","201515","0.0-1.0-4.0-3.0-0.4","07:56:25","1","","","","","","","fixation","","","","","","","","","","","","","","","","","","",""
"899","3","pic_response","html-keyboard-response","26","202416","0.0-1.0-4.0-3.0-1.4","07:56:25","1","","","","","","","<div>
            <img class='stim' src=""pictures/prac/2.jpg""></div><div class=""button_prompt"">
                        <b>请用数字键1-3回答</b>
                        </div>","","","","","","","","","","","","","","","","","","",""
"899","null","sub_response","html-keyboard-response","27","203418","0.0-1.0-4.0-3.0-2.4","07:56:25","1","","","","","","","<div style='text-align: center;'>
                            <span style=""color: green; font-size: 40px""><b>正确！+1 pts</b></span></div>
                            ","","learn","2","2","2","learn","2","2","[0, 1, 2]","4","1","setsize","99","prac","0","5","2","1",""
"null","null","fixation","html-keyboard-response","28","203920","0.0-1.0-4.0-3.0-0.5","07:56:25","1","","","","","","","fixation","","","","","","","","","","","","","","","","","","",""
"988","1","pic_response","html-keyboard-response","29","204910","0.0-1.0-4.0-3.0-1.5","07:56:25","1","","","","","","","<div>
            <img class='stim' src=""pictures/prac/0.jpg""></div><div class=""button_prompt"">
                        <b>请用数字键1-3回答</b>
                        </div>","","","","","","","","","","","","","","","","","","",""
"988","null","sub_response","html-keyboard-response","30","205912","0.0-1.0-4.0-3.0-2.5","07:56:25","1","","","","","","","<div style='text-align: center;'>
                            <span style=""color: green; font-size: 40px""><b>正确！+1 pts</b></span></div>
                            ","","learn","0","0","0","learn","0","0","[0, 1, 2]","5","1","setsize","99","prac","0","6","0","1",""
"9525"," ","","html-keyboard-response","31","215440","0.0-1.0-5.0","07:56:25","1","","","","","","","<div style=""font-size: 25px""><p>距下一个实验开始还有</p><div style=""font-size: 50px; color: blue""><p><span id=""clock"">1:00</span></div></p><p>按""空格""跳过休息</p></div>","","","","","","","","","","","","","","","","","","",""
"1328"," ","","html-keyboard-response","32","216769","0.0-1.0-6.0","07:56:25","1","","","","","","","<div style='font-size: 32px; text-align: center;'
                    <p>请按""空格""继续正式实验。</p></div>","","","","","","","","","","","","","","","","","","",""
"","","","preload","33","216924","0.0-1.0-7.0-0.0","07:56:25","1","true","false","[]","[]","[]","","","","","","","","","","","","","","","","","","","","",""
"1341"," ","","html-keyboard-response","34","218266","0.0-1.0-7.0-1.0","07:56:25","1","","","","","","","<div style='font-size: 32px; text-align: center;'
                    <p>请学习图片和数字之间的对应关系</p>
                    <p>我们将<span style='color: blue'><b> 告诉 </b></span>您选择的对错。请根据反馈学习。</p>
                    <p>请按""空格""继续实验。</p></div>","","","","","","","","","","","","","","","","","","",""
"6644"," ","inst","html-keyboard-response","35","224912","0.0-1.0-7.0-2.0","07:56:25","1","","","","","","","<img class='instruct_stim' src=""instruction/food10.PNG""></div>","","","","","","","","","","","","","","","","","","",""
"null","null","fixation","html-keyboard-response","36","225413","0.0-1.0-7.0-3.0-0.0","07:56:25","1","","","","","","","fixation","","","","","","","","","","","","","","","","","","",""
"2626","1","pic_response","html-keyboard-response","37","228042","0.0-1.0-7.0-3.0-1.0","07:56:25","1","","","","","","","<div>
            <img class='stim' src=""pictures/food/0.jpg""></div><div class=""button_prompt"">
                        <b>请用数字键1-3回答</b>
                        </div>","","","","","","","","","","","","","","","","","","",""
"2626","null","sub_response","html-keyboard-response","38","229044","0.0-1.0-7.0-3.0-2.0","07:56:25","1","","","","","","","<div style='text-align: center;'>
                            <span style=""color: green; font-size: 40px""><b>正确！+1 pts</b></span></div>
                            ","","learn","0","0","0","learn","0","0","[0, 1, 2]","0","0","setsize","10S3A","food","1","7","0","1",""
"null","null","fixation","html-keyboard-response","39","229547","0.0-1.0-7.0-3.0-0.1","07:56:25","1","","","","","","","fixation","","","","","","","","","","","","","","","","","","",""
"1392","3","pic_response","html-keyboard-response","40","230941","0.0-1.0-7.0-3.0-1.1","07:56:25","1","","","","","","","<div>
            <img class='stim' src=""pictures/food/4.jpg""></div><div class=""button_prompt"">
                        <b>请用数字键1-3回答</b>
                        </div>","","","","","","","","","","","","","","","","","","",""
"1392","null","sub_response","html-keyboard-response","41","231943","0.0-1.0-7.0-3.0-2.1","07:56:25","1","","","","","","","<div style='text-align: center;'>
                            <span style=""color: red; font-size: 40px""><b>错误！+0 pts</b></span></div>
                            ","","learn","4","4","4","learn","1","1","[0, 1, 2]","1","0","setsize","10S3A","food","1","0","2","0",""
"null","null","fixation","html-keyboard-response","42","232445","0.0-1.0-7.0-3.0-0.2","07:56:25","1","","","","","","","fixation","","","","","","","","","","","","","","","","","","",""
"1676","3","pic_response","html-keyboard-response","43","234123","0.0-1.0-7.0-3.0-1.2","07:56:25","1","","","","","","","<div>
            <img class='stim' src=""pictures/food/8.jpg""></div><div class=""button_prompt"">
                        <b>请用数字键1-3回答</b>
                        </div>","","","","","","","","","","","","","","","","","","",""
"1676","null","sub_response","html-keyboard-response","44","235126","0.0-1.0-7.0-3.0-2.2","07:56:25","1","","","","","","","<div style='text-align: center;'>
                            <span style=""color: green; font-size: 40px""><b>正确！+1 pts</b></span></div>
                            ","","learn","8","8","8","learn","2","2","[0, 1, 2]","2","0","setsize","10S3A","food","1","1","2","1",""
"null","null","fixation","html-keyboard-response","45","235628","0.0-1.0-7.0-3.0-0.3","07:56:25","1","","","","","","","fixation","","","","","","","","","","","","","","","","","","",""
"2392","1","pic_response","html-keyboard-response","46","238022","0.0-1.0-7.0-3.0-1.3","07:56:25","1","","","","","","","<div>
            <img class='stim' src=""pictures/food/1.jpg""></div><div class=""button_prompt"">
                        <b>请用数字键1-3回答</b>
                        </div>","","","","","","","","","","","","","","","","","","",""
"2392","null","sub_response","html-keyboard-response","47","239023","0.0-1.0-7.0-3.0-2.3","07:56:25","1","","","","","","","<div style='text-align: center;'>
                            <span style=""color: green; font-size: 40px""><b>正确！+1 pts</b></span></div>
                            ","","learn","1","1","1","learn","0","0","[0, 1, 2]","3","0","setsize","10S3A","food","1","2","0","1",""
"null","null","fixation","html-keyboard-response","48","239525","0.0-1.0-7.0-3.0-0.4","07:56:25","1","","","","","","","fixation","","","","","","","","","","","","","","","","","","",""
"null","null","pic_response","html-keyboard-response","49","242539","0.0-1.0-7.0-3.0-1.4","07:56:25","1","","","","","","","<div>
            <img class='stim' src=""pictures/food/7.jpg""></div><div class=""button_prompt"">
                        <b>请用数字键1-3回答</b>
                        </div>","","","","","","","","","","","","","","","","","","",""
"null","null","sub_response","html-keyboard-response","50","243542","0.0-1.0-7.0-3.0-2.4","07:56:25","1","","","","","","","<div style='text-align: center;'>
                            <span style=""color: red; font-size: 40px""><b>错误！+0 pts</b></span></div>
                            ","","learn","7","7","7","learn","2","2","[0, 1, 2]","4","0","setsize","10S3A","food","1","0","999","0",""
"null","null","fixation","html-keyboard-response","51","244043","0.0-1.0-7.0-3.0-0.5","07:56:25","1","","","","","","","fixation","","","","","","","","","","","","","","","","","","",""
"1421","1","pic_response","html-keyboard-response","52","245466","0.0-1.0-7.0-3.0-1.5","07:56:25","1","","","","","","","<div>
            <img class='stim' src=""pictures/food/5.jpg""></div><div class=""button_prompt"">
                        <b>请用数字键1-3回答</b>
                        </div>","","","","","","","","","","","","","","","","","","",""
"1421","null","sub_response","html-keyboard-response","53","246467","0.0-1.0-7.0-3.0-2.5","07:56:25","1","","","","","","","<div style='text-align: center;'>
                            <span style=""color: red; font-size: 40px""><b>错误！+0 pts</b></span></div>
                            ","","learn","5","5","5","learn","1","1","[0, 1, 2]","5","0","setsize","10S3A","food","1","0","0","0",""
"null","null","fixation","html-keyboard-response","54","246968","0.0-1.0-7.0-3.0-0.6","07:56:25","1","","","","","","","fixation","","","","","","","","","","","","","","","","","","",""
"null","null","pic_response","html-keyboard-response","55","249971","0.0-1.0-7.0-3.0-1.6","07:56:25","1","","","","","","","<div>
            <img class='stim' src=""pictures/food/6.jpg""></div><div class=""button_prompt"">
                        <b>请用数字键1-3回答</b>
                        </div>","","","","","","","","","","","","","","","","","","",""
"null","null","sub_response","html-keyboard-response","56","250974","0.0-1.0-7.0-3.0-2.6","07:56:25","1","","","","","","","<div style='text-align: center;'>
                            <span style=""color: red; font-size: 40px""><b>错误！+0 pts</b></span></div>
                            ","","learn","6","6","6","learn","2","2","[0, 1, 2]","6","0","setsize","10S3A","food","1","0","999","0",""
"null","null","fixation","html-keyboard-response","57","251476","0.0-1.0-7.0-3.0-0.7","07:56:25","1","","","","","","","fixation","","","","","","","","","","","","","","","","","","",""
"1079","3","pic_response","html-keyboard-response","58","252555","0.0-1.0-7.0-3.0-1.7","07:56:25","1","","","","","","","<div>
            <img class='stim' src=""pictures/food/2.jpg""></div><div class=""button_prompt"">
                        <b>请用数字键1-3回答</b>
                        </div>","","","","","","","","","","","","","","","","","","",""
"1079","null","sub_response","html-keyboard-response","59","253557","0.0-1.0-7.0-3.0-2.7","07:56:25","1","","","","","","","<div style='text-align: center;'>
                            <span style=""color: red; font-size: 40px""><b>错误！+0 pts</b></span></div>
                            ","","learn","2","2","2","learn","0","0","[0, 1, 2]","7","0","setsize","10S3A","food","1","0","2","0",""
"null","null","fixation","html-keyboard-response","60","254060","0.0-1.0-7.0-3.0-0.8","07:56:25","1","","","","","","","fixation","","","","","","","","","","","","","","","","","","",""
"1062","1","pic_response","html-keyboard-response","61","255124","0.0-1.0-7.0-3.0-1.8","07:56:25","1","","","","","","","<div>
            <img class='stim' src=""pictures/food/3.jpg""></div><div class=""button_prompt"">
                        <b>请用数字键1-3回答</b>
                        </div>","","","","","","","","","","","","","","","","","","",""
"1062","null","sub_response","html-keyboard-response","62","256126","0.0-1.0-7.0-3.0-2.8","07:56:25","1","","","","","","","<div style='text-align: center;'>
                            <span style=""color: red; font-size: 40px""><b>错误！+0 pts</b></span></div>
                            ","","learn","3","3","3","learn","1","1","[0, 1, 2]","8","0","setsize","10S3A","food","1","0","0","0",""
"null","null","fixation","html-keyboard-response","63","256627","0.0-1.0-7.0-3.0-0.9","07:56:25","1","","","","","","","fixation","","","","","","","","","","","","","","","","","","",""
"753","3","pic_response","html-keyboard-response","64","257382","0.0-1.0-7.0-3.0-1.9","07:56:25","1","","","","","","","<div>
            <img class='stim' src=""pictures/food/9.jpg""></div><div class=""button_prompt"">
                        <b>请用数字键1-3回答</b>
                        </div>","","","","","","","","","","","","","","","","","","",""
"753","null","sub_response","html-keyboard-response","65","258383","0.0-1.0-7.0-3.0-2.9","07:56:25","1","","","","","","","<div style='text-align: center;'>
                            <span style=""color: green; font-size: 40px""><b>正确！+1 pts</b></span></div>
                            ","","learn","9","9","9","learn","2","2","[0, 1, 2]","9","0","setsize","10S3A","food","1","1","2","1",""
"null","null","fixation","html-keyboard-response","66","258886","0.0-1.0-7.0-3.0-0.10","07:56:25","1","","","","","","","fixation","","","","","","","","","","","","","","","","","","",""
"652","1","pic_response","html-keyboard-response","67","259540","0.0-1.0-7.0-3.0-1.10","07:56:25","1","","","","","","","<div>
            <img class='stim' src=""pictures/food/0.jpg""></div><div class=""button_prompt"">
                        <b>请用数字键1-3回答</b>
                        </div>","","","","","","","","","","","","","","","","","","",""
"652","null","sub_response","html-keyboard-response","68","260542","0.0-1.0-7.0-3.0-2.10","07:56:25","1","","","","","","","<div style='text-align: center;'>
                            <span style=""color: green; font-size: 40px""><b>正确！+1 pts</b></span></div>
                            ","","learn","0","0","0","learn","0","0","[0, 1, 2]","10","1","setsize","10S3A","food","1","2","0","1",""
"null","null","fixation","html-keyboard-response","69","261044","0.0-1.0-7.0-3.0-0.11","07:56:25","1","","","","","","","fixation","","","","","","","","","","","","","","","","","","",""
"1132","2","pic_response","html-keyboard-response","70","262178","0.0-1.0-7.0-3.0-1.11","07:56:25","1","","","","","","","<div>
            <img class='stim' src=""pictures/food/6.jpg""></div><div class=""button_prompt"">
                        <b>请用数字键1-3回答</b>
                        </div>","","","","","","","","","","","","","","","","","","",""
"1132","null","sub_response","html-keyboard-response","71","263190","0.0-1.0-7.0-3.0-2.11","07:56:25","1","","","","","","","<div style='text-align: center;'>
                            <span style=""color: red; font-size: 40px""><b>错误！+0 pts</b></span></div>
                            ","","learn","6","6","6","learn","2","2","[0, 1, 2]","11","1","setsize","10S3A","food","1","0","1","0",""
"null","null","fixation","html-keyboard-response","72","263692","0.0-1.0-7.0-3.0-0.12","07:56:25","1","","","","","","","fixation","","","","","","","","","","","","","","","","","","",""
"762","3","pic_response","html-keyboard-response","73","264456","0.0-1.0-7.0-3.0-1.12","07:56:25","1","","","","","","","<div>
            <img class='stim' src=""pictures/food/2.jpg""></div><div class=""button_prompt"">
                        <b>请用数字键1-3回答</b>
                        </div>","","","","","","","","","","","","","","","","","","",""
"762","null","sub_response","html-keyboard-response","74","265457","0.0-1.0-7.0-3.0-2.12","07:56:25","1","","","","","","","<div style='text-align: center;'>
                            <span style=""color: red; font-size: 40px""><b>错误！+0 pts</b></span></div>
                            ","","learn","2","2","2","learn","0","0","[0, 1, 2]","12","1","setsize","10S3A","food","1","0","2","0",""
"null","null","fixation","html-keyboard-response","75","265959","0.0-1.0-7.0-3.0-0.13","07:56:25","1","","","","","","","fixation","","","","","","","","","","","","","","","","","","",""
"739","3","pic_response","html-keyboard-response","76","266700","0.0-1.0-7.0-3.0-1.13","07:56:25","1","","","","","","","<div>
            <img class='stim' src=""pictures/food/7.jpg""></div><div class=""button_prompt"">
                        <b>请用数字键1-3回答</b>
                        </div>","","","","","","","","","","","","","","","","","","",""
"739","null","sub_response","html-keyboard-response","77","267702","0.0-1.0-7.0-3.0-2.13","07:56:25","1","","","","","","","<div style='text-align: center;'>
                            <span style=""color: green; font-size: 40px""><b>正确！+1 pts</b></span></div>
                            ","","learn","7","7","7","learn","2","2","[0, 1, 2]","13","1","setsize","10S3A","food","1","1","2","1",""
"null","null","fixation","html-keyboard-response","78","268204","0.0-1.0-7.0-3.0-0.14","07:56:25","1","","","","","","","fixation","","","","","","","","","","","","","","","","","","",""
"858","3","pic_response","html-keyboard-response","79","269064","0.0-1.0-7.0-3.0-1.14","07:56:25","1","","","","","","","<div>
            <img class='stim' src=""pictures/food/8.jpg""></div><div class=""button_prompt"">
                        <b>请用数字键1-3回答</b>
                        </div>","","","","","","","","","","","","","","","","","","",""
"858","null","sub_response","html-keyboard-response","80","270065","0.0-1.0-7.0-3.0-2.14","07:56:25","1","","","","","","","<div style='text-align: center;'>
                            <span style=""color: green; font-size: 40px""><b>正确！+1 pts</b></span></div>
                            ","","learn","8","8","8","learn","2","2","[0, 1, 2]","14","1","setsize","10S3A","food","1","2","2","1",""
"null","null","fixation","html-keyboard-response","81","270567","0.0-1.0-7.0-3.0-0.15","07:56:25","1","","","","","","","fixation","","","","","","","","","","","","","","","","","","",""
"555","3","pic_response","html-keyboard-response","82","271123","0.0-1.0-7.0-3.0-1.15","07:56:25","1","","","","","","","<div>
            <img class='stim' src=""pictures/food/9.jpg""></div><div class=""button_prompt"">
                        <b>请用数字键1-3回答</b>
                        </div>","","","","","","","","","","","","","","","","","","",""
"555","null","sub_response","html-keyboard-response","83","272126","0.0-1.0-7.0-3.0-2.15","07:56:25","1","","","","","","","<div style='text-align: center;'>
                            <span style=""color: green; font-size: 40px""><b>正确！+1 pts</b></span></div>
                            ","","learn","9","9","9","learn","2","2","[0, 1, 2]","15","1","setsize","10S3A","food","1","3","2","1",""
"null","null","fixation","html-keyboard-response","84","272627","0.0-1.0-7.0-3.0-0.16","07:56:25","1","","","","","","","fixation","","","","","","","","","","","","","","","","","","",""
"770","1","pic_response","html-keyboard-response","85","273399","0.0-1.0-7.0-3.0-1.16","07:56:25","1","","","","","","","<div>
            <img class='stim' src=""pictures/food/1.jpg""></div><div class=""button_prompt"">
                        <b>请用数字键1-3回答</b>
                        </div>","","","","","","","","","","","","","","","","","","",""
"770","null","sub_response","html-keyboard-response","86","274402","0.0-1.0-7.0-3.0-2.16","07:56:25","1","","","","","","","<div style='text-align: center;'>
                            <span style=""color: green; font-size: 40px""><b>正确！+1 pts</b></span></div>
                            ","","learn","1","1","1","learn","0","0","[0, 1, 2]","16","1","setsize","10S3A","food","1","4","0","1",""
"null","null","fixation","html-keyboard-response","87","274905","0.0-1.0-7.0-3.0-0.17","07:56:25","1","","","","","","","fixation","","","","","","","","","","","","","","","","","","",""
"1054","3","pic_response","html-keyboard-response","88","275961","0.0-1.0-7.0-3.0-1.17","07:56:25","1","","","","","","","<div>
            <img class='stim' src=""pictures/food/4.jpg""></div><div class=""button_prompt"">
                        <b>请用数字键1-3回答</b>
                        </div>","","","","","","","","","","","","","","","","","","",""
"1054","null","sub_response","html-keyboard-response","89","276963","0.0-1.0-7.0-3.0-2.17","07:56:25","1","","","","","","","<div style='text-align: center;'>
                            <span style=""color: red; font-size: 40px""><b>错误！+0 pts</b></span></div>
                            ","","learn","4","4","4","learn","1","1","[0, 1, 2]","17","1","setsize","10S3A","food","1","0","2","0",""
"null","null","fixation","html-keyboard-response","90","277466","0.0-1.0-7.0-3.0-0.18","07:56:25","1","","","","","","","fixation","","","","","","","","","","","","","","","","","","",""
"1071","1","pic_response","html-keyboard-response","91","278539","0.0-1.0-7.0-3.0-1.18","07:56:25","1","","","","","","","<div>
            <img class='stim' src=""pictures/food/5.jpg""></div><div class=""button_prompt"">
                        <b>请用数字键1-3回答</b>
                        </div>","","","","","","","","","","","","","","","","","","",""
"1071","null","sub_response","html-keyboard-response","92","279541","0.0-1.0-7.0-3.0-2.18","07:56:25","1","","","","","","","<div style='text-align: center;'>
                            <span style=""color: red; font-size: 40px""><b>错误！+0 pts</b></span></div>
                            ","","learn","5","5","5","learn","1","1","[0, 1, 2]","18","1","setsize","10S3A","food","1","0","0","0",""
"null","null","fixation","html-keyboard-response","93","280043","0.0-1.0-7.0-3.0-0.19","07:56:25","1","","","","","","","fixation","","","","","","","","","","","","","","","","","","",""
"947","3","pic_response","html-keyboard-response","94","280991","0.0-1.0-7.0-3.0-1.19","07:56:25","1","","","","","","","<div>
            <img class='stim' src=""pictures/food/3.jpg""></div><div class=""button_prompt"">
                        <b>请用数字键1-3回答</b>
                        </div>","","","","","","","","","","","","","","","","","","",""
"947","null","sub_response","html-keyboard-response","95","281993","0.0-1.0-7.0-3.0-2.19","07:56:25","1","","","","","","","<div style='text-align: center;'>
                            <span style=""color: red; font-size: 40px""><b>错误！+0 pts</b></span></div>
                            ","","learn","3","3","3","learn","1","1","[0, 1, 2]","19","1","setsize","10S3A","food","1","0","2","0",""
"null","null","fixation","html-keyboard-response","96","282496","0.0-1.0-7.0-3.0-0.20","07:56:25","1","","","","","","","fixation","","","","","","","","","","","","","","","","","","",""
"1038","3","pic_response","html-keyboard-response","97","283535","0.0-1.0-7.0-3.0-1.20","07:56:25","1","","","","","","","<div>
            <img class='stim' src=""pictures/food/8.jpg""></div><div class=""button_prompt"">
                        <b>请用数字键1-3回答</b>
                        </div>","","","","","","","","","","","","","","","","","","",""
"1038","null","sub_response","html-keyboard-response","98","284537","0.0-1.0-7.0-3.0-2.20","07:56:25","1","","","","","","","<div style='text-align: center;'>
                            <span style=""color: green; font-size: 40px""><b>正确！+1 pts</b></span></div>
                            ","","learn","8","8","8","learn","2","2","[0, 1, 2]","20","2","setsize","10S3A","food","1","1","2","1",""
"null","null","fixation","html-keyboard-response","99","285040","0.0-1.0-7.0-3.0-0.21","07:56:25","1","","","","","","","fixation","","","","","","","","","","","","","","","","","","",""
"1051","1","pic_response","html-keyboard-response","100","286093","0.0-1.0-7.0-3.0-1.21","07:56:25","1","","","","","","","<div>
            <img class='stim' src=""pictures/food/4.jpg""></div><div class=""button_prompt"">
                        <b>请用数字键1-3回答</b>
                        </div>","","","","","","","","","","","","","","","","","","",""
"1051","null","sub_response","html-keyboard-response","101","287095","0.0-1.0-7.0-3.0-2.21","07:56:25","1","","","","","","","<div style='text-align: center;'>
                            <span style=""color: red; font-size: 40px""><b>错误！+0 pts</b></span></div>
                            ","","learn","4","4","4","learn","1","1","[0, 1, 2]","21","2","setsize","10S3A","food","1","0","0","0",""
"null","null","fixation","html-keyboard-response","102","287597","0.0-1.0-7.0-3.0-0.22","07:56:25","1","","","","","","","fixation","","","","","","","","","","","","","","","","","","",""
"1041","3","pic_response","html-keyboard-response","103","288640","0.0-1.0-7.0-3.0-1.22","07:56:25","1","","","","","","","<div>
            <img class='stim' src=""pictures/food/9.jpg""></div><div class=""button_prompt"">
                        <b>请用数字键1-3回答</b>
                        </div>","","","","","","","","","","","","","","","","","","",""
"1041","null","sub_response","html-keyboard-response","104","289642","0.0-1.0-7.0-3.0-2.22","07:56:25","1","","","","","","","<div style='text-align: center;'>
                            <span style=""color: green; font-size: 40px""><b>正确！+1 pts</b></span></div>
                            ","","learn","9","9","9","learn","2","2","[0, 1, 2]","22","2","setsize","10S3A","food","1","1","2","1",""
"null","null","fixation","html-keyboard-response","105","290146","0.0-1.0-7.0-3.0-0.23","07:56:25","1","","","","","","","fixation","","","","","","","","","","","","","","","","","","",""
"800","2","pic_response","html-keyboard-response","106","290947","0.0-1.0-7.0-3.0-1.23","07:56:25","1","","","","","","","<div>
            <img class='stim' src=""pictures/food/3.jpg""></div><div class=""button_prompt"">
                        <b>请用数字键1-3回答</b>
                        </div>","","","","","","","","","","","","","","","","","","",""
"800","null","sub_response","html-keyboard-response","107","291948","0.0-1.0-7.0-3.0-2.23","07:56:25","1","","","","","","","<div style='text-align: center;'>
                            <span style=""color: green; font-size: 40px""><b>正确！+1 pts</b></span></div>
                            ","","learn","3","3","3","learn","1","1","[0, 1, 2]","23","2","setsize","10S3A","food","1","2","1","1",""
"null","null","fixation","html-keyboard-response","108","292450","0.0-1.0-7.0-3.0-0.24","07:56:25","1","","","","","","","fixation","","","","","","","","","","","","","","","","","","",""
"879","2","pic_response","html-keyboard-response","109","293332","0.0-1.0-7.0-3.0-1.24","07:56:25","1","","","","","","","<div>
            <img class='stim' src=""pictures/food/5.jpg""></div><div class=""button_prompt"">
                        <b>请用数字键1-3回答</b>
                        </div>","","","","","","","","","","","","","","","","","","",""
"879","null","sub_response","html-keyboard-response","110","294334","0.0-1.0-7.0-3.0-2.24","07:56:25","1","","","","","","","<div style='text-align: center;'>
                            <span style=""color: green; font-size: 40px""><b>正确！+1 pts</b></span></div>
                            ","","learn","5","5","5","learn","1","1","[0, 1, 2]","24","2","setsize","10S3A","food","1","3","1","1",""
"null","null","fixation","html-keyboard-response","111","294836","0.0-1.0-7.0-3.0-0.25","07:56:25","1","","","","","","","fixation","","","","","","","","","","","","","","","","","","",""
"743","2","pic_response","html-keyboard-response","112","295580","0.0-1.0-7.0-3.0-1.25","07:56:25","1","","","","","","","<div>
            <img class='stim' src=""pictures/food/6.jpg""></div><div class=""button_prompt"">
                        <b>请用数字键1-3回答</b>
                        </div>","","","","","","","","","","","","","","","","","","",""
"743","null","sub_response","html-keyboard-response","113","296583","0.0-1.0-7.0-3.0-2.25","07:56:25","1","","","","","","","<div style='text-align: center;'>
                            <span style=""color: red; font-size: 40px""><b>错误！+0 pts</b></span></div>
                            ","","learn","6","6","6","learn","2","2","[0, 1, 2]","25","2","setsize","10S3A","food","1","0","1","0",""
"null","null","fixation","html-keyboard-response","114","297085","0.0-1.0-7.0-3.0-0.26","07:56:25","1","","","","","","","fixation","","","","","","","","","","","","","","","","","","",""
"1233","1","pic_response","html-keyboard-response","115","298319","0.0-1.0-7.0-3.0-1.26","07:56:25","1","","","","","","","<div>
            <img class='stim' src=""pictures/food/1.jpg""></div><div class=""button_prompt"">
                        <b>请用数字键1-3回答</b>
                        </div>","","","","","","","","","","","","","","","","","","",""
"1233","null","sub_response","html-keyboard-response","116","299321","0.0-1.0-7.0-3.0-2.26","07:56:25","1","","","","","","","<div style='text-align: center;'>
                            <span style=""color: green; font-size: 40px""><b>正确！+1 pts</b></span></div>
                            ","","learn","1","1","1","learn","0","0","[0, 1, 2]","26","2","setsize","10S3A","food","1","1","0","1",""
"null","null","fixation","html-keyboard-response","117","299830","0.0-1.0-7.0-3.0-0.27","07:56:25","1","","","","","","","fixation","","","","","","","","","","","","","","","","","","",""
"1096","1","pic_response","html-keyboard-response","118","300928","0.0-1.0-7.0-3.0-1.27","07:56:25","1","","","","","","","<div>
            <img class='stim' src=""pictures/food/0.jpg""></div><div class=""button_prompt"">
                        <b>请用数字键1-3回答</b>
                        </div>","","","","","","","","","","","","","","","","","","",""
"1096","null","sub_response","html-keyboard-response","119","301930","0.0-1.0-7.0-3.0-2.27","07:56:25","1","","","","","","","<div style='text-align: center;'>
                            <span style=""color: green; font-size: 40px""><b>正确！+1 pts</b></span></div>
                            ","","learn","0","0","0","learn","0","0","[0, 1, 2]","27","2","setsize","10S3A","food","1","2","0","1",""
"null","null","fixation","html-keyboard-response","120","302432","0.0-1.0-7.0-3.0-0.28","07:56:25","1","","","","","","","fixation","","","","","","","","","","","","","","","","","","",""
"778","3","pic_response","html-keyboard-response","121","303212","0.0-1.0-7.0-3.0-1.28","07:56:25","1","","","","","","","<div>
            <img class='stim' src=""pictures/food/2.jpg""></div><div class=""button_prompt"">
                        <b>请用数字键1-3回答</b>
                        </div>","","","","","","","","","","","","","","","","","","",""
"778","null","sub_response","html-keyboard-response","122","304229","0.0-1.0-7.0-3.0-2.28","07:56:25","1","","","","","","","<div style='text-align: center;'>
                            <span style=""color: red; font-size: 40px""><b>错误！+0 pts</b></span></div>
                            ","","learn","2","2","2","learn","0","0","[0, 1, 2]","28","2","setsize","10S3A","food","1","0","2","0",""
"null","null","fixation","html-keyboard-response","123","304732","0.0-1.0-7.0-3.0-0.29","07:56:25","1","","","","","","","fixation","","","","","","","","","","","","","","","","","","",""
"985","2","pic_response","html-keyboard-response","124","305719","0.0-1.0-7.0-3.0-1.29","07:56:25","1","","","","","","","<div>
            <img class='stim' src=""pictures/food/7.jpg""></div><div class=""button_prompt"">
                        <b>请用数字键1-3回答</b>
                        </div>","","","","","","","","","","","","","","","","","","",""
"985","null","sub_response","html-keyboard-response","125","306721","0.0-1.0-7.0-3.0-2.29","07:56:25","1","","","","","","","<div style='text-align: center;'>
                            <span style=""color: red; font-size: 40px""><b>错误！+0 pts</b></span></div>
                            ","","learn","7","7","7","learn","2","2","[0, 1, 2]","29","2","setsize","10S3A","food","1","0","1","0",""
"null","null","fixation","html-keyboard-response","126","307224","0.0-1.0-7.0-3.0-0.30","07:56:25","1","","","","","","","fixation","","","","","","","","","","","","","","","","","","",""
"666","3","pic_response","html-keyboard-response","127","307891","0.0-1.0-7.0-3.0-1.30","07:56:25","1","","","","","","","<div>
            <img class='stim' src=""pictures/food/9.jpg""></div><div class=""button_prompt"">
                        <b>请用数字键1-3回答</b>
                        </div>","","","","","","","","","","","","","","","","","","",""
"666","null","sub_response","html-keyboard-response","128","308893","0.0-1.0-7.0-3.0-2.30","07:56:25","1","","","","","","","<div style='text-align: center;'>
                            <span style=""color: green; font-size: 40px""><b>正确！+1 pts</b></span></div>
                            ","","learn","9","9","9","learn","2","2","[0, 1, 2]","30","3","setsize","10S3A","food","1","1","2","1",""
"null","null","fixation","html-keyboard-response","129","309404","0.0-1.0-7.0-3.0-0.31","07:56:25","1","","","","","","","fixation","","","","","","","","","","","","","","","","","","",""
"1260","2","pic_response","html-keyboard-response","130","310665","0.0-1.0-7.0-3.0-1.31","07:56:25","1","","","","","","","<div>
            <img class='stim' src=""pictures/food/6.jpg""></div><div class=""button_prompt"">
                        <b>请用数字键1-3回答</b>
                        </div>","","","","","","","","","","","","","","","","","","",""
"1260","null","sub_response","html-keyboard-response","131","311667","0.0-1.0-7.0-3.0-2.31","07:56:25","1","","","","","","","<div style='text-align: center;'>
                            <span style=""color: red; font-size: 40px""><b>错误！+0 pts</b></span></div>
                            ","","learn","6","6","6","learn","2","2","[0, 1, 2]","31","3","setsize","10S3A","food","1","0","1","0",""
"null","null","fixation","html-keyboard-response","132","312169","0.0-1.0-7.0-3.0-0.32","07:56:25","1","","","","","","","fixation","","","","","","","","","","","","","","","","","","",""
"796","1","pic_response","html-keyboard-response","133","312966","0.0-1.0-7.0-3.0-1.32","07:56:25","1","","","","","","","<div>
            <img class='stim' src=""pictures/food/1.jpg""></div><div class=""button_prompt"">
                        <b>请用数字键1-3回答</b>
                        </div>","","","","","","","","","","","","","","","","","","",""
"796","null","sub_response","html-keyboard-response","134","313968","0.0-1.0-7.0-3.0-2.32","07:56:25","1","","","","","","","<div style='text-align: center;'>
                            <span style=""color: green; font-size: 40px""><b>正确！+1 pts</b></span></div>
                            ","","learn","1","1","1","learn","0","0","[0, 1, 2]","32","3","setsize","10S3A","food","1","1","0","1",""
"null","null","fixation","html-keyboard-response","135","314470","0.0-1.0-7.0-3.0-0.33","07:56:25","1","","","","","","","fixation","","","","","","","","","","","","","","","","","","",""
"854","3","pic_response","html-keyboard-response","136","315326","0.0-1.0-7.0-3.0-1.33","07:56:25","1","","","","","","","<div>
            <img class='stim' src=""pictures/food/8.jpg""></div><div class=""button_prompt"">
                        <b>请用数字键1-3回答</b>
                        </div>","","","","","","","","","","","","","","","","","","",""
"854","null","sub_response","html-keyboard-response","137","316330","0.0-1.0-7.0-3.0-2.33","07:56:25","1","","","","","","","<div style='text-align: center;'>
                            <span style=""color: green; font-size: 40px""><b>正确！+1 pts</b></span></div>
                            ","","learn","8","8","8","learn","2","2","[0, 1, 2]","33","3","setsize","10S3A","food","1","2","2","1",""
"null","null","fixation","html-keyboard-response","138","316832","0.0-1.0-7.0-3.0-0.34","07:56:25","1","","","","","","","fixation","","","","","","","","","","","","","","","","","","",""
"1186","2","pic_response","html-keyboard-response","139","318020","0.0-1.0-7.0-3.0-1.34","07:56:25","1","","","","","","","<div>
            <img class='stim' src=""pictures/food/4.jpg""></div><div class=""button_prompt"">
                        <b>请用数字键1-3回答</b>
                        </div>","","","","","","","","","","","","","","","","","","",""
"1186","null","sub_response","html-keyboard-response","140","319022","0.0-1.0-7.0-3.0-2.34","07:56:25","1","","","","","","","<div style='text-align: center;'>
                            <span style=""color: green; font-size: 40px""><b>正确！+1 pts</b></span></div>
                            ","","learn","4","4","4","learn","1","1","[0, 1, 2]","34","3","setsize","10S3A","food","1","3","1","1",""
"null","null","fixation","html-keyboard-response","141","319524","0.0-1.0-7.0-3.0-0.35","07:56:25","1","","","","","","","fixation","","","","","","","","","","","","","","","","","","",""
"1242","2","pic_response","html-keyboard-response","142","320767","0.0-1.0-7.0-3.0-1.35","07:56:25","1","","","","","","","<div>
            <img class='stim' src=""pictures/food/7.jpg""></div><div class=""button_prompt"">
                        <b>请用数字键1-3回答</b>
                        </div>","","","","","","","","","","","","","","","","","","",""
"1242","null","sub_response","html-keyboard-response","143","321769","0.0-1.0-7.0-3.0-2.35","07:56:25","1","","","","","","","<div style='text-align: center;'>
                            <span style=""color: red; font-size: 40px""><b>错误！+0 pts</b></span></div>
                            ","","learn","7","7","7","learn","2","2","[0, 1, 2]","35","3","setsize","10S3A","food","1","0","1","0",""
"null","null","fixation","html-keyboard-response","144","322272","0.0-1.0-7.0-3.0-0.36","07:56:25","1","","","","","","","fixation","","","","","","","","","","","","","","","","","","",""
"870","2","pic_response","html-keyboard-response","145","323143","0.0-1.0-7.0-3.0-1.36","07:56:25","1","","","","","","","<div>
            <img class='stim' src=""pictures/food/3.jpg""></div><div class=""button_prompt"">
                        <b>请用数字键1-3回答</b>
                        </div>","","","","","","","","","","","","","","","","","","",""
"870","null","sub_response","html-keyboard-response","146","324145","0.0-1.0-7.0-3.0-2.36","07:56:25","1","","","","","","","<div style='text-align: center;'>
                            <span style=""color: green; font-size: 40px""><b>正确！+1 pts</b></span></div>
                            ","","learn","3","3","3","learn","1","1","[0, 1, 2]","36","3","setsize","10S3A","food","1","1","1","1",""
"null","null","fixation","html-keyboard-response","147","324647","0.0-1.0-7.0-3.0-0.37","07:56:25","1","","","","","","","fixation","","","","","","","","","","","","","","","","","","",""
"715","1","pic_response","html-keyboard-response","148","325364","0.0-1.0-7.0-3.0-1.37","07:56:25","1","","","","","","","<div>
            <img class='stim' src=""pictures/food/0.jpg""></div><div class=""button_prompt"">
                        <b>请用数字键1-3回答</b>
                        </div>","","","","","","","","","","","","","","","","","","",""
"715","null","sub_response","html-keyboard-response","149","326369","0.0-1.0-7.0-3.0-2.37","07:56:25","1","","","","","","","<div style='text-align: center;'>
                            <span style=""color: green; font-size: 40px""><b>正确！+1 pts</b></span></div>
                            ","","learn","0","0","0","learn","0","0","[0, 1, 2]","37","3","setsize","10S3A","food","1","2","0","1",""
"null","null","fixation","html-keyboard-response","150","326871","0.0-1.0-7.0-3.0-0.38","07:56:25","1","","","","","","","fixation","","","","","","","","","","","","","","","","","","",""
"1033","1","pic_response","html-keyboard-response","151","327905","0.0-1.0-7.0-3.0-1.38","07:56:25","1","","","","","","","<div>
            <img class='stim' src=""pictures/food/2.jpg""></div><div class=""button_prompt"">
                        <b>请用数字键1-3回答</b>
                        </div>","","","","","","","","","","","","","","","","","","",""
"1033","null","sub_response","html-keyboard-response","152","328907","0.0-1.0-7.0-3.0-2.38","07:56:25","1","","","","","","","<div style='text-align: center;'>
                            <span style=""color: green; font-size: 40px""><b>正确！+1 pts</b></span></div>
                            ","","learn","2","2","2","learn","0","0","[0, 1, 2]","38","3","setsize","10S3A","food","1","3","0","1",""
"null","null","fixation","html-keyboard-response","153","329409","0.0-1.0-7.0-3.0-0.39","07:56:25","1","","","","","","","fixation","","","","","","","","","","","","","","","","","","",""
"859","2","pic_response","html-keyboard-response","154","330270","0.0-1.0-7.0-3.0-1.39","07:56:25","1","","","","","","","<div>
            <img class='stim' src=""pictures/food/5.jpg""></div><div class=""button_prompt"">
                        <b>请用数字键1-3回答</b>
                        </div>","","","","","","","","","","","","","","","","","","",""
"859","null","sub_response","html-keyboard-response","155","331272","0.0-1.0-7.0-3.0-2.39","07:56:25","1","","","","","","","<div style='text-align: center;'>
                            <span style=""color: green; font-size: 40px""><b>正确！+1 pts</b></span></div>
                            ","","learn","5","5","5","learn","1","1","[0, 1, 2]","39","3","setsize","10S3A","food","1","4","1","1",""
"null","null","fixation","html-keyboard-response","156","331775","0.0-1.0-7.0-3.0-0.40","07:56:25","1","","","","","","","fixation","","","","","","","","","","","","","","","","","","",""
"896","1","pic_response","html-keyboard-response","157","332672","0.0-1.0-7.0-3.0-1.40","07:56:25","1","","","","","","","<div>
            <img class='stim' src=""pictures/food/4.jpg""></div><div class=""button_prompt"">
                        <b>请用数字键1-3回答</b>
                        </div>","","","","","","","","","","","","","","","","","","",""
"896","null","sub_response","html-keyboard-response","158","333674","0.0-1.0-7.0-3.0-2.40","07:56:25","1","","","","","","","<div style='text-align: center;'>
                            <span style=""color: red; font-size: 40px""><b>错误！+0 pts</b></span></div>
                            ","","learn","4","4","4","learn","1","1","[0, 1, 2]","40","4","setsize","10S3A","food","1","0","0","0",""
"null","null","fixation","html-keyboard-response","159","334184","0.0-1.0-7.0-3.0-0.41","07:56:25","1","","","","","","","fixation","","","","","","","","","","","","","","","","","","",""
"735","3","pic_response","html-keyboard-response","160","334921","0.0-1.0-7.0-3.0-1.41","07:56:25","1","","","","","","","<div>
            <img class='stim' src=""pictures/food/8.jpg""></div><div class=""button_prompt"">
                        <b>请用数字键1-3回答</b>
                        </div>","","","","","","","","","","","","","","","","","","",""
"735","null","sub_response","html-keyboard-response","161","335923","0.0-1.0-7.0-3.0-2.41","07:56:25","1","","","","","","","<div style='text-align: center;'>
                            <span style=""color: green; font-size: 40px""><b>正确！+1 pts</b></span></div>
                            ","","learn","8","8","8","learn","2","2","[0, 1, 2]","41","4","setsize","10S3A","food","1","1","2","1",""
"null","null","fixation","html-keyboard-response","162","336425","0.0-1.0-7.0-3.0-0.42","07:56:25","1","","","","","","","fixation","","","","","","","","","","","","","","","","","","",""
"830","1","pic_response","html-keyboard-response","163","337256","0.0-1.0-7.0-3.0-1.42","07:56:25","1","","","","","","","<div>
            <img class='stim' src=""pictures/food/2.jpg""></div><div class=""button_prompt"">
                        <b>请用数字键1-3回答</b>
                        </div>","","","","","","","","","","","","","","","","","","",""
"830","null","sub_response","html-keyboard-response","164","338257","0.0-1.0-7.0-3.0-2.42","07:56:25","1","","","","","","","<div style='text-align: center;'>
                            <span style=""color: green; font-size: 40px""><b>正确！+1 pts</b></span></div>
                            ","","learn","2","2","2","learn","0","0","[0, 1, 2]","42","4","setsize","10S3A","food","1","2","0","1",""
"null","null","fixation","html-keyboard-response","165","338760","0.0-1.0-7.0-3.0-0.43","07:56:25","1","","","","","","","fixation","","","","","","","","","","","","","","","","","","",""
"955","1","pic_response","html-keyboard-response","166","339717","0.0-1.0-7.0-3.0-1.43","07:56:25","1","","","","","","","<div>
            <img class='stim' src=""pictures/food/6.jpg""></div><div class=""button_prompt"">
                        <b>请用数字键1-3回答</b>
                        </div>","","","","","","","","","","","","","","","","","","",""
"955","null","sub_response","html-keyboard-response","167","340720","0.0-1.0-7.0-3.0-2.43","07:56:25","1","","","","","","","<div style='text-align: center;'>
                            <span style=""color: red; font-size: 40px""><b>错误！+0 pts</b></span></div>
                            ","","learn","6","6","6","learn","2","2","[0, 1, 2]","43","4","setsize","10S3A","food","1","0","0","0",""
"null","null","fixation","html-keyboard-response","168","341223","0.0-1.0-7.0-3.0-0.44","07:56:25","1","","","","","","","fixation","","","","","","","","","","","","","","","","","","",""
"667","1","pic_response","html-keyboard-response","169","341891","0.0-1.0-7.0-3.0-1.44","07:56:25","1","","","","","","","<div>
            <img class='stim' src=""pictures/food/1.jpg""></div><div class=""button_prompt"">
                        <b>请用数字键1-3回答</b>
                        </div>","","","","","","","","","","","","","","","","","","",""
"667","null","sub_response","html-keyboard-response","170","342892","0.0-1.0-7.0-3.0-2.44","07:56:25","1","","","","","","","<div style='text-align: center;'>
                            <span style=""color: green; font-size: 40px""><b>正确！+1 pts</b></span></div>
                            ","","learn","1","1","1","learn","0","0","[0, 1, 2]","44","4","setsize","10S3A","food","1","1","0","1",""
"null","null","fixation","html-keyboard-response","171","343394","0.0-1.0-7.0-3.0-0.45","07:56:25","1","","","","","","","fixation","","","","","","","","","","","","","","","","","","",""
"557","1","pic_response","html-keyboard-response","172","343953","0.0-1.0-7.0-3.0-1.45","07:56:25","1","","","","","","","<div>
            <img class='stim' src=""pictures/food/0.jpg""></div><div class=""button_prompt"">
                        <b>请用数字键1-3回答</b>
                        </div>","","","","","","","","","","","","","","","","","","",""
"557","null","sub_response","html-keyboard-response","173","344955","0.0-1.0-7.0-3.0-2.45","07:56:25","1","","","","","","","<div style='text-align: center;'>
                            <span style=""color: green; font-size: 40px""><b>正确！+1 pts</b></span></div>
                            ","","learn","0","0","0","learn","0","0","[0, 1, 2]","45","4","setsize","10S3A","food","1","2","0","1",""
"null","null","fixation","html-keyboard-response","174","345456","0.0-1.0-7.0-3.0-0.46","07:56:25","1","","","","","","","fixation","","","","","","","","","","","","","","","","","","",""
"670","2","pic_response","html-keyboard-response","175","346128","0.0-1.0-7.0-3.0-1.46","07:56:25","1","","","","","","","<div>
            <img class='stim' src=""pictures/food/3.jpg""></div><div class=""button_prompt"">
                        <b>请用数字键1-3回答</b>
                        </div>","","","","","","","","","","","","","","","","","","",""
"670","null","sub_response","html-keyboard-response","176","347130","0.0-1.0-7.0-3.0-2.46","07:56:25","1","","","","","","","<div style='text-align: center;'>
                            <span style=""color: green; font-size: 40px""><b>正确！+1 pts</b></span></div>
                            ","","learn","3","3","3","learn","1","1","[0, 1, 2]","46","4","setsize","10S3A","food","1","3","1","1",""
"null","null","fixation","html-keyboard-response","177","347632","0.0-1.0-7.0-3.0-0.47","07:56:25","1","","","","","","","fixation","","","","","","","","","","","","","","","","","","",""
"1092","2","pic_response","html-keyboard-response","178","348726","0.0-1.0-7.0-3.0-1.47","07:56:25","1","","","","","","","<div>
            <img class='stim' src=""pictures/food/7.jpg""></div><div class=""button_prompt"">
                        <b>请用数字键1-3回答</b>
                        </div>","","","","","","","","","","","","","","","","","","",""
"1092","null","sub_response","html-keyboard-response","179","349727","0.0-1.0-7.0-3.0-2.47","07:56:25","1","","","","","","","<div style='text-align: center;'>
                            <span style=""color: red; font-size: 40px""><b>错误！+0 pts</b></span></div>
                            ","","learn","7","7","7","learn","2","2","[0, 1, 2]","47","4","setsize","10S3A","food","1","0","1","0",""
"null","null","fixation","html-keyboard-response","180","350229","0.0-1.0-7.0-3.0-0.48","07:56:25","1","","","","","","","fixation","","","","","","","","","","","","","","","","","","",""
"1366","2","pic_response","html-keyboard-response","181","351596","0.0-1.0-7.0-3.0-1.48","07:56:25","1","","","","","","","<div>
            <img class='stim' src=""pictures/food/5.jpg""></div><div class=""button_prompt"">
                        <b>请用数字键1-3回答</b>
                        </div>","","","","","","","","","","","","","","","","","","",""
"1366","null","sub_response","html-keyboard-response","182","352598","0.0-1.0-7.0-3.0-2.48","07:56:25","1","","","","","","","<div style='text-align: center;'>
                            <span style=""color: green; font-size: 40px""><b>正确！+1 pts</b></span></div>
                            ","","learn","5","5","5","learn","1","1","[0, 1, 2]","48","4","setsize","10S3A","food","1","1","1","1",""
"null","null","fixation","html-keyboard-response","183","353100","0.0-1.0-7.0-3.0-0.49","07:56:25","1","","","","","","","fixation","","","","","","","","","","","","","","","","","","",""
"606","3","pic_response","html-keyboard-response","184","353708","0.0-1.0-7.0-3.0-1.49","07:56:25","1","","","","","","","<div>
            <img class='stim' src=""pictures/food/9.jpg""></div><div class=""button_prompt"">
                        <b>请用数字键1-3回答</b>
                        </div>","","","","","","","","","","","","","","","","","","",""
"606","null","sub_response","html-keyboard-response","185","354710","0.0-1.0-7.0-3.0-2.49","07:56:25","1","","","","","","","<div style='text-align: center;'>
                            <span style=""color: green; font-size: 40px""><b>正确！+1 pts</b></span></div>
                            ","","learn","9","9","9","learn","2","2","[0, 1, 2]","49","4","setsize","10S3A","food","1","2","2","1",""
"null","null","fixation","html-keyboard-response","186","355213","0.0-1.0-7.0-3.0-0.50","07:56:25","1","","","","","","","fixation","","","","","","","","","","","","","","","","","","",""
"577","1","pic_response","html-keyboard-response","187","355791","0.0-1.0-7.0-3.0-1.50","07:56:25","1","","","","","","","<div>
            <img class='stim' src=""pictures/food/0.jpg""></div><div class=""button_prompt"">
                        <b>请用数字键1-3回答</b>
                        </div>","","","","","","","","","","","","","","","","","","",""
"577","null","sub_response","html-keyboard-response","188","356793","0.0-1.0-7.0-3.0-2.50","07:56:25","1","","","","","","","<div style='text-align: center;'>
                            <span style=""color: green; font-size: 40px""><b>正确！+1 pts</b></span></div>
                            ","","learn","0","0","0","learn","0","0","[0, 1, 2]","50","5","setsize","10S3A","food","1","3","0","1",""
"null","null","fixation","html-keyboard-response","189","357296","0.0-1.0-7.0-3.0-0.51","07:56:25","1","","","","","","","fixation","","","","","","","","","","","","","","","","","","",""
"633","3","pic_response","html-keyboard-response","190","357930","0.0-1.0-7.0-3.0-1.51","07:56:25","1","","","","","","","<div>
            <img class='stim' src=""pictures/food/9.jpg""></div><div class=""button_prompt"">
                        <b>请用数字键1-3回答</b>
                        </div>","","","","","","","","","","","","","","","","","","",""
"633","null","sub_response","html-keyboard-response","191","358945","0.0-1.0-7.0-3.0-2.51","07:56:25","1","","","","","","","<div style='text-align: center;'>
                            <span style=""color: green; font-size: 40px""><b>正确！+1 pts</b></span></div>
                            ","","learn","9","9","9","learn","2","2","[0, 1, 2]","51","5","setsize","10S3A","food","1","4","2","1",""
"null","null","fixation","html-keyboard-response","192","359447","0.0-1.0-7.0-3.0-0.52","07:56:25","1","","","","","","","fixation","","","","","","","","","","","","","","","","","","",""
"1081","3","pic_response","html-keyboard-response","193","360530","0.0-1.0-7.0-3.0-1.52","07:56:25","1","","","","","","","<div>
            <img class='stim' src=""pictures/food/4.jpg""></div><div class=""button_prompt"">
                        <b>请用数字键1-3回答</b>
                        </div>","","","","","","","","","","","","","","","","","","",""
"1081","null","sub_response","html-keyboard-response","194","361532","0.0-1.0-7.0-3.0-2.52","07:56:25","1","","","","","","","<div style='text-align: center;'>
                            <span style=""color: red; font-size: 40px""><b>错误！+0 pts</b></span></div>
                            ","","learn","4","4","4","learn","1","1","[0, 1, 2]","52","5","setsize","10S3A","food","1","0","2","0",""
"null","null","fixation","html-keyboard-response","195","362034","0.0-1.0-7.0-3.0-0.53","07:56:25","1","","","","","","","fixation","","","","","","","","","","","","","","","","","","",""
"959","3","pic_response","html-keyboard-response","196","362994","0.0-1.0-7.0-3.0-1.53","07:56:25","1","","","","","","","<div>
            <img class='stim' src=""pictures/food/6.jpg""></div><div class=""button_prompt"">
                        <b>请用数字键1-3回答</b>
                        </div>","","","","","","","","","","","","","","","","","","",""
"959","null","sub_response","html-keyboard-response","197","363997","0.0-1.0-7.0-3.0-2.53","07:56:25","1","","","","","","","<div style='text-align: center;'>
                            <span style=""color: green; font-size: 40px""><b>正确！+1 pts</b></span></div>
                            ","","learn","6","6","6","learn","2","2","[0, 1, 2]","53","5","setsize","10S3A","food","1","1","2","1",""
"null","null","fixation","html-keyboard-response","198","364499","0.0-1.0-7.0-3.0-0.54","07:56:25","1","","","","","","","fixation","","","","","","","","","","","","","","","","","","",""
"622","3","pic_response","html-keyboard-response","199","365123","0.0-1.0-7.0-3.0-1.54","07:56:25","1","","","","","","","<div>
            <img class='stim' src=""pictures/food/8.jpg""></div><div class=""button_prompt"">
                        <b>请用数字键1-3回答</b>
                        </div>","","","","","","","","","","","","","","","","","","",""
"622","null","sub_response","html-keyboard-response","200","366124","0.0-1.0-7.0-3.0-2.54","07:56:25","1","","","","","","","<div style='text-align: center;'>
                            <span style=""color: green; font-size: 40px""><b>正确！+1 pts</b></span></div>
                            ","","learn","8","8","8","learn","2","2","[0, 1, 2]","54","5","setsize","10S3A","food","1","2","2","1",""
"null","null","fixation","html-keyboard-response","201","366625","0.0-1.0-7.0-3.0-0.55","07:56:25","1","","","","","","","fixation","","","","","","","","","","","","","","","","","","",""
"608","1","pic_response","html-keyboard-response","202","367235","0.0-1.0-7.0-3.0-1.55","07:56:25","1","","","","","","","<div>
            <img class='stim' src=""pictures/food/1.jpg""></div><div class=""button_prompt"">
                        <b>请用数字键1-3回答</b>
                        </div>","","","","","","","","","","","","","","","","","","",""
"608","null","sub_response","html-keyboard-response","203","368237","0.0-1.0-7.0-3.0-2.55","07:56:25","1","","","","","","","<div style='text-align: center;'>
                            <span style=""color: green; font-size: 40px""><b>正确！+1 pts</b></span></div>
                            ","","learn","1","1","1","learn","0","0","[0, 1, 2]","55","5","setsize","10S3A","food","1","3","0","1",""
"null","null","fixation","html-keyboard-response","204","368739","0.0-1.0-7.0-3.0-0.56","07:56:25","1","","","","","","","fixation","","","","","","","","","","","","","","","","","","",""
"1156","2","pic_response","html-keyboard-response","205","369896","0.0-1.0-7.0-3.0-1.56","07:56:25","1","","","","","","","<div>
            <img class='stim' src=""pictures/food/5.jpg""></div><div class=""button_prompt"">
                        <b>请用数字键1-3回答</b>
                        </div>","","","","","","","","","","","","","","","","","","",""
"1156","null","sub_response","html-keyboard-response","206","370898","0.0-1.0-7.0-3.0-2.56","07:56:25","1","","","","","","","<div style='text-align: center;'>
                            <span style=""color: green; font-size: 40px""><b>正确！+1 pts</b></span></div>
                            ","","learn","5","5","5","learn","1","1","[0, 1, 2]","56","5","setsize","10S3A","food","1","4","1","1",""
"null","null","fixation","html-keyboard-response","207","371401","0.0-1.0-7.0-3.0-0.57","07:56:25","1","","","","","","","fixation","","","","","","","","","","","","","","","","","","",""
"824","1","pic_response","html-keyboard-response","208","372226","0.0-1.0-7.0-3.0-1.57","07:56:25","1","","","","","","","<div>
            <img class='stim' src=""pictures/food/2.jpg""></div><div class=""button_prompt"">
                        <b>请用数字键1-3回答</b>
                        </div>","","","","","","","","","","","","","","","","","","",""
"824","null","sub_response","html-keyboard-response","209","373228","0.0-1.0-7.0-3.0-2.57","07:56:25","1","","","","","","","<div style='text-align: center;'>
                            <span style=""color: green; font-size: 40px""><b>正确！+1 pts</b></span></div>
                            ","","learn","2","2","2","learn","0","0","[0, 1, 2]","57","5","setsize","10S3A","food","1","5","0","1",""
"null","null","fixation","html-keyboard-response","210","373730","0.0-1.0-7.0-3.0-0.58","07:56:25","1","","","","","","","fixation","","","","","","","","","","","","","","","","","","",""
"709","2","pic_response","html-keyboard-response","211","374440","0.0-1.0-7.0-3.0-1.58","07:56:25","1","","","","","","","<div>
            <img class='stim' src=""pictures/food/3.jpg""></div><div class=""button_prompt"">
                        <b>请用数字键1-3回答</b>
                        </div>","","","","","","","","","","","","","","","","","","",""
"709","null","sub_response","html-keyboard-response","212","375442","0.0-1.0-7.0-3.0-2.58","07:56:25","1","","","","","","","<div style='text-align: center;'>
                            <span style=""color: green; font-size: 40px""><b>正确！+1 pts</b></span></div>
                            ","","learn","3","3","3","learn","1","1","[0, 1, 2]","58","5","setsize","10S3A","food","1","6","1","1",""
"null","null","fixation","html-keyboard-response","213","375943","0.0-1.0-7.0-3.0-0.59","07:56:25","1","","","","","","","fixation","","","","","","","","","","","","","","","","","","",""
"776","1","pic_response","html-keyboard-response","214","376720","0.0-1.0-7.0-3.0-1.59","07:56:25","1","","","","","","","<div>
            <img class='stim' src=""pictures/food/7.jpg""></div><div class=""button_prompt"">
                        <b>请用数字键1-3回答</b>
                        </div>","","","","","","","","","","","","","","","","","","",""
"776","null","sub_response","html-keyboard-response","215","377723","0.0-1.0-7.0-3.0-2.59","07:56:25","1","","","","","","","<div style='text-align: center;'>
                            <span style=""color: red; font-size: 40px""><b>错误！+0 pts</b></span></div>
                            ","","learn","7","7","7","learn","2","2","[0, 1, 2]","59","5","setsize","10S3A","food","1","0","0","0",""
"null","null","fixation","html-keyboard-response","216","378225","0.0-1.0-7.0-3.0-0.60","07:56:25","1","","","","","","","fixation","","","","","","","","","","","","","","","","","","",""
"805","3","pic_response","html-keyboard-response","217","379031","0.0-1.0-7.0-3.0-1.60","07:56:25","1","","","","","","","<div>
            <img class='stim' src=""pictures/food/7.jpg""></div><div class=""button_prompt"">
                        <b>请用数字键1-3回答</b>
                        </div>","","","","","","","","","","","","","","","","","","",""
"805","null","sub_response","html-keyboard-response","218","380033","0.0-1.0-7.0-3.0-2.60","07:56:25","1","","","","","","","<div style='text-align: center;'>
                            <span style=""color: green; font-size: 40px""><b>正确！+1 pts</b></span></div>
                            ","","learn","7","7","7","learn","2","2","[0, 1, 2]","60","6","setsize","10S3A","food","1","1","2","1",""
"null","null","fixation","html-keyboard-response","219","380536","0.0-1.0-7.0-3.0-0.61","07:56:25","1","","","","","","","fixation","","","","","","","","","","","","","","","","","","",""
"678","3","pic_response","html-keyboard-response","220","381215","0.0-1.0-7.0-3.0-1.61","07:56:25","1","","","","","","","<div>
            <img class='stim' src=""pictures/food/8.jpg""></div><div class=""button_prompt"">
                        <b>请用数字键1-3回答</b>
                        </div>","","","","","","","","","","","","","","","","","","",""
"678","null","sub_response","html-keyboard-response","221","382217","0.0-1.0-7.0-3.0-2.61","07:56:25","1","","","","","","","<div style='text-align: center;'>
                            <span style=""color: green; font-size: 40px""><b>正确！+1 pts</b></span></div>
                            ","","learn","8","8","8","learn","2","2","[0, 1, 2]","61","6","setsize","10S3A","food","1","2","2","1",""
"null","null","fixation","html-keyboard-response","222","382719","0.0-1.0-7.0-3.0-0.62","07:56:25","1","","","","","","","fixation","","","","","","","","","","","","","","","","","","",""
"924","2","pic_response","html-keyboard-response","223","383644","0.0-1.0-7.0-3.0-1.62","07:56:25","1","","","","","","","<div>
            <img class='stim' src=""pictures/food/5.jpg""></div><div class=""button_prompt"">
                        <b>请用数字键1-3回答</b>
                        </div>","","","","","","","","","","","","","","","","","","",""
"924","null","sub_response","html-keyboard-response","224","384645","0.0-1.0-7.0-3.0-2.62","07:56:25","1","","","","","","","<div style='text-align: center;'>
                            <span style=""color: green; font-size: 40px""><b>正确！+1 pts</b></span></div>
                            ","","learn","5","5","5","learn","1","1","[0, 1, 2]","62","6","setsize","10S3A","food","1","3","1","1",""
"null","null","fixation","html-keyboard-response","225","385148","0.0-1.0-7.0-3.0-0.63","07:56:25","1","","","","","","","fixation","","","","","","","","","","","","","","","","","","",""
"566","3","pic_response","html-keyboard-response","226","385715","0.0-1.0-7.0-3.0-1.63","07:56:25","1","","","","","","","<div>
            <img class='stim' src=""pictures/food/9.jpg""></div><div class=""button_prompt"">
                        <b>请用数字键1-3回答</b>
                        </div>","","","","","","","","","","","","","","","","","","",""
"566","null","sub_response","html-keyboard-response","227","386718","0.0-1.0-7.0-3.0-2.63","07:56:25","1","","","","","","","<div style='text-align: center;'>
                            <span style=""color: green; font-size: 40px""><b>正确！+1 pts</b></span></div>
                            ","","learn","9","9","9","learn","2","2","[0, 1, 2]","63","6","setsize","10S3A","food","1","4","2","1",""
"null","null","fixation","html-keyboard-response","228","387220","0.0-1.0-7.0-3.0-0.64","07:56:25","1","","","","","","","fixation","","","","","","","","","","","","","","","","","","",""
"649","1","pic_response","html-keyboard-response","229","387871","0.0-1.0-7.0-3.0-1.64","07:56:25","1","","","","","","","<div>
            <img class='stim' src=""pictures/food/1.jpg""></div><div class=""button_prompt"">
                        <b>请用数字键1-3回答</b>
                        </div>","","","","","","","","","","","","","","","","","","",""
"649","null","sub_response","html-keyboard-response","230","388873","0.0-1.0-7.0-3.0-2.64","07:56:25","1","","","","","","","<div style='text-align: center;'>
                            <span style=""color: green; font-size: 40px""><b>正确！+1 pts</b></span></div>
                            ","","learn","1","1","1","learn","0","0","[0, 1, 2]","64","6","setsize","10S3A","food","1","5","0","1",""
"null","null","fixation","html-keyboard-response","231","389375","0.0-1.0-7.0-3.0-0.65","07:56:25","1","","","","","","","fixation","","","","","","","","","","","","","","","","","","",""
"700","3","pic_response","html-keyboard-response","232","390076","0.0-1.0-7.0-3.0-1.65","07:56:25","1","","","","","","","<div>
            <img class='stim' src=""pictures/food/6.jpg""></div><div class=""button_prompt"">
                        <b>请用数字键1-3回答</b>
                        </div>","","","","","","","","","","","","","","","","","","",""
"700","null","sub_response","html-keyboard-response","233","391078","0.0-1.0-7.0-3.0-2.65","07:56:25","1","","","","","","","<div style='text-align: center;'>
                            <span style=""color: green; font-size: 40px""><b>正确！+1 pts</b></span></div>
                            ","","learn","6","6","6","learn","2","2","[0, 1, 2]","65","6","setsize","10S3A","food","1","6","2","1",""
"null","null","fixation","html-keyboard-response","234","391580","0.0-1.0-7.0-3.0-0.66","07:56:25","1","","","","","","","fixation","","","","","","","","","","","","","","","","","","",""
"733","1","pic_response","html-keyboard-response","235","392315","0.0-1.0-7.0-3.0-1.66","07:56:25","1","","","","","","","<div>
            <img class='stim' src=""pictures/food/2.jpg""></div><div class=""button_prompt"">
                        <b>请用数字键1-3回答</b>
                        </div>","","","","","","","","","","","","","","","","","","",""
"733","null","sub_response","html-keyboard-response","236","393317","0.0-1.0-7.0-3.0-2.66","07:56:25","1","","","","","","","<div style='text-align: center;'>
                            <span style=""color: green; font-size: 40px""><b>正确！+1 pts</b></span></div>
                            ","","learn","2","2","2","learn","0","0","[0, 1, 2]","66","6","setsize","10S3A","food","1","7","0","1",""
"null","null","fixation","html-keyboard-response","237","393819","0.0-1.0-7.0-3.0-0.67","07:56:25","1","","","","","","","fixation","","","","","","","","","","","","","","","","","","",""
"546","1","pic_response","html-keyboard-response","238","394367","0.0-1.0-7.0-3.0-1.67","07:56:25","1","","","","","","","<div>
            <img class='stim' src=""pictures/food/0.jpg""></div><div class=""button_prompt"">
                        <b>请用数字键1-3回答</b>
                        </div>","","","","","","","","","","","","","","","","","","",""
"546","null","sub_response","html-keyboard-response","239","395369","0.0-1.0-7.0-3.0-2.67","07:56:25","1","","","","","","","<div style='text-align: center;'>
                            <span style=""color: green; font-size: 40px""><b>正确！+1 pts</b></span></div>
                            ","","learn","0","0","0","learn","0","0","[0, 1, 2]","67","6","setsize","10S3A","food","1","8","0","1",""
"null","null","fixation","html-keyboard-response","240","395871","0.0-1.0-7.0-3.0-0.68","07:56:25","1","","","","","","","fixation","","","","","","","","","","","","","","","","","","",""
"874","3","pic_response","html-keyboard-response","241","396747","0.0-1.0-7.0-3.0-1.68","07:56:25","1","","","","","","","<div>
            <img class='stim' src=""pictures/food/4.jpg""></div><div class=""button_prompt"">
                        <b>请用数字键1-3回答</b>
                        </div>","","","","","","","","","","","","","","","","","","",""
"874","null","sub_response","html-keyboard-response","242","397748","0.0-1.0-7.0-3.0-2.68","07:56:25","1","","","","","","","<div style='text-align: center;'>
                            <span style=""color: red; font-size: 40px""><b>错误！+0 pts</b></span></div>
                            ","","learn","4","4","4","learn","1","1","[0, 1, 2]","68","6","setsize","10S3A","food","1","0","2","0",""
"null","null","fixation","html-keyboard-response","243","398254","0.0-1.0-7.0-3.0-0.69","07:56:25","1","","","","","","","fixation","","","","","","","","","","","","","","","","","","",""
"1010","2","pic_response","html-keyboard-response","244","399265","0.0-1.0-7.0-3.0-1.69","07:56:25","1","","","","","","","<div>
            <img class='stim' src=""pictures/food/3.jpg""></div><div class=""button_prompt"">
                        <b>请用数字键1-3回答</b>
                        </div>","","","","","","","","","","","","","","","","","","",""
"1010","null","sub_response","html-keyboard-response","245","400271","0.0-1.0-7.0-3.0-2.69","07:56:25","1","","","","","","","<div style='text-align: center;'>
                            <span style=""color: green; font-size: 40px""><b>正确！+1 pts</b></span></div>
                            ","","learn","3","3","3","learn","1","1","[0, 1, 2]","69","6","setsize","10S3A","food","1","1","1","1",""
"null","null","fixation","html-keyboard-response","246","400773","0.0-1.0-7.0-3.0-0.70","07:56:25","1","","","","","","","fixation","","","","","","","","","","","","","","","","","","",""
"620","1","pic_response","html-keyboard-response","247","401395","0.0-1.0-7.0-3.0-1.70","07:56:25","1","","","","","","","<div>
            <img class='stim' src=""pictures/food/1.jpg""></div><div class=""button_prompt"">
                        <b>请用数字键1-3回答</b>
                        </div>","","","","","","","","","","","","","","","","","","",""
"620","null","sub_response","html-keyboard-response","248","402397","0.0-1.0-7.0-3.0-2.70","07:56:25","1","","","","","","","<div style='text-align: center;'>
                            <span style=""color: green; font-size: 40px""><b>正确！+1 pts</b></span></div>
                            ","","learn","1","1","1","learn","0","0","[0, 1, 2]","70","7","setsize","10S3A","food","1","2","0","1",""
"null","null","fixation","html-keyboard-response","249","402899","0.0-1.0-7.0-3.0-0.71","07:56:25","1","","","","","","","fixation","","","","","","","","","","","","","","","","","","",""
"713","3","pic_response","html-keyboard-response","250","403613","0.0-1.0-7.0-3.0-1.71","07:56:25","1","","","","","","","<div>
            <img class='stim' src=""pictures/food/6.jpg""></div><div class=""button_prompt"">
                        <b>请用数字键1-3回答</b>
                        </div>","","","","","","","","","","","","","","","","","","",""
"713","null","sub_response","html-keyboard-response","251","404615","0.0-1.0-7.0-3.0-2.71","07:56:25","1","","","","","","","<div style='text-align: center;'>
                            <span style=""color: green; font-size: 40px""><b>正确！+1 pts</b></span></div>
                            ","","learn","6","6","6","learn","2","2","[0, 1, 2]","71","7","setsize","10S3A","food","1","3","2","1",""
"null","null","fixation","html-keyboard-response","252","405117","0.0-1.0-7.0-3.0-0.72","07:56:25","1","","","","","","","fixation","","","","","","","","","","","","","","","","","","",""
"1417","3","pic_response","html-keyboard-response","253","406536","0.0-1.0-7.0-3.0-1.72","07:56:25","1","","","","","","","<div>
            <img class='stim' src=""pictures/food/4.jpg""></div><div class=""button_prompt"">
                        <b>请用数字键1-3回答</b>
                        </div>","","","","","","","","","","","","","","","","","","",""
"1417","null","sub_response","html-keyboard-response","254","407538","0.0-1.0-7.0-3.0-2.72","07:56:25","1","","","","","","","<div style='text-align: center;'>
                            <span style=""color: red; font-size: 40px""><b>错误！+0 pts</b></span></div>
                            ","","learn","4","4","4","learn","1","1","[0, 1, 2]","72","7","setsize","10S3A","food","1","0","2","0",""
"null","null","fixation","html-keyboard-response","255","408039","0.0-1.0-7.0-3.0-0.73","07:56:25","1","","","","","","","fixation","","","","","","","","","","","","","","","","","","",""
"639","3","pic_response","html-keyboard-response","256","408679","0.0-1.0-7.0-3.0-1.73","07:56:25","1","","","","","","","<div>
            <img class='stim' src=""pictures/food/7.jpg""></div><div class=""button_prompt"">
                        <b>请用数字键1-3回答</b>
                        </div>","","","","","","","","","","","","","","","","","","",""
"639","null","sub_response","html-keyboard-response","257","409681","0.0-1.0-7.0-3.0-2.73","07:56:25","1","","","","","","","<div style='text-align: center;'>
                            <span style=""color: green; font-size: 40px""><b>正确！+1 pts</b></span></div>
                            ","","learn","7","7","7","learn","2","2","[0, 1, 2]","73","7","setsize","10S3A","food","1","1","2","1",""
"null","null","fixation","html-keyboard-response","258","410183","0.0-1.0-7.0-3.0-0.74","07:56:25","1","","","","","","","fixation","","","","","","","","","","","","","","","","","","",""
"694","1","pic_response","html-keyboard-response","259","410878","0.0-1.0-7.0-3.0-1.74","07:56:25","1","","","","","","","<div>
            <img class='stim' src=""pictures/food/2.jpg""></div><div class=""button_prompt"">
                        <b>请用数字键1-3回答</b>
                        </div>","","","","","","","","","","","","","","","","","","",""
"694","null","sub_response","html-keyboard-response","260","411881","0.0-1.0-7.0-3.0-2.74","07:56:25","1","","","","","","","<div style='text-align: center;'>
                            <span style=""color: green; font-size: 40px""><b>正确！+1 pts</b></span></div>
                            ","","learn","2","2","2","learn","0","0","[0, 1, 2]","74","7","setsize","10S3A","food","1","2","0","1",""
"null","null","fixation","html-keyboard-response","261","412382","0.0-1.0-7.0-3.0-0.75","07:56:25","1","","","","","","","fixation","","","","","","","","","","","","","","","","","","",""
"530","3","pic_response","html-keyboard-response","262","412914","0.0-1.0-7.0-3.0-1.75","07:56:25","1","","","","","","","<div>
            <img class='stim' src=""pictures/food/9.jpg""></div><div class=""button_prompt"">
                        <b>请用数字键1-3回答</b>
                        </div>","","","","","","","","","","","","","","","","","","",""
"530","null","sub_response","html-keyboard-response","263","413915","0.0-1.0-7.0-3.0-2.75","07:56:25","1","","","","","","","<div style='text-align: center;'>
                            <span style=""color: green; font-size: 40px""><b>正确！+1 pts</b></span></div>
                            ","","learn","9","9","9","learn","2","2","[0, 1, 2]","75","7","setsize","10S3A","food","1","3","2","1",""
"null","null","fixation","html-keyboard-response","264","414418","0.0-1.0-7.0-3.0-0.76","07:56:25","1","","","","","","","fixation","","","","","","","","","","","","","","","","","","",""
"828","2","pic_response","html-keyboard-response","265","415247","0.0-1.0-7.0-3.0-1.76","07:56:25","1","","","","","","","<div>
            <img class='stim' src=""pictures/food/5.jpg""></div><div class=""button_prompt"">
                        <b>请用数字键1-3回答</b>
                        </div>","","","","","","","","","","","","","","","","","","",""
"828","null","sub_response","html-keyboard-response","266","416250","0.0-1.0-7.0-3.0-2.76","07:56:25","1","","","","","","","<div style='text-align: center;'>
                            <span style=""color: green; font-size: 40px""><b>正确！+1 pts</b></span></div>
                            ","","learn","5","5","5","learn","1","1","[0, 1, 2]","76","7","setsize","10S3A","food","1","4","1","1",""
"null","null","fixation","html-keyboard-response","267","416753","0.0-1.0-7.0-3.0-0.77","07:56:25","1","","","","","","","fixation","","","","","","","","","","","","","","","","","","",""
"2231","1","pic_response","html-keyboard-response","268","418985","0.0-1.0-7.0-3.0-1.77","07:56:25","1","","","","","","","<div>
            <img class='stim' src=""pictures/food/3.jpg""></div><div class=""button_prompt"">
                        <b>请用数字键1-3回答</b>
                        </div>","","","","","","","","","","","","","","","","","","",""
"2231","null","sub_response","html-keyboard-response","269","419987","0.0-1.0-7.0-3.0-2.77","07:56:25","1","","","","","","","<div style='text-align: center;'>
                            <span style=""color: red; font-size: 40px""><b>错误！+0 pts</b></span></div>
                            ","","learn","3","3","3","learn","1","1","[0, 1, 2]","77","7","setsize","10S3A","food","1","0","0","0",""
"null","null","fixation","html-keyboard-response","270","420490","0.0-1.0-7.0-3.0-0.78","07:56:25","1","","","","","","","fixation","","","","","","","","","","","","","","","","","","",""
"634","3","pic_response","html-keyboard-response","271","421125","0.0-1.0-7.0-3.0-1.78","07:56:25","1","","","","","","","<div>
            <img class='stim' src=""pictures/food/8.jpg""></div><div class=""button_prompt"">
                        <b>请用数字键1-3回答</b>
                        </div>","","","","","","","","","","","","","","","","","","",""
"634","null","sub_response","html-keyboard-response","272","422127","0.0-1.0-7.0-3.0-2.78","07:56:25","1","","","","","","","<div style='text-align: center;'>
                            <span style=""color: green; font-size: 40px""><b>正确！+1 pts</b></span></div>
                            ","","learn","8","8","8","learn","2","2","[0, 1, 2]","78","7","setsize","10S3A","food","1","1","2","1",""
"null","null","fixation","html-keyboard-response","273","422630","0.0-1.0-7.0-3.0-0.79","07:56:25","1","","","","","","","fixation","","","","","","","","","","","","","","","","","","",""
"522","1","pic_response","html-keyboard-response","274","423153","0.0-1.0-7.0-3.0-1.79","07:56:25","1","","","","","","","<div>
            <img class='stim' src=""pictures/food/0.jpg""></div><div class=""button_prompt"">
                        <b>请用数字键1-3回答</b>
                        </div>","","","","","","","","","","","","","","","","","","",""
"522","null","sub_response","html-keyboard-response","275","424156","0.0-1.0-7.0-3.0-2.79","07:56:25","1","","","","","","","<div style='text-align: center;'>
                            <span style=""color: green; font-size: 40px""><b>正确！+1 pts</b></span></div>
                            ","","learn","0","0","0","learn","0","0","[0, 1, 2]","79","7","setsize","10S3A","food","1","2","0","1",""
"null","null","fixation","html-keyboard-response","276","424657","0.0-1.0-7.0-3.0-0.80","07:56:25","1","","","","","","","fixation","","","","","","","","","","","","","","","","","","",""
"685","1","pic_response","html-keyboard-response","277","425344","0.0-1.0-7.0-3.0-1.80","07:56:25","1","","","","","","","<div>
            <img class='stim' src=""pictures/food/2.jpg""></div><div class=""button_prompt"">
                        <b>请用数字键1-3回答</b>
                        </div>","","","","","","","","","","","","","","","","","","",""
"685","null","sub_response","html-keyboard-response","278","426356","0.0-1.0-7.0-3.0-2.80","07:56:25","1","","","","","","","<div style='text-align: center;'>
                            <span style=""color: green; font-size: 40px""><b>正确！+1 pts</b></span></div>
                            ","","learn","2","2","2","learn","0","0","[0, 1, 2]","80","8","setsize","10S3A","food","1","3","0","1",""
"null","null","fixation","html-keyboard-response","279","426858","0.0-1.0-7.0-3.0-0.81","07:56:25","1","","","","","","","fixation","","","","","","","","","","","","","","","","","","",""
"986","3","pic_response","html-keyboard-response","280","427845","0.0-1.0-7.0-3.0-1.81","07:56:25","1","","","","","","","<div>
            <img class='stim' src=""pictures/food/8.jpg""></div><div class=""button_prompt"">
                        <b>请用数字键1-3回答</b>
                        </div>","","","","","","","","","","","","","","","","","","",""
"986","null","sub_response","html-keyboard-response","281","428848","0.0-1.0-7.0-3.0-2.81","07:56:25","1","","","","","","","<div style='text-align: center;'>
                            <span style=""color: green; font-size: 40px""><b>正确！+1 pts</b></span></div>
                            ","","learn","8","8","8","learn","2","2","[0, 1, 2]","81","8","setsize","10S3A","food","1","4","2","1",""
"null","null","fixation","html-keyboard-response","282","429350","0.0-1.0-7.0-3.0-0.82","07:56:25","1","","","","","","","fixation","","","","","","","","","","","","","","","","","","",""
"633","3","pic_response","html-keyboard-response","283","429985","0.0-1.0-7.0-3.0-1.82","07:56:25","1","","","","","","","<div>
            <img class='stim' src=""pictures/food/9.jpg""></div><div class=""button_prompt"">
                        <b>请用数字键1-3回答</b>
                        </div>","","","","","","","","","","","","","","","","","","",""
"633","null","sub_response","html-keyboard-response","284","430987","0.0-1.0-7.0-3.0-2.82","07:56:25","1","","","","","","","<div style='text-align: center;'>
                            <span style=""color: green; font-size: 40px""><b>正确！+1 pts</b></span></div>
                            ","","learn","9","9","9","learn","2","2","[0, 1, 2]","82","8","setsize","10S3A","food","1","5","2","1",""
"null","null","fixation","html-keyboard-response","285","431490","0.0-1.0-7.0-3.0-0.83","07:56:25","1","","","","","","","fixation","","","","","","","","","","","","","","","","","","",""
"728","2","pic_response","html-keyboard-response","286","432219","0.0-1.0-7.0-3.0-1.83","07:56:25","1","","","","","","","<div>
            <img class='stim' src=""pictures/food/3.jpg""></div><div class=""button_prompt"">
                        <b>请用数字键1-3回答</b>
                        </div>","","","","","","","","","","","","","","","","","","",""
"728","null","sub_response","html-keyboard-response","287","433232","0.0-1.0-7.0-3.0-2.83","07:56:25","1","","","","","","","<div style='text-align: center;'>
                            <span style=""color: green; font-size: 40px""><b>正确！+1 pts</b></span></div>
                            ","","learn","3","3","3","learn","1","1","[0, 1, 2]","83","8","setsize","10S3A","food","1","6","1","1",""
"null","null","fixation","html-keyboard-response","288","433734","0.0-1.0-7.0-3.0-0.84","07:56:25","1","","","","","","","fixation","","","","","","","","","","","","","","","","","","",""
"1061","3","pic_response","html-keyboard-response","289","434797","0.0-1.0-7.0-3.0-1.84","07:56:25","1","","","","","","","<div>
            <img class='stim' src=""pictures/food/6.jpg""></div><div class=""button_prompt"">
                        <b>请用数字键1-3回答</b>
                        </div>","","","","","","","","","","","","","","","","","","",""
"1061","null","sub_response","html-keyboard-response","290","435799","0.0-1.0-7.0-3.0-2.84","07:56:25","1","","","","","","","<div style='text-align: center;'>
                            <span style=""color: green; font-size: 40px""><b>正确！+1 pts</b></span></div>
                            ","","learn","6","6","6","learn","2","2","[0, 1, 2]","84","8","setsize","10S3A","food","1","7","2","1",""
"null","null","fixation","html-keyboard-response","291","436300","0.0-1.0-7.0-3.0-0.85","07:56:25","1","","","","","","","fixation","","","","","","","","","","","","","","","","","","",""
"1635","2","pic_response","html-keyboard-response","292","437937","0.0-1.0-7.0-3.0-1.85","07:56:25","1","","","","","","","<div>
            <img class='stim' src=""pictures/food/7.jpg""></div><div class=""button_prompt"">
                        <b>请用数字键1-3回答</b>
                        </div>","","","","","","","","","","","","","","","","","","",""
"1635","null","sub_response","html-keyboard-response","293","438939","0.0-1.0-7.0-3.0-2.85","07:56:25","1","","","","","","","<div style='text-align: center;'>
                            <span style=""color: red; font-size: 40px""><b>错误！+0 pts</b></span></div>
                            ","","learn","7","7","7","learn","2","2","[0, 1, 2]","85","8","setsize","10S3A","food","1","0","1","0",""
"null","null","fixation","html-keyboard-response","294","439442","0.0-1.0-7.0-3.0-0.86","07:56:25","1","","","","","","","fixation","","","","","","","","","","","","","","","","","","",""
"628","1","pic_response","html-keyboard-response","295","440071","0.0-1.0-7.0-3.0-1.86","07:56:25","1","","","","","","","<div>
            <img class='stim' src=""pictures/food/1.jpg""></div><div class=""button_prompt"">
                        <b>请用数字键1-3回答</b>
                        </div>","","","","","","","","","","","","","","","","","","",""
"628","null","sub_response","html-keyboard-response","296","441086","0.0-1.0-7.0-3.0-2.86","07:56:25","1","","","","","","","<div style='text-align: center;'>
                            <span style=""color: green; font-size: 40px""><b>正确！+1 pts</b></span></div>
                            ","","learn","1","1","1","learn","0","0","[0, 1, 2]","86","8","setsize","10S3A","food","1","1","0","1",""
"null","null","fixation","html-keyboard-response","297","441588","0.0-1.0-7.0-3.0-0.87","07:56:25","1","","","","","","","fixation","","","","","","","","","","","","","","","","","","",""
"762","2","pic_response","html-keyboard-response","298","442351","0.0-1.0-7.0-3.0-1.87","07:56:25","1","","","","","","","<div>
            <img class='stim' src=""pictures/food/5.jpg""></div><div class=""button_prompt"">
                        <b>请用数字键1-3回答</b>
                        </div>","","","","","","","","","","","","","","","","","","",""
"762","null","sub_response","html-keyboard-response","299","443355","0.0-1.0-7.0-3.0-2.87","07:56:25","1","","","","","","","<div style='text-align: center;'>
                            <span style=""color: green; font-size: 40px""><b>正确！+1 pts</b></span></div>
                            ","","learn","5","5","5","learn","1","1","[0, 1, 2]","87","8","setsize","10S3A","food","1","2","1","1",""
"null","null","fixation","html-keyboard-response","300","443857","0.0-1.0-7.0-3.0-0.88","07:56:25","1","","","","","","","fixation","","","","","","","","","","","","","","","","","","",""
"1645","1","pic_response","html-keyboard-response","301","445503","0.0-1.0-7.0-3.0-1.88","07:56:25","1","","","","","","","<div>
            <img class='stim' src=""pictures/food/4.jpg""></div><div class=""button_prompt"">
                        <b>请用数字键1-3回答</b>
                        </div>","","","","","","","","","","","","","","","","","","",""
"1645","null","sub_response","html-keyboard-response","302","446505","0.0-1.0-7.0-3.0-2.88","07:56:25","1","","","","","","","<div style='text-align: center;'>
                            <span style=""color: red; font-size: 40px""><b>错误！+0 pts</b></span></div>
                            ","","learn","4","4","4","learn","1","1","[0, 1, 2]","88","8","setsize","10S3A","food","1","0","0","0",""
"null","null","fixation","html-keyboard-response","303","447007","0.0-1.0-7.0-3.0-0.89","07:56:25","1","","","","","","","fixation","","","","","","","","","","","","","","","","","","",""
"594","1","pic_response","html-keyboard-response","304","447603","0.0-1.0-7.0-3.0-1.89","07:56:25","1","","","","","","","<div>
            <img class='stim' src=""pictures/food/0.jpg""></div><div class=""button_prompt"">
                        <b>请用数字键1-3回答</b>
                        </div>","","","","","","","","","","","","","","","","","","",""
"594","null","sub_response","html-keyboard-response","305","448605","0.0-1.0-7.0-3.0-2.89","07:56:25","1","","","","","","","<div style='text-align: center;'>
                            <span style=""color: green; font-size: 40px""><b>正确！+1 pts</b></span></div>
                            ","","learn","0","0","0","learn","0","0","[0, 1, 2]","89","8","setsize","10S3A","food","1","1","0","1",""
"null","null","fixation","html-keyboard-response","306","449107","0.0-1.0-7.0-3.0-0.90","07:56:25","1","","","","","","","fixation","","","","","","","","","","","","","","","","","","",""
"828","3","pic_response","html-keyboard-response","307","449937","0.0-1.0-7.0-3.0-1.90","07:56:25","1","","","","","","","<div>
            <img class='stim' src=""pictures/food/6.jpg""></div><div class=""button_prompt"">
                        <b>请用数字键1-3回答</b>
                        </div>","","","","","","","","","","","","","","","","","","",""
"828","null","sub_response","html-keyboard-response","308","450940","0.0-1.0-7.0-3.0-2.90","07:56:25","1","","","","","","","<div style='text-align: center;'>
                            <span style=""color: green; font-size: 40px""><b>正确！+1 pts</b></span></div>
                            ","","learn","6","6","6","learn","2","2","[0, 1, 2]","90","9","setsize","10S3A","food","1","2","2","1",""
"null","null","fixation","html-keyboard-response","309","451442","0.0-1.0-7.0-3.0-0.91","07:56:25","1","","","","","","","fixation","","","","","","","","","","","","","","","","","","",""
"929","3","pic_response","html-keyboard-response","310","452374","0.0-1.0-7.0-3.0-1.91","07:56:25","1","","","","","","","<div>
            <img class='stim' src=""pictures/food/7.jpg""></div><div class=""button_prompt"">
                        <b>请用数字键1-3回答</b>
                        </div>","","","","","","","","","","","","","","","","","","",""
"929","null","sub_response","html-keyboard-response","311","453387","0.0-1.0-7.0-3.0-2.91","07:56:25","1","","","","","","","<div style='text-align: center;'>
                            <span style=""color: green; font-size: 40px""><b>正确！+1 pts</b></span></div>
                            ","","learn","7","7","7","learn","2","2","[0, 1, 2]","91","9","setsize","10S3A","food","1","3","2","1",""
"null","null","fixation","html-keyboard-response","312","453889","0.0-1.0-7.0-3.0-0.92","07:56:25","1","","","","","","","fixation","","","","","","","","","","","","","","","","","","",""
"575","3","pic_response","html-keyboard-response","313","454466","0.0-1.0-7.0-3.0-1.92","07:56:25","1","","","","","","","<div>
            <img class='stim' src=""pictures/food/8.jpg""></div><div class=""button_prompt"">
                        <b>请用数字键1-3回答</b>
                        </div>","","","","","","","","","","","","","","","","","","",""
"575","null","sub_response","html-keyboard-response","314","455468","0.0-1.0-7.0-3.0-2.92","07:56:25","1","","","","","","","<div style='text-align: center;'>
                            <span style=""color: green; font-size: 40px""><b>正确！+1 pts</b></span></div>
                            ","","learn","8","8","8","learn","2","2","[0, 1, 2]","92","9","setsize","10S3A","food","1","4","2","1",""
"null","null","fixation","html-keyboard-response","315","455969","0.0-1.0-7.0-3.0-0.93","07:56:25","1","","","","","","","fixation","","","","","","","","","","","","","","","","","","",""
"614","1","pic_response","html-keyboard-response","316","456585","0.0-1.0-7.0-3.0-1.93","07:56:25","1","","","","","","","<div>
            <img class='stim' src=""pictures/food/1.jpg""></div><div class=""button_prompt"">
                        <b>请用数字键1-3回答</b>
                        </div>","","","","","","","","","","","","","","","","","","",""
"614","null","sub_response","html-keyboard-response","317","457588","0.0-1.0-7.0-3.0-2.93","07:56:25","1","","","","","","","<div style='text-align: center;'>
                            <span style=""color: green; font-size: 40px""><b>正确！+1 pts</b></span></div>
                            ","","learn","1","1","1","learn","0","0","[0, 1, 2]","93","9","setsize","10S3A","food","1","5","0","1",""
"null","null","fixation","html-keyboard-response","318","458090","0.0-1.0-7.0-3.0-0.94","07:56:25","1","","","","","","","fixation","","","","","","","","","","","","","","","","","","",""
"766","1","pic_response","html-keyboard-response","319","458857","0.0-1.0-7.0-3.0-1.94","07:56:25","1","","","","","","","<div>
            <img class='stim' src=""pictures/food/2.jpg""></div><div class=""button_prompt"">
                        <b>请用数字键1-3回答</b>
                        </div>","","","","","","","","","","","","","","","","","","",""
"766","null","sub_response","html-keyboard-response","320","459859","0.0-1.0-7.0-3.0-2.94","07:56:25","1","","","","","","","<div style='text-align: center;'>
                            <span style=""color: green; font-size: 40px""><b>正确！+1 pts</b></span></div>
                            ","","learn","2","2","2","learn","0","0","[0, 1, 2]","94","9","setsize","10S3A","food","1","6","0","1",""
