"rt","response","screen_id","trial_type","trial_index","time_elapsed","internal_node_id","start_time","n_Prac","success","timeout","failed_images","failed_audio","failed_video","view_history","stimulus","question_order","stage","s","word","word_id","phase","a_cor","a_real","a_ava","trial","tps","task_type","block_typ","pic_typ","block_id","cum_r","a","r","plugin_name"
"40699","{""sub_id"":""1"",""task_type"":""task1"",""name"":""姬祥飞"",""gender"":""F""}","basic_info","survey-html-form","0","40700","0.0-0.0","17:41:09","4","","","","","","","","","","","","","","","","","","","","","","","","","",""
"","","","preload","1","42078","0.0-1.0-0.0","17:41:09","4","true","false","[]","[]","[]","","","","","","","","","","","","","","","","","","","","",""
"","","","preload","2","42336","0.0-1.0-1.0","17:41:09","4","true","false","[]","[]","[]","","","","","","","","","","","","","","","","","","","","",""
"","","","fullscreen","3","47749","0.0-1.0-2.0","17:41:09","4","true","","","","","","","","","","","","","","","","","","","","","","","","",""
"51930","","instruct","instructions","4","99680","0.0-1.0-3.0-0.0","17:41:09","4","","","","","","[{""page_index"":0,""viewing_time"":16029},{""page_index"":1,""viewing_time"":4705},{""page_index"":2,""viewing_time"":31196}]","","","","","","","","","","","","","","","","","","","",""
"6583","{""Q0"":"""",""task1"":""<span style='font-size: 24px'>学习图片和数字的对应关系</span>"",""task2"":""<span style='font-size: 24px'> 数字键1-3 </span>"",""task3"":""<span style='font-size: 24px'> 看到图片选出正确对应的数字 </span>""}","question","survey-multi-choice","5","106264","0.0-1.0-3.0-1.0","17:41:09","4","","","","","","","","[0,1,2,3]","","","","","","","","","","","","","","","","","",""
"3120"," ","inst_q","html-keyboard-response","6","109387","0.0-1.0-3.0-2.0","17:41:09","4","","","","","","","inst","","1","","","","","","","","","","","","","","","","",""
"23532","","instruct","instructions","7","132920","0.0-1.0-3.1-0.1","17:41:09","4","","","","","","[{""page_index"":0,""viewing_time"":17476},{""page_index"":1,""viewing_time"":3913},{""page_index"":2,""viewing_time"":2143}]","","","","","","","","","","","","","","","","","","","",""
"10591","{""Q0"":"""",""task1"":""<span style='font-size: 24px'>学习图片和数字的对应关系</span>"",""task2"":""<span style='font-size: 24px'> 数字键1-3 </span>"",""task3"":""<span style='font-size: 24px'> 看到图片选出正确对应的数字 </span>""}","question","survey-multi-choice","8","143512","0.0-1.0-3.1-1.1","17:41:09","4","","","","","","","","[0,1,2,3]","","","","","","","","","","","","","","","","","",""
"2219"," ","inst_q","html-keyboard-response","9","145732","0.0-1.0-3.1-2.1","17:41:09","4","","","","","","","inst","","1","","","","","","","","","","","","","","","","",""
"15316","","instruct","instructions","10","161049","0.0-1.0-3.2-0.2","17:41:09","4","","","","","","[{""page_index"":0,""viewing_time"":5771},{""page_index"":1,""viewing_time"":2856},{""page_index"":2,""viewing_time"":1392},{""page_index"":1,""viewing_time"":903},{""page_index"":2,""viewing_time"":4393}]","","","","","","","","","","","","","","","","","","","",""
"9983","{""Q0"":"""",""task1"":""<span style='font-size: 24px'>选择正确按钮获得更多能量</span>"",""task2"":""<span style='font-size: 24px'> 数字键1-3 </span>"",""task3"":""<span style='font-size: 24px'> 看到图片选出正确对应的数字 </span>""}","question","survey-multi-choice","11","171033","0.0-1.0-3.2-1.2","17:41:09","4","","","","","","","","[0,1,2,3]","","","","","","","","","","","","","","","","","",""
"25963"," ","inst_q","html-keyboard-response","12","196997","0.0-1.0-3.2-2.2","17:41:09","4","","","","","","","inst","","1","","","","","","","","","","","","","","","","",""
"15386","","instruct","instructions","13","212384","0.0-1.0-3.3-0.3","17:41:09","4","","","","","","[{""page_index"":0,""viewing_time"":7466},{""page_index"":1,""viewing_time"":3640},{""page_index"":2,""viewing_time"":4281}]","","","","","","","","","","","","","","","","","","","",""
"11235","{""Q0"":"""",""task1"":""<span style='font-size: 24px'>学习图片和数字的对应关系</span>"",""task2"":""<span style='font-size: 24px'> ←, → </span>"",""task3"":""<span style='font-size: 24px'> 猜测Queen Elizabeth住在哪一栋房子里 </span>""}","question","survey-multi-choice","14","223619","0.0-1.0-3.3-1.3","17:41:09","4","","","","","","","","[0,1,2,3]","","","","","","","","","","","","","","","","","",""
"1625"," ","inst_q","html-keyboard-response","15","225246","0.0-1.0-3.3-2.3","17:41:09","4","","","","","","","inst","","1","","","","","","","","","","","","","","","","",""
"1641","","instruct","instructions","16","226887","0.0-1.0-3.4-0.4","17:41:09","4","","","","","","[{""page_index"":0,""viewing_time"":1329},{""page_index"":1,""viewing_time"":184},{""page_index"":2,""viewing_time"":128}]","","","","","","","","","","","","","","","","","","","",""
"3567","{""Q0"":"""",""task1"":""<span style='font-size: 24px'>学习图片和数字的对应关系</span>"",""task2"":""<span style='font-size: 24px'> 图片下方标注为可用的数字键（数字键1-3或0-9） </span>"",""task3"":""<span style='font-size: 24px'> 看到图片选出正确对应的数字 </span>""}","question","survey-multi-choice","17","230456","0.0-1.0-3.4-1.4","17:41:09","4","","","","","","","","[0,1,2,3]","","","","","","","","","","","","","","","","","",""
"2390"," ","inst_q","html-keyboard-response","18","232847","0.0-1.0-3.4-2.4","17:41:09","4","","","","","","","inst","","1","","","","","","","","","","","","","","","","",""
"","","","preload","19","232949","0.0-1.0-4.0-0.0","17:41:09","4","true","false","[]","[]","[]","","","","","","","","","","","","","","","","","","","","",""
"3343"," ","","html-keyboard-response","20","236292","0.0-1.0-4.0-1.0","17:41:09","4","","","","","","","<div style='font-size: 32px; text-align: center;'
                    <p>请学习图片和数字之间的对应关系</p>
                    <p>我们将<span style='color: blue'><b> 告诉 </b></span>您选择的对错。请根据反馈学习。</p>
                    <p>请按""空格""继续实验。</p></div>","","","","","","","","","","","","","","","","","","",""
"3637"," ","inst","html-keyboard-response","21","239929","0.0-1.0-4.0-2.0","17:41:09","4","","","","","","","<img class='instruct_stim' src=""instruction/prac3.PNG""></div>","","","","","","","","","","","","","","","","","","",""
"null","null","fixation","html-keyboard-response","22","240432","0.0-1.0-4.0-3.0-0.0","17:41:09","4","","","","","","","fixation","","","","","","","","","","","","","","","","","","",""
"1487","2","pic_response","html-keyboard-response","23","241919","0.0-1.0-4.0-3.0-1.0","17:41:09","4","","","","","","","<div>
            <img class='stim' src=""pictures/prac/0.jpg""></div><div class=""button_prompt"">
                        <b>请用数字键1-3回答</b>
                        </div>","","","","","","","","","","","","","","","","","","",""
"1487","null","sub_response","html-keyboard-response","24","242921","0.0-1.0-4.0-3.0-2.0","17:41:09","4","","","","","","","<div style='text-align: center;'>
                            <span style=""color: red; font-size: 40px""><b>错误！+0 pts</b></span></div>
                            ","","learn","0","0","0","learn","0","0","[0, 1, 2]","0","0","setsize","99","prac","0","0","1","0",""
"null","null","fixation","html-keyboard-response","25","243423","0.0-1.0-4.0-3.0-0.1","17:41:09","4","","","","","","","fixation","","","","","","","","","","","","","","","","","","",""
"1391","1","pic_response","html-keyboard-response","26","244815","0.0-1.0-4.0-3.0-1.1","17:41:09","4","","","","","","","<div>
            <img class='stim' src=""pictures/prac/2.jpg""></div><div class=""button_prompt"">
                        <b>请用数字键1-3回答</b>
                        </div>","","","","","","","","","","","","","","","","","","",""
"1391","null","sub_response","html-keyboard-response","27","245816","0.0-1.0-4.0-3.0-2.1","17:41:09","4","","","","","","","<div style='text-align: center;'>
                            <span style=""color: red; font-size: 40px""><b>错误！+0 pts</b></span></div>
                            ","","learn","2","2","2","learn","2","2","[0, 1, 2]","1","0","setsize","99","prac","0","0","0","0",""
"null","null","fixation","html-keyboard-response","28","246317","0.0-1.0-4.0-3.0-0.2","17:41:09","4","","","","","","","fixation","","","","","","","","","","","","","","","","","","",""
"614","1","pic_response","html-keyboard-response","29","246932","0.0-1.0-4.0-3.0-1.2","17:41:09","4","","","","","","","<div>
            <img class='stim' src=""pictures/prac/1.jpg""></div><div class=""button_prompt"">
                        <b>请用数字键1-3回答</b>
                        </div>","","","","","","","","","","","","","","","","","","",""
"614","null","sub_response","html-keyboard-response","30","247934","0.0-1.0-4.0-3.0-2.2","17:41:09","4","","","","","","","<div style='text-align: center;'>
                            <span style=""color: green; font-size: 40px""><b>正确！+1 pts</b></span></div>
                            ","","learn","1","1","1","learn","0","0","[0, 1, 2]","2","0","setsize","99","prac","0","1","0","1",""
"null","null","fixation","html-keyboard-response","31","248435","0.0-1.0-4.0-3.0-0.3","17:41:09","4","","","","","","","fixation","","","","","","","","","","","","","","","","","","",""
"1353","3","pic_response","html-keyboard-response","32","249788","0.0-1.0-4.0-3.0-1.3","17:41:09","4","","","","","","","<div>
            <img class='stim' src=""pictures/prac/2.jpg""></div><div class=""button_prompt"">
                        <b>请用数字键1-3回答</b>
                        </div>","","","","","","","","","","","","","","","","","","",""
"1353","null","sub_response","html-keyboard-response","33","250789","0.0-1.0-4.0-3.0-2.3","17:41:09","4","","","","","","","<div style='text-align: center;'>
                            <span style=""color: green; font-size: 40px""><b>正确！+1 pts</b></span></div>
                            ","","learn","2","2","2","learn","2","2","[0, 1, 2]","3","1","setsize","99","prac","0","2","2","1",""
"null","null","fixation","html-keyboard-response","34","251292","0.0-1.0-4.0-3.0-0.4","17:41:09","4","","","","","","","fixation","","","","","","","","","","","","","","","","","","",""
"707","2","pic_response","html-keyboard-response","35","252000","0.0-1.0-4.0-3.0-1.4","17:41:09","4","","","","","","","<div>
            <img class='stim' src=""pictures/prac/0.jpg""></div><div class=""button_prompt"">
                        <b>请用数字键1-3回答</b>
                        </div>","","","","","","","","","","","","","","","","","","",""
"707","null","sub_response","html-keyboard-response","36","253001","0.0-1.0-4.0-3.0-2.4","17:41:09","4","","","","","","","<div style='text-align: center;'>
                            <span style=""color: red; font-size: 40px""><b>错误！+0 pts</b></span></div>
                            ","","learn","0","0","0","learn","0","0","[0, 1, 2]","4","1","setsize","99","prac","0","0","1","0",""
"null","null","fixation","html-keyboard-response","37","253503","0.0-1.0-4.0-3.0-0.5","17:41:09","4","","","","","","","fixation","","","","","","","","","","","","","","","","","","",""
"1353","3","pic_response","html-keyboard-response","38","254856","0.0-1.0-4.0-3.0-1.5","17:41:09","4","","","","","","","<div>
            <img class='stim' src=""pictures/prac/1.jpg""></div><div class=""button_prompt"">
                        <b>请用数字键1-3回答</b>
                        </div>","","","","","","","","","","","","","","","","","","",""
"1353","null","sub_response","html-keyboard-response","39","255858","0.0-1.0-4.0-3.0-2.5","17:41:09","4","","","","","","","<div style='text-align: center;'>
                            <span style=""color: red; font-size: 40px""><b>错误！+0 pts</b></span></div>
                            ","","learn","1","1","1","learn","0","0","[0, 1, 2]","5","1","setsize","99","prac","0","0","2","0",""
"","","","preload","40","255861","0.0-1.0-4.1-0.1","17:41:09","4","true","false","[]","[]","[]","","","","","","","","","","","","","","","","","","","","",""
"1970"," ","","html-keyboard-response","41","257831","0.0-1.0-4.1-1.1","17:41:09","4","","","","","","","<div style='font-size: 32px; text-align: center;'
                    <p>请学习图片和数字之间的对应关系</p>
                    <p>我们将<span style='color: blue'><b> 告诉 </b></span>您选择的对错。请根据反馈学习。</p>
                    <p>请按""空格""继续实验。</p></div>","","","","","","","","","","","","","","","","","","",""
"6953"," ","inst","html-keyboard-response","42","264785","0.0-1.0-4.1-2.1","17:41:09","4","","","","","","","<img class='instruct_stim' src=""instruction/prac3.PNG""></div>","","","","","","","","","","","","","","","","","","",""
"null","null","fixation","html-keyboard-response","43","265286","0.0-1.0-4.1-3.1-0.6","17:41:09","4","","","","","","","fixation","","","","","","","","","","","","","","","","","","",""
"2453","1","pic_response","html-keyboard-response","44","267740","0.0-1.0-4.1-3.1-1.6","17:41:09","4","","","","","","","<div>
            <img class='stim' src=""pictures/prac/0.jpg""></div><div class=""button_prompt"">
                        <b>请用数字键1-3回答</b>
                        </div>","","","","","","","","","","","","","","","","","","",""
"2453","null","sub_response","html-keyboard-response","45","268742","0.0-1.0-4.1-3.1-2.6","17:41:09","4","","","","","","","<div style='text-align: center;'>
                            <span style=""color: green; font-size: 40px""><b>正确！+1 pts</b></span></div>
                            ","","learn","0","0","0","learn","0","0","[0, 1, 2]","0","0","setsize","99","prac","0","1","0","1",""
"null","null","fixation","html-keyboard-response","46","269244","0.0-1.0-4.1-3.1-0.7","17:41:09","4","","","","","","","fixation","","","","","","","","","","","","","","","","","","",""
"null","null","pic_response","html-keyboard-response","47","272245","0.0-1.0-4.1-3.1-1.7","17:41:09","4","","","","","","","<div>
            <img class='stim' src=""pictures/prac/2.jpg""></div><div class=""button_prompt"">
                        <b>请用数字键1-3回答</b>
                        </div>","","","","","","","","","","","","","","","","","","",""
"null","null","sub_response","html-keyboard-response","48","273247","0.0-1.0-4.1-3.1-2.7","17:41:09","4","","","","","","","<div style='text-align: center;'>
                            <span style=""color: red; font-size: 40px""><b>错误！+0 pts</b></span></div>
                            ","","learn","2","2","2","learn","2","2","[0, 1, 2]","1","0","setsize","99","prac","0","0","999","0",""
"null","null","fixation","html-keyboard-response","49","273748","0.0-1.0-4.1-3.1-0.8","17:41:09","4","","","","","","","fixation","","","","","","","","","","","","","","","","","","",""
"1975","2","pic_response","html-keyboard-response","50","275725","0.0-1.0-4.1-3.1-1.8","17:41:09","4","","","","","","","<div>
            <img class='stim' src=""pictures/prac/1.jpg""></div><div class=""button_prompt"">
                        <b>请用数字键1-3回答</b>
                        </div>","","","","","","","","","","","","","","","","","","",""
"1975","null","sub_response","html-keyboard-response","51","276726","0.0-1.0-4.1-3.1-2.8","17:41:09","4","","","","","","","<div style='text-align: center;'>
                            <span style=""color: red; font-size: 40px""><b>错误！+0 pts</b></span></div>
                            ","","learn","1","1","1","learn","0","0","[0, 1, 2]","2","0","setsize","99","prac","0","0","1","0",""
"null","null","fixation","html-keyboard-response","52","277227","0.0-1.0-4.1-3.1-0.9","17:41:09","4","","","","","","","fixation","","","","","","","","","","","","","","","","","","",""
"909","1","pic_response","html-keyboard-response","53","278138","0.0-1.0-4.1-3.1-1.9","17:41:09","4","","","","","","","<div>
            <img class='stim' src=""pictures/prac/2.jpg""></div><div class=""button_prompt"">
                        <b>请用数字键1-3回答</b>
                        </div>","","","","","","","","","","","","","","","","","","",""
"909","null","sub_response","html-keyboard-response","54","279139","0.0-1.0-4.1-3.1-2.9","17:41:09","4","","","","","","","<div style='text-align: center;'>
                            <span style=""color: red; font-size: 40px""><b>错误！+0 pts</b></span></div>
                            ","","learn","2","2","2","learn","2","2","[0, 1, 2]","3","1","setsize","99","prac","0","0","0","0",""
"null","null","fixation","html-keyboard-response","55","279642","0.0-1.0-4.1-3.1-0.10","17:41:09","4","","","","","","","fixation","","","","","","","","","","","","","","","","","","",""
"729","1","pic_response","html-keyboard-response","56","280372","0.0-1.0-4.1-3.1-1.10","17:41:09","4","","","","","","","<div>
            <img class='stim' src=""pictures/prac/0.jpg""></div><div class=""button_prompt"">
                        <b>请用数字键1-3回答</b>
                        </div>","","","","","","","","","","","","","","","","","","",""
"729","null","sub_response","html-keyboard-response","57","281373","0.0-1.0-4.1-3.1-2.10","17:41:09","4","","","","","","","<div style='text-align: center;'>
                            <span style=""color: green; font-size: 40px""><b>正确！+1 pts</b></span></div>
                            ","","learn","0","0","0","learn","0","0","[0, 1, 2]","4","1","setsize","99","prac","0","1","0","1",""
"null","null","fixation","html-keyboard-response","58","281875","0.0-1.0-4.1-3.1-0.11","17:41:09","4","","","","","","","fixation","","","","","","","","","","","","","","","","","","",""
"900","3","pic_response","html-keyboard-response","59","282775","0.0-1.0-4.1-3.1-1.11","17:41:09","4","","","","","","","<div>
            <img class='stim' src=""pictures/prac/1.jpg""></div><div class=""button_prompt"">
                        <b>请用数字键1-3回答</b>
                        </div>","","","","","","","","","","","","","","","","","","",""
"900","null","sub_response","html-keyboard-response","60","283777","0.0-1.0-4.1-3.1-2.11","17:41:09","4","","","","","","","<div style='text-align: center;'>
                            <span style=""color: red; font-size: 40px""><b>错误！+0 pts</b></span></div>
                            ","","learn","1","1","1","learn","0","0","[0, 1, 2]","5","1","setsize","99","prac","0","0","2","0",""
"","","","preload","61","283779","0.0-1.0-4.2-0.2","17:41:09","4","true","false","[]","[]","[]","","","","","","","","","","","","","","","","","","","","",""
"1446"," ","","html-keyboard-response","62","285225","0.0-1.0-4.2-1.2","17:41:09","4","","","","","","","<div style='font-size: 32px; text-align: center;'
                    <p>请学习图片和数字之间的对应关系</p>
                    <p>我们将<span style='color: blue'><b> 告诉 </b></span>您选择的对错。请根据反馈学习。</p>
                    <p>请按""空格""继续实验。</p></div>","","","","","","","","","","","","","","","","","","",""
"966"," ","inst","html-keyboard-response","63","286192","0.0-1.0-4.2-2.2","17:41:09","4","","","","","","","<img class='instruct_stim' src=""instruction/prac3.PNG""></div>","","","","","","","","","","","","","","","","","","",""
"null","null","fixation","html-keyboard-response","64","286693","0.0-1.0-4.2-3.2-0.12","17:41:09","4","","","","","","","fixation","","","","","","","","","","","","","","","","","","",""
"1007","1","pic_response","html-keyboard-response","65","287701","0.0-1.0-4.2-3.2-1.12","17:41:09","4","","","","","","","<div>
            <img class='stim' src=""pictures/prac/0.jpg""></div><div class=""button_prompt"">
                        <b>请用数字键1-3回答</b>
                        </div>","","","","","","","","","","","","","","","","","","",""
"1007","null","sub_response","html-keyboard-response","66","288702","0.0-1.0-4.2-3.2-2.12","17:41:09","4","","","","","","","<div style='text-align: center;'>
                            <span style=""color: green; font-size: 40px""><b>正确！+1 pts</b></span></div>
                            ","","learn","0","0","0","learn","0","0","[0, 1, 2]","0","0","setsize","99","prac","0","1","0","1",""
"null","null","fixation","html-keyboard-response","67","289204","0.0-1.0-4.2-3.2-0.13","17:41:09","4","","","","","","","fixation","","","","","","","","","","","","","","","","","","",""
"1007","2","pic_response","html-keyboard-response","68","290211","0.0-1.0-4.2-3.2-1.13","17:41:09","4","","","","","","","<div>
            <img class='stim' src=""pictures/prac/2.jpg""></div><div class=""button_prompt"">
                        <b>请用数字键1-3回答</b>
                        </div>","","","","","","","","","","","","","","","","","","",""
"1007","null","sub_response","html-keyboard-response","69","291212","0.0-1.0-4.2-3.2-2.13","17:41:09","4","","","","","","","<div style='text-align: center;'>
                            <span style=""color: red; font-size: 40px""><b>错误！+0 pts</b></span></div>
                            ","","learn","2","2","2","learn","2","2","[0, 1, 2]","1","0","setsize","99","prac","0","0","1","0",""
"null","null","fixation","html-keyboard-response","70","291714","0.0-1.0-4.2-3.2-0.14","17:41:09","4","","","","","","","fixation","","","","","","","","","","","","","","","","","","",""
"606","2","pic_response","html-keyboard-response","71","292321","0.0-1.0-4.2-3.2-1.14","17:41:09","4","","","","","","","<div>
            <img class='stim' src=""pictures/prac/1.jpg""></div><div class=""button_prompt"">
                        <b>请用数字键1-3回答</b>
                        </div>","","","","","","","","","","","","","","","","","","",""
"606","null","sub_response","html-keyboard-response","72","293323","0.0-1.0-4.2-3.2-2.14","17:41:09","4","","","","","","","<div style='text-align: center;'>
                            <span style=""color: red; font-size: 40px""><b>错误！+0 pts</b></span></div>
                            ","","learn","1","1","1","learn","0","0","[0, 1, 2]","2","0","setsize","99","prac","0","0","1","0",""
"null","null","fixation","html-keyboard-response","73","293824","0.0-1.0-4.2-3.2-0.15","17:41:09","4","","","","","","","fixation","","","","","","","","","","","","","","","","","","",""
"1494","3","pic_response","html-keyboard-response","74","295318","0.0-1.0-4.2-3.2-1.15","17:41:09","4","","","","","","","<div>
            <img class='stim' src=""pictures/prac/2.jpg""></div><div class=""button_prompt"">
                        <b>请用数字键1-3回答</b>
                        </div>","","","","","","","","","","","","","","","","","","",""
"1494","null","sub_response","html-keyboard-response","75","296320","0.0-1.0-4.2-3.2-2.15","17:41:09","4","","","","","","","<div style='text-align: center;'>
                            <span style=""color: green; font-size: 40px""><b>正确！+1 pts</b></span></div>
                            ","","learn","2","2","2","learn","2","2","[0, 1, 2]","3","1","setsize","99","prac","0","1","2","1",""
"null","null","fixation","html-keyboard-response","76","296821","0.0-1.0-4.2-3.2-0.16","17:41:09","4","","","","","","","fixation","","","","","","","","","","","","","","","","","","",""
"1120","1","pic_response","html-keyboard-response","77","297942","0.0-1.0-4.2-3.2-1.16","17:41:09","4","","","","","","","<div>
            <img class='stim' src=""pictures/prac/0.jpg""></div><div class=""button_prompt"">
                        <b>请用数字键1-3回答</b>
                        </div>","","","","","","","","","","","","","","","","","","",""
"1120","null","sub_response","html-keyboard-response","78","298944","0.0-1.0-4.2-3.2-2.16","17:41:09","4","","","","","","","<div style='text-align: center;'>
                            <span style=""color: green; font-size: 40px""><b>正确！+1 pts</b></span></div>
                            ","","learn","0","0","0","learn","0","0","[0, 1, 2]","4","1","setsize","99","prac","0","2","0","1",""
"null","null","fixation","html-keyboard-response","79","299445","0.0-1.0-4.2-3.2-0.17","17:41:09","4","","","","","","","fixation","","","","","","","","","","","","","","","","","","",""
"1367","2","pic_response","html-keyboard-response","80","300813","0.0-1.0-4.2-3.2-1.17","17:41:09","4","","","","","","","<div>
            <img class='stim' src=""pictures/prac/1.jpg""></div><div class=""button_prompt"">
                        <b>请用数字键1-3回答</b>
                        </div>","","","","","","","","","","","","","","","","","","",""
"1367","null","sub_response","html-keyboard-response","81","301815","0.0-1.0-4.2-3.2-2.17","17:41:09","4","","","","","","","<div style='text-align: center;'>
                            <span style=""color: red; font-size: 40px""><b>错误！+0 pts</b></span></div>
                            ","","learn","1","1","1","learn","0","0","[0, 1, 2]","5","1","setsize","99","prac","0","0","1","0",""
"","","","preload","82","301817","0.0-1.0-4.3-0.3","17:41:09","4","true","false","[]","[]","[]","","","","","","","","","","","","","","","","","","","","",""
"1138"," ","","html-keyboard-response","83","302956","0.0-1.0-4.3-1.3","17:41:09","4","","","","","","","<div style='font-size: 32px; text-align: center;'
                    <p>请学习图片和数字之间的对应关系</p>
                    <p>我们将<span style='color: blue'><b> 告诉 </b></span>您选择的对错。请根据反馈学习。</p>
                    <p>请按""空格""继续实验。</p></div>","","","","","","","","","","","","","","","","","","",""
"511"," ","inst","html-keyboard-response","84","303468","0.0-1.0-4.3-2.3","17:41:09","4","","","","","","","<img class='instruct_stim' src=""instruction/prac3.PNG""></div>","","","","","","","","","","","","","","","","","","",""
"null","null","fixation","html-keyboard-response","85","303969","0.0-1.0-4.3-3.3-0.18","17:41:09","4","","","","","","","fixation","","","","","","","","","","","","","","","","","","",""
"1127","1","pic_response","html-keyboard-response","86","305096","0.0-1.0-4.3-3.3-1.18","17:41:09","4","","","","","","","<div>
            <img class='stim' src=""pictures/prac/0.jpg""></div><div class=""button_prompt"">
                        <b>请用数字键1-3回答</b>
                        </div>","","","","","","","","","","","","","","","","","","",""
"1127","null","sub_response","html-keyboard-response","87","306098","0.0-1.0-4.3-3.3-2.18","17:41:09","4","","","","","","","<div style='text-align: center;'>
                            <span style=""color: green; font-size: 40px""><b>正确！+1 pts</b></span></div>
                            ","","learn","0","0","0","learn","0","0","[0, 1, 2]","0","0","setsize","99","prac","0","1","0","1",""
"null","null","fixation","html-keyboard-response","88","306600","0.0-1.0-4.3-3.3-0.19","17:41:09","4","","","","","","","fixation","","","","","","","","","","","","","","","","","","",""
"982","3","pic_response","html-keyboard-response","89","307582","0.0-1.0-4.3-3.3-1.19","17:41:09","4","","","","","","","<div>
            <img class='stim' src=""pictures/prac/2.jpg""></div><div class=""button_prompt"">
                        <b>请用数字键1-3回答</b>
                        </div>","","","","","","","","","","","","","","","","","","",""
"982","null","sub_response","html-keyboard-response","90","308584","0.0-1.0-4.3-3.3-2.19","17:41:09","4","","","","","","","<div style='text-align: center;'>
                            <span style=""color: green; font-size: 40px""><b>正确！+1 pts</b></span></div>
                            ","","learn","2","2","2","learn","2","2","[0, 1, 2]","1","0","setsize","99","prac","0","2","2","1",""
"null","null","fixation","html-keyboard-response","91","309085","0.0-1.0-4.3-3.3-0.20","17:41:09","4","","","","","","","fixation","","","","","","","","","","","","","","","","","","",""
"498","2","pic_response","html-keyboard-response","92","309583","0.0-1.0-4.3-3.3-1.20","17:41:09","4","","","","","","","<div>
            <img class='stim' src=""pictures/prac/1.jpg""></div><div class=""button_prompt"">
                        <b>请用数字键1-3回答</b>
                        </div>","","","","","","","","","","","","","","","","","","",""
"498","null","sub_response","html-keyboard-response","93","310585","0.0-1.0-4.3-3.3-2.20","17:41:09","4","","","","","","","<div style='text-align: center;'>
                            <span style=""color: red; font-size: 40px""><b>错误！+0 pts</b></span></div>
                            ","","learn","1","1","1","learn","0","0","[0, 1, 2]","2","0","setsize","99","prac","0","0","1","0",""
"null","null","fixation","html-keyboard-response","94","311086","0.0-1.0-4.3-3.3-0.21","17:41:09","4","","","","","","","fixation","","","","","","","","","","","","","","","","","","",""
"1142","3","pic_response","html-keyboard-response","95","312229","0.0-1.0-4.3-3.3-1.21","17:41:09","4","","","","","","","<div>
            <img class='stim' src=""pictures/prac/2.jpg""></div><div class=""button_prompt"">
                        <b>请用数字键1-3回答</b>
                        </div>","","","","","","","","","","","","","","","","","","",""
"1142","null","sub_response","html-keyboard-response","96","313231","0.0-1.0-4.3-3.3-2.21","17:41:09","4","","","","","","","<div style='text-align: center;'>
                            <span style=""color: green; font-size: 40px""><b>正确！+1 pts</b></span></div>
                            ","","learn","2","2","2","learn","2","2","[0, 1, 2]","3","1","setsize","99","prac","0","1","2","1",""
"null","null","fixation","html-keyboard-response","97","313733","0.0-1.0-4.3-3.3-0.22","17:41:09","4","","","","","","","fixation","","","","","","","","","","","","","","","","","","",""
"694","1","pic_response","html-keyboard-response","98","314427","0.0-1.0-4.3-3.3-1.22","17:41:09","4","","","","","","","<div>
            <img class='stim' src=""pictures/prac/0.jpg""></div><div class=""button_prompt"">
                        <b>请用数字键1-3回答</b>
                        </div>","","","","","","","","","","","","","","","","","","",""
"694","null","sub_response","html-keyboard-response","99","315428","0.0-1.0-4.3-3.3-2.22","17:41:09","4","","","","","","","<div style='text-align: center;'>
                            <span style=""color: green; font-size: 40px""><b>正确！+1 pts</b></span></div>
                            ","","learn","0","0","0","learn","0","0","[0, 1, 2]","4","1","setsize","99","prac","0","2","0","1",""
"null","null","fixation","html-keyboard-response","100","315929","0.0-1.0-4.3-3.3-0.23","17:41:09","4","","","","","","","fixation","","","","","","","","","","","","","","","","","","",""
"1838","1","pic_response","html-keyboard-response","101","317768","0.0-1.0-4.3-3.3-1.23","17:41:09","4","","","","","","","<div>
            <img class='stim' src=""pictures/prac/1.jpg""></div><div class=""button_prompt"">
                        <b>请用数字键1-3回答</b>
                        </div>","","","","","","","","","","","","","","","","","","",""
"1838","null","sub_response","html-keyboard-response","102","318769","0.0-1.0-4.3-3.3-2.23","17:41:09","4","","","","","","","<div style='text-align: center;'>
                            <span style=""color: green; font-size: 40px""><b>正确！+1 pts</b></span></div>
                            ","","learn","1","1","1","learn","0","0","[0, 1, 2]","5","1","setsize","99","prac","0","3","0","1",""
"1362"," ","","html-keyboard-response","103","320132","0.0-1.0-5.0","17:41:09","4","","","","","","","<div style=""font-size: 25px""><p>距下一个实验开始还有</p><div style=""font-size: 50px; color: blue""><p><span id=""clock"">1:00</span></div></p><p>按""空格""跳过休息</p></div>","","","","","","","","","","","","","","","","","","",""
"998"," ","","html-keyboard-response","104","321131","0.0-1.0-6.0","17:41:09","4","","","","","","","<div style='font-size: 32px; text-align: center;'
                    <p>请按""空格""继续正式实验。</p></div>","","","","","","","","","","","","","","","","","","",""
"","","","preload","105","321508","0.0-1.0-7.0-0.0","17:41:09","4","true","false","[]","[]","[]","","","","","","","","","","","","","","","","","","","","",""
"1874"," ","","html-keyboard-response","106","323383","0.0-1.0-7.0-1.0","17:41:09","4","","","","","","","<div style='font-size: 32px; text-align: center;'
                    <p>请学习图片和数字之间的对应关系</p>
                    <p>我们将<span style='color: blue'><b> 告诉 </b></span>您选择的对错。请根据反馈学习。</p>
                    <p>请按""空格""继续实验。</p></div>","","","","","","","","","","","","","","","","","","",""
"17937"," ","inst","html-keyboard-response","107","341321","0.0-1.0-7.0-2.0","17:41:09","4","","","","","","","<img class='instruct_stim' src=""instruction/animals3.PNG""></div>","","","","","","","","","","","","","","","","","","",""
"null","null","fixation","html-keyboard-response","108","341822","0.0-1.0-7.0-3.0-0.0","17:41:09","4","","","","","","","fixation","","","","","","","","","","","","","","","","","","",""
"null","null","pic_response","html-keyboard-response","109","344825","0.0-1.0-7.0-3.0-1.0","17:41:09","4","","","","","","","<div>
            <img class='stim' src=""pictures/animals/1.jpg""></div><div class=""button_prompt"">
                    <b>请用数字键0-9回答</b>
                    </div>","","","","","","","","","","","","","","","","","","",""
"null","null","sub_response","html-keyboard-response","110","345826","0.0-1.0-7.0-3.0-2.0","17:41:09","4","","","","","","","<div style='text-align: center;'>
                            <span style=""color: red; font-size: 40px""><b>错误！+0 pts</b></span></div>
                            ","","learn","1","1","1","learn","6","6","[0, 1, 2, 3, 4, 5, 6, 7, 8, 9]","0","0","setsize","3S10A","animals","1","0","999","0",""
"null","null","fixation","html-keyboard-response","111","346327","0.0-1.0-7.0-3.0-0.1","17:41:09","4","","","","","","","fixation","","","","","","","","","","","","","","","","","","",""
"1728","1","pic_response","html-keyboard-response","112","348056","0.0-1.0-7.0-3.0-1.1","17:41:09","4","","","","","","","<div>
            <img class='stim' src=""pictures/animals/2.jpg""></div><div class=""button_prompt"">
                    <b>请用数字键0-9回答</b>
                    </div>","","","","","","","","","","","","","","","","","","",""
"1728","null","sub_response","html-keyboard-response","113","349058","0.0-1.0-7.0-3.0-2.1","17:41:09","4","","","","","","","<div style='text-align: center;'>
                            <span style=""color: red; font-size: 40px""><b>错误！+0 pts</b></span></div>
                            ","","learn","2","2","2","learn","9","9","[0, 1, 2, 3, 4, 5, 6, 7, 8, 9]","1","0","setsize","3S10A","animals","1","0","0","0",""
"null","null","fixation","html-keyboard-response","114","349561","0.0-1.0-7.0-3.0-0.2","17:41:09","4","","","","","","","fixation","","","","","","","","","","","","","","","","","","",""
"942","4","pic_response","html-keyboard-response","115","350503","0.0-1.0-7.0-3.0-1.2","17:41:09","4","","","","","","","<div>
            <img class='stim' src=""pictures/animals/0.jpg""></div><div class=""button_prompt"">
                    <b>请用数字键0-9回答</b>
                    </div>","","","","","","","","","","","","","","","","","","",""
"942","null","sub_response","html-keyboard-response","116","351504","0.0-1.0-7.0-3.0-2.2","17:41:09","4","","","","","","","<div style='text-align: center;'>
                            <span style=""color: red; font-size: 40px""><b>错误！+0 pts</b></span></div>
                            ","","learn","0","0","0","learn","2","2","[0, 1, 2, 3, 4, 5, 6, 7, 8, 9]","2","0","setsize","3S10A","animals","1","0","3","0",""
"null","null","fixation","html-keyboard-response","117","352004","0.0-1.0-7.0-3.0-0.3","17:41:09","4","","","","","","","fixation","","","","","","","","","","","","","","","","","","",""
"1162","7","pic_response","html-keyboard-response","118","353167","0.0-1.0-7.0-3.0-1.3","17:41:09","4","","","","","","","<div>
            <img class='stim' src=""pictures/animals/2.jpg""></div><div class=""button_prompt"">
                    <b>请用数字键0-9回答</b>
                    </div>","","","","","","","","","","","","","","","","","","",""
"1162","null","sub_response","html-keyboard-response","119","354168","0.0-1.0-7.0-3.0-2.3","17:41:09","4","","","","","","","<div style='text-align: center;'>
                            <span style=""color: red; font-size: 40px""><b>错误！+0 pts</b></span></div>
                            ","","learn","2","2","2","learn","9","9","[0, 1, 2, 3, 4, 5, 6, 7, 8, 9]","3","1","setsize","3S10A","animals","1","0","6","0",""
"null","null","fixation","html-keyboard-response","120","354670","0.0-1.0-7.0-3.0-0.4","17:41:09","4","","","","","","","fixation","","","","","","","","","","","","","","","","","","",""
"1045","5","pic_response","html-keyboard-response","121","355715","0.0-1.0-7.0-3.0-1.4","17:41:09","4","","","","","","","<div>
            <img class='stim' src=""pictures/animals/1.jpg""></div><div class=""button_prompt"">
                    <b>请用数字键0-9回答</b>
                    </div>","","","","","","","","","","","","","","","","","","",""
"1045","null","sub_response","html-keyboard-response","122","356717","0.0-1.0-7.0-3.0-2.4","17:41:09","4","","","","","","","<div style='text-align: center;'>
                            <span style=""color: red; font-size: 40px""><b>错误！+0 pts</b></span></div>
                            ","","learn","1","1","1","learn","6","6","[0, 1, 2, 3, 4, 5, 6, 7, 8, 9]","4","1","setsize","3S10A","animals","1","0","4","0",""
"null","null","fixation","html-keyboard-response","123","357218","0.0-1.0-7.0-3.0-0.5","17:41:09","4","","","","","","","fixation","","","","","","","","","","","","","","","","","","",""
"542","6","pic_response","html-keyboard-response","124","357762","0.0-1.0-7.0-3.0-1.5","17:41:09","4","","","","","","","<div>
            <img class='stim' src=""pictures/animals/0.jpg""></div><div class=""button_prompt"">
                    <b>请用数字键0-9回答</b>
                    </div>","","","","","","","","","","","","","","","","","","",""
"542","null","sub_response","html-keyboard-response","125","358763","0.0-1.0-7.0-3.0-2.5","17:41:09","4","","","","","","","<div style='text-align: center;'>
                            <span style=""color: red; font-size: 40px""><b>错误！+0 pts</b></span></div>
                            ","","learn","0","0","0","learn","2","2","[0, 1, 2, 3, 4, 5, 6, 7, 8, 9]","5","1","setsize","3S10A","animals","1","0","5","0",""
"null","null","fixation","html-keyboard-response","126","359265","0.0-1.0-7.0-3.0-0.6","17:41:09","4","","","","","","","fixation","","","","","","","","","","","","","","","","","","",""
"569","1","pic_response","html-keyboard-response","127","359835","0.0-1.0-7.0-3.0-1.6","17:41:09","4","","","","","","","<div>
            <img class='stim' src=""pictures/animals/1.jpg""></div><div class=""button_prompt"">
                    <b>请用数字键0-9回答</b>
                    </div>","","","","","","","","","","","","","","","","","","",""
"569","null","sub_response","html-keyboard-response","128","360836","0.0-1.0-7.0-3.0-2.6","17:41:09","4","","","","","","","<div style='text-align: center;'>
                            <span style=""color: red; font-size: 40px""><b>错误！+0 pts</b></span></div>
                            ","","learn","1","1","1","learn","6","6","[0, 1, 2, 3, 4, 5, 6, 7, 8, 9]","6","2","setsize","3S10A","animals","1","0","0","0",""
"null","null","fixation","html-keyboard-response","129","361338","0.0-1.0-7.0-3.0-0.7","17:41:09","4","","","","","","","fixation","","","","","","","","","","","","","","","","","","",""
"470","8","pic_response","html-keyboard-response","130","361809","0.0-1.0-7.0-3.0-1.7","17:41:09","4","","","","","","","<div>
            <img class='stim' src=""pictures/animals/0.jpg""></div><div class=""button_prompt"">
                    <b>请用数字键0-9回答</b>
                    </div>","","","","","","","","","","","","","","","","","","",""
"470","null","sub_response","html-keyboard-response","131","362811","0.0-1.0-7.0-3.0-2.7","17:41:09","4","","","","","","","<div style='text-align: center;'>
                            <span style=""color: red; font-size: 40px""><b>错误！+0 pts</b></span></div>
                            ","","learn","0","0","0","learn","2","2","[0, 1, 2, 3, 4, 5, 6, 7, 8, 9]","7","2","setsize","3S10A","animals","1","0","7","0",""
"null","null","fixation","html-keyboard-response","132","363313","0.0-1.0-7.0-3.0-0.8","17:41:09","4","","","","","","","fixation","","","","","","","","","","","","","","","","","","",""
"952","2","pic_response","html-keyboard-response","133","364265","0.0-1.0-7.0-3.0-1.8","17:41:09","4","","","","","","","<div>
            <img class='stim' src=""pictures/animals/2.jpg""></div><div class=""button_prompt"">
                    <b>请用数字键0-9回答</b>
                    </div>","","","","","","","","","","","","","","","","","","",""
"952","null","sub_response","html-keyboard-response","134","365266","0.0-1.0-7.0-3.0-2.8","17:41:09","4","","","","","","","<div style='text-align: center;'>
                            <span style=""color: red; font-size: 40px""><b>错误！+0 pts</b></span></div>
                            ","","learn","2","2","2","learn","9","9","[0, 1, 2, 3, 4, 5, 6, 7, 8, 9]","8","2","setsize","3S10A","animals","1","0","1","0",""
"null","null","fixation","html-keyboard-response","135","365768","0.0-1.0-7.0-3.0-0.9","17:41:09","4","","","","","","","fixation","","","","","","","","","","","","","","","","","","",""
"484","1","pic_response","html-keyboard-response","136","366252","0.0-1.0-7.0-3.0-1.9","17:41:09","4","","","","","","","<div>
            <img class='stim' src=""pictures/animals/2.jpg""></div><div class=""button_prompt"">
                    <b>请用数字键0-9回答</b>
                    </div>","","","","","","","","","","","","","","","","","","",""
"484","null","sub_response","html-keyboard-response","137","367255","0.0-1.0-7.0-3.0-2.9","17:41:09","4","","","","","","","<div style='text-align: center;'>
                            <span style=""color: red; font-size: 40px""><b>错误！+0 pts</b></span></div>
                            ","","learn","2","2","2","learn","9","9","[0, 1, 2, 3, 4, 5, 6, 7, 8, 9]","9","3","setsize","3S10A","animals","1","0","0","0",""
"null","null","fixation","html-keyboard-response","138","367756","0.0-1.0-7.0-3.0-0.10","17:41:09","4","","","","","","","fixation","","","","","","","","","","","","","","","","","","",""
"504","2","pic_response","html-keyboard-response","139","368261","0.0-1.0-7.0-3.0-1.10","17:41:09","4","","","","","","","<div>
            <img class='stim' src=""pictures/animals/1.jpg""></div><div class=""button_prompt"">
                    <b>请用数字键0-9回答</b>
                    </div>","","","","","","","","","","","","","","","","","","",""
"504","null","sub_response","html-keyboard-response","140","369262","0.0-1.0-7.0-3.0-2.10","17:41:09","4","","","","","","","<div style='text-align: center;'>
                            <span style=""color: red; font-size: 40px""><b>错误！+0 pts</b></span></div>
                            ","","learn","1","1","1","learn","6","6","[0, 1, 2, 3, 4, 5, 6, 7, 8, 9]","10","3","setsize","3S10A","animals","1","0","1","0",""
"null","null","fixation","html-keyboard-response","141","369764","0.0-1.0-7.0-3.0-0.11","17:41:09","4","","","","","","","fixation","","","","","","","","","","","","","","","","","","",""
"228","3","pic_response","html-keyboard-response","142","369992","0.0-1.0-7.0-3.0-1.11","17:41:09","4","","","","","","","<div>
            <img class='stim' src=""pictures/animals/0.jpg""></div><div class=""button_prompt"">
                    <b>请用数字键0-9回答</b>
                    </div>","","","","","","","","","","","","","","","","","","",""
"228","null","sub_response","html-keyboard-response","143","370994","0.0-1.0-7.0-3.0-2.11","17:41:09","4","","","","","","","<div style='text-align: center;'>
                            <span style=""color: green; font-size: 40px""><b>正确！+1 pts</b></span></div>
                            ","","learn","0","0","0","learn","2","2","[0, 1, 2, 3, 4, 5, 6, 7, 8, 9]","11","3","setsize","3S10A","animals","1","1","2","1",""
"null","null","fixation","html-keyboard-response","144","371496","0.0-1.0-7.0-3.0-0.12","17:41:09","4","","","","","","","fixation","","","","","","","","","","","","","","","","","","",""
"728","3","pic_response","html-keyboard-response","145","372225","0.0-1.0-7.0-3.0-1.12","17:41:09","4","","","","","","","<div>
            <img class='stim' src=""pictures/animals/0.jpg""></div><div class=""button_prompt"">
                    <b>请用数字键0-9回答</b>
                    </div>","","","","","","","","","","","","","","","","","","",""
"728","null","sub_response","html-keyboard-response","146","373227","0.0-1.0-7.0-3.0-2.12","17:41:09","4","","","","","","","<div style='text-align: center;'>
                            <span style=""color: green; font-size: 40px""><b>正确！+1 pts</b></span></div>
                            ","","learn","0","0","0","learn","2","2","[0, 1, 2, 3, 4, 5, 6, 7, 8, 9]","12","4","setsize","3S10A","animals","1","2","2","1",""
"null","null","fixation","html-keyboard-response","147","373728","0.0-1.0-7.0-3.0-0.13","17:41:09","4","","","","","","","fixation","","","","","","","","","","","","","","","","","","",""
"1377","5","pic_response","html-keyboard-response","148","375106","0.0-1.0-7.0-3.0-1.13","17:41:09","4","","","","","","","<div>
            <img class='stim' src=""pictures/animals/1.jpg""></div><div class=""button_prompt"">
                    <b>请用数字键0-9回答</b>
                    </div>","","","","","","","","","","","","","","","","","","",""
"1377","null","sub_response","html-keyboard-response","149","376109","0.0-1.0-7.0-3.0-2.13","17:41:09","4","","","","","","","<div style='text-align: center;'>
                            <span style=""color: red; font-size: 40px""><b>错误！+0 pts</b></span></div>
                            ","","learn","1","1","1","learn","6","6","[0, 1, 2, 3, 4, 5, 6, 7, 8, 9]","13","4","setsize","3S10A","animals","1","0","4","0",""
"null","null","fixation","html-keyboard-response","150","376610","0.0-1.0-7.0-3.0-0.14","17:41:09","4","","","","","","","fixation","","","","","","","","","","","","","","","","","","",""
"607","6","pic_response","html-keyboard-response","151","377218","0.0-1.0-7.0-3.0-1.14","17:41:09","4","","","","","","","<div>
            <img class='stim' src=""pictures/animals/2.jpg""></div><div class=""button_prompt"">
                    <b>请用数字键0-9回答</b>
                    </div>","","","","","","","","","","","","","","","","","","",""
"607","null","sub_response","html-keyboard-response","152","378220","0.0-1.0-7.0-3.0-2.14","17:41:09","4","","","","","","","<div style='text-align: center;'>
                            <span style=""color: red; font-size: 40px""><b>错误！+0 pts</b></span></div>
                            ","","learn","2","2","2","learn","9","9","[0, 1, 2, 3, 4, 5, 6, 7, 8, 9]","14","4","setsize","3S10A","animals","1","0","5","0",""
"null","null","fixation","html-keyboard-response","153","378721","0.0-1.0-7.0-3.0-0.15","17:41:09","4","","","","","","","fixation","","","","","","","","","","","","","","","","","","",""
"296","7","pic_response","html-keyboard-response","154","379018","0.0-1.0-7.0-3.0-1.15","17:41:09","4","","","","","","","<div>
            <img class='stim' src=""pictures/animals/2.jpg""></div><div class=""button_prompt"">
                    <b>请用数字键0-9回答</b>
                    </div>","","","","","","","","","","","","","","","","","","",""
"296","null","sub_response","html-keyboard-response","155","380019","0.0-1.0-7.0-3.0-2.15","17:41:09","4","","","","","","","<div style='text-align: center;'>
                            <span style=""color: red; font-size: 40px""><b>错误！+0 pts</b></span></div>
                            ","","learn","2","2","2","learn","9","9","[0, 1, 2, 3, 4, 5, 6, 7, 8, 9]","15","5","setsize","3S10A","animals","1","0","6","0",""
"null","null","fixation","html-keyboard-response","156","380521","0.0-1.0-7.0-3.0-0.16","17:41:09","4","","","","","","","fixation","","","","","","","","","","","","","","","","","","",""
"265","8","pic_response","html-keyboard-response","157","380786","0.0-1.0-7.0-3.0-1.16","17:41:09","4","","","","","","","<div>
            <img class='stim' src=""pictures/animals/0.jpg""></div><div class=""button_prompt"">
                    <b>请用数字键0-9回答</b>
                    </div>","","","","","","","","","","","","","","","","","","",""
"265","null","sub_response","html-keyboard-response","158","381787","0.0-1.0-7.0-3.0-2.16","17:41:09","4","","","","","","","<div style='text-align: center;'>
                            <span style=""color: red; font-size: 40px""><b>错误！+0 pts</b></span></div>
                            ","","learn","0","0","0","learn","2","2","[0, 1, 2, 3, 4, 5, 6, 7, 8, 9]","16","5","setsize","3S10A","animals","1","0","7","0",""
"null","null","fixation","html-keyboard-response","159","382288","0.0-1.0-7.0-3.0-0.17","17:41:09","4","","","","","","","fixation","","","","","","","","","","","","","","","","","","",""
"1419","9","pic_response","html-keyboard-response","160","383707","0.0-1.0-7.0-3.0-1.17","17:41:09","4","","","","","","","<div>
            <img class='stim' src=""pictures/animals/1.jpg""></div><div class=""button_prompt"">
                    <b>请用数字键0-9回答</b>
                    </div>","","","","","","","","","","","","","","","","","","",""
"1419","null","sub_response","html-keyboard-response","161","384720","0.0-1.0-7.0-3.0-2.17","17:41:09","4","","","","","","","<div style='text-align: center;'>
                            <span style=""color: red; font-size: 40px""><b>错误！+0 pts</b></span></div>
                            ","","learn","1","1","1","learn","6","6","[0, 1, 2, 3, 4, 5, 6, 7, 8, 9]","17","5","setsize","3S10A","animals","1","0","8","0",""
"null","null","fixation","html-keyboard-response","162","385222","0.0-1.0-7.0-3.0-0.18","17:41:09","4","","","","","","","fixation","","","","","","","","","","","","","","","","","","",""
"484","8","pic_response","html-keyboard-response","163","385706","0.0-1.0-7.0-3.0-1.18","17:41:09","4","","","","","","","<div>
            <img class='stim' src=""pictures/animals/1.jpg""></div><div class=""button_prompt"">
                    <b>请用数字键0-9回答</b>
                    </div>","","","","","","","","","","","","","","","","","","",""
"484","null","sub_response","html-keyboard-response","164","386721","0.0-1.0-7.0-3.0-2.18","17:41:09","4","","","","","","","<div style='text-align: center;'>
                            <span style=""color: red; font-size: 40px""><b>错误！+0 pts</b></span></div>
                            ","","learn","1","1","1","learn","6","6","[0, 1, 2, 3, 4, 5, 6, 7, 8, 9]","18","6","setsize","3S10A","animals","1","0","7","0",""
"null","null","fixation","html-keyboard-response","165","387224","0.0-1.0-7.0-3.0-0.19","17:41:09","4","","","","","","","fixation","","","","","","","","","","","","","","","","","","",""
"904","3","pic_response","html-keyboard-response","166","388129","0.0-1.0-7.0-3.0-1.19","17:41:09","4","","","","","","","<div>
            <img class='stim' src=""pictures/animals/0.jpg""></div><div class=""button_prompt"">
                    <b>请用数字键0-9回答</b>
                    </div>","","","","","","","","","","","","","","","","","","",""
"904","null","sub_response","html-keyboard-response","167","389130","0.0-1.0-7.0-3.0-2.19","17:41:09","4","","","","","","","<div style='text-align: center;'>
                            <span style=""color: green; font-size: 40px""><b>正确！+1 pts</b></span></div>
                            ","","learn","0","0","0","learn","2","2","[0, 1, 2, 3, 4, 5, 6, 7, 8, 9]","19","6","setsize","3S10A","animals","1","1","2","1",""
"null","null","fixation","html-keyboard-response","168","389631","0.0-1.0-7.0-3.0-0.20","17:41:09","4","","","","","","","fixation","","","","","","","","","","","","","","","","","","",""
"348","6","pic_response","html-keyboard-response","169","389980","0.0-1.0-7.0-3.0-1.20","17:41:09","4","","","","","","","<div>
            <img class='stim' src=""pictures/animals/2.jpg""></div><div class=""button_prompt"">
                    <b>请用数字键0-9回答</b>
                    </div>","","","","","","","","","","","","","","","","","","",""
"348","null","sub_response","html-keyboard-response","170","390981","0.0-1.0-7.0-3.0-2.20","17:41:09","4","","","","","","","<div style='text-align: center;'>
                            <span style=""color: red; font-size: 40px""><b>错误！+0 pts</b></span></div>
                            ","","learn","2","2","2","learn","9","9","[0, 1, 2, 3, 4, 5, 6, 7, 8, 9]","20","6","setsize","3S10A","animals","1","0","5","0",""
"null","null","fixation","html-keyboard-response","171","391483","0.0-1.0-7.0-3.0-0.21","17:41:09","4","","","","","","","fixation","","","","","","","","","","","","","","","","","","",""
"327","5","pic_response","html-keyboard-response","172","391811","0.0-1.0-7.0-3.0-1.21","17:41:09","4","","","","","","","<div>
            <img class='stim' src=""pictures/animals/1.jpg""></div><div class=""button_prompt"">
                    <b>请用数字键0-9回答</b>
                    </div>","","","","","","","","","","","","","","","","","","",""
"327","null","sub_response","html-keyboard-response","173","392812","0.0-1.0-7.0-3.0-2.21","17:41:09","4","","","","","","","<div style='text-align: center;'>
                            <span style=""color: red; font-size: 40px""><b>错误！+0 pts</b></span></div>
                            ","","learn","1","1","1","learn","6","6","[0, 1, 2, 3, 4, 5, 6, 7, 8, 9]","21","7","setsize","3S10A","animals","1","0","4","0",""
"null","null","fixation","html-keyboard-response","174","393314","0.0-1.0-7.0-3.0-0.22","17:41:09","4","","","","","","","fixation","","","","","","","","","","","","","","","","","","",""
"724","4","pic_response","html-keyboard-response","175","394038","0.0-1.0-7.0-3.0-1.22","17:41:09","4","","","","","","","<div>
            <img class='stim' src=""pictures/animals/2.jpg""></div><div class=""button_prompt"">
                    <b>请用数字键0-9回答</b>
                    </div>","","","","","","","","","","","","","","","","","","",""
"724","null","sub_response","html-keyboard-response","176","395039","0.0-1.0-7.0-3.0-2.22","17:41:09","4","","","","","","","<div style='text-align: center;'>
                            <span style=""color: red; font-size: 40px""><b>错误！+0 pts</b></span></div>
                            ","","learn","2","2","2","learn","9","9","[0, 1, 2, 3, 4, 5, 6, 7, 8, 9]","22","7","setsize","3S10A","animals","1","0","3","0",""
"null","null","fixation","html-keyboard-response","177","395541","0.0-1.0-7.0-3.0-0.23","17:41:09","4","","","","","","","fixation","","","","","","","","","","","","","","","","","","",""
"876","3","pic_response","html-keyboard-response","178","396418","0.0-1.0-7.0-3.0-1.23","17:41:09","4","","","","","","","<div>
            <img class='stim' src=""pictures/animals/0.jpg""></div><div class=""button_prompt"">
                    <b>请用数字键0-9回答</b>
                    </div>","","","","","","","","","","","","","","","","","","",""
"876","null","sub_response","html-keyboard-response","179","397419","0.0-1.0-7.0-3.0-2.23","17:41:09","4","","","","","","","<div style='text-align: center;'>
                            <span style=""color: green; font-size: 40px""><b>正确！+1 pts</b></span></div>
                            ","","learn","0","0","0","learn","2","2","[0, 1, 2, 3, 4, 5, 6, 7, 8, 9]","23","7","setsize","3S10A","animals","1","1","2","1",""
"null","null","fixation","html-keyboard-response","180","397921","0.0-1.0-7.0-3.0-0.24","17:41:09","4","","","","","","","fixation","","","","","","","","","","","","","","","","","","",""
"403","7","pic_response","html-keyboard-response","181","398324","0.0-1.0-7.0-3.0-1.24","17:41:09","4","","","","","","","<div>
            <img class='stim' src=""pictures/animals/1.jpg""></div><div class=""button_prompt"">
                    <b>请用数字键0-9回答</b>
                    </div>","","","","","","","","","","","","","","","","","","",""
"403","null","sub_response","html-keyboard-response","182","399326","0.0-1.0-7.0-3.0-2.24","17:41:09","4","","","","","","","<div style='text-align: center;'>
                            <span style=""color: green; font-size: 40px""><b>正确！+1 pts</b></span></div>
                            ","","learn","1","1","1","learn","6","6","[0, 1, 2, 3, 4, 5, 6, 7, 8, 9]","24","8","setsize","3S10A","animals","1","2","6","1",""
"null","null","fixation","html-keyboard-response","183","399827","0.0-1.0-7.0-3.0-0.25","17:41:09","4","","","","","","","fixation","","","","","","","","","","","","","","","","","","",""
"1059","1","pic_response","html-keyboard-response","184","400887","0.0-1.0-7.0-3.0-1.25","17:41:09","4","","","","","","","<div>
            <img class='stim' src=""pictures/animals/2.jpg""></div><div class=""button_prompt"">
                    <b>请用数字键0-9回答</b>
                    </div>","","","","","","","","","","","","","","","","","","",""
"1059","null","sub_response","html-keyboard-response","185","401888","0.0-1.0-7.0-3.0-2.25","17:41:09","4","","","","","","","<div style='text-align: center;'>
                            <span style=""color: red; font-size: 40px""><b>错误！+0 pts</b></span></div>
                            ","","learn","2","2","2","learn","9","9","[0, 1, 2, 3, 4, 5, 6, 7, 8, 9]","25","8","setsize","3S10A","animals","1","0","0","0",""
"null","null","fixation","html-keyboard-response","186","402390","0.0-1.0-7.0-3.0-0.26","17:41:09","4","","","","","","","fixation","","","","","","","","","","","","","","","","","","",""
"702","3","pic_response","html-keyboard-response","187","403092","0.0-1.0-7.0-3.0-1.26","17:41:09","4","","","","","","","<div>
            <img class='stim' src=""pictures/animals/0.jpg""></div><div class=""button_prompt"">
                    <b>请用数字键0-9回答</b>
                    </div>","","","","","","","","","","","","","","","","","","",""
"702","null","sub_response","html-keyboard-response","188","404094","0.0-1.0-7.0-3.0-2.26","17:41:09","4","","","","","","","<div style='text-align: center;'>
                            <span style=""color: green; font-size: 40px""><b>正确！+1 pts</b></span></div>
                            ","","learn","0","0","0","learn","2","2","[0, 1, 2, 3, 4, 5, 6, 7, 8, 9]","26","8","setsize","3S10A","animals","1","1","2","1",""
"null","null","fixation","html-keyboard-response","189","404596","0.0-1.0-7.0-3.0-0.27","17:41:09","4","","","","","","","fixation","","","","","","","","","","","","","","","","","","",""
"1047","2","pic_response","html-keyboard-response","190","405643","0.0-1.0-7.0-3.0-1.27","17:41:09","4","","","","","","","<div>
            <img class='stim' src=""pictures/animals/2.jpg""></div><div class=""button_prompt"">
                    <b>请用数字键0-9回答</b>
                    </div>","","","","","","","","","","","","","","","","","","",""
"1047","null","sub_response","html-keyboard-response","191","406644","0.0-1.0-7.0-3.0-2.27","17:41:09","4","","","","","","","<div style='text-align: center;'>
                            <span style=""color: red; font-size: 40px""><b>错误！+0 pts</b></span></div>
                            ","","learn","2","2","2","learn","9","9","[0, 1, 2, 3, 4, 5, 6, 7, 8, 9]","27","9","setsize","3S10A","animals","1","0","1","0",""
"null","null","fixation","html-keyboard-response","192","407147","0.0-1.0-7.0-3.0-0.28","17:41:09","4","","","","","","","fixation","","","","","","","","","","","","","","","","","","",""
"495","7","pic_response","html-keyboard-response","193","407642","0.0-1.0-7.0-3.0-1.28","17:41:09","4","","","","","","","<div>
            <img class='stim' src=""pictures/animals/1.jpg""></div><div class=""button_prompt"">
                    <b>请用数字键0-9回答</b>
                    </div>","","","","","","","","","","","","","","","","","","",""
"495","null","sub_response","html-keyboard-response","194","408644","0.0-1.0-7.0-3.0-2.28","17:41:09","4","","","","","","","<div style='text-align: center;'>
                            <span style=""color: green; font-size: 40px""><b>正确！+1 pts</b></span></div>
                            ","","learn","1","1","1","learn","6","6","[0, 1, 2, 3, 4, 5, 6, 7, 8, 9]","28","9","setsize","3S10A","animals","1","1","6","1",""
"null","null","fixation","html-keyboard-response","195","409145","0.0-1.0-7.0-3.0-0.29","17:41:09","4","","","","","","","fixation","","","","","","","","","","","","","","","","","","",""
"912","3","pic_response","html-keyboard-response","196","410058","0.0-1.0-7.0-3.0-1.29","17:41:09","4","","","","","","","<div>
            <img class='stim' src=""pictures/animals/0.jpg""></div><div class=""button_prompt"">
                    <b>请用数字键0-9回答</b>
                    </div>","","","","","","","","","","","","","","","","","","",""
"912","null","sub_response","html-keyboard-response","197","411059","0.0-1.0-7.0-3.0-2.29","17:41:09","4","","","","","","","<div style='text-align: center;'>
                            <span style=""color: green; font-size: 40px""><b>正确！+1 pts</b></span></div>
                            ","","learn","0","0","0","learn","2","2","[0, 1, 2, 3, 4, 5, 6, 7, 8, 9]","29","9","setsize","3S10A","animals","1","2","2","1",""
"null","null","fixation","html-keyboard-response","198","411560","0.0-1.0-7.0-3.0-0.30","17:41:09","4","","","","","","","fixation","","","","","","","","","","","","","","","","","","",""
"768","7","pic_response","html-keyboard-response","199","412328","0.0-1.0-7.0-3.0-1.30","17:41:09","4","","","","","","","<div>
            <img class='stim' src=""pictures/animals/1.jpg""></div><div class=""button_prompt"">
                    <b>请用数字键0-9回答</b>
                    </div>","","","","","","","","","","","","","","","","","","",""
"768","null","sub_response","html-keyboard-response","200","413330","0.0-1.0-7.0-3.0-2.30","17:41:09","4","","","","","","","<div style='text-align: center;'>
                            <span style=""color: green; font-size: 40px""><b>正确！+1 pts</b></span></div>
                            ","","learn","1","1","1","learn","6","6","[0, 1, 2, 3, 4, 5, 6, 7, 8, 9]","30","10","setsize","3S10A","animals","1","3","6","1",""
"null","null","fixation","html-keyboard-response","201","413832","0.0-1.0-7.0-3.0-0.31","17:41:09","4","","","","","","","fixation","","","","","","","","","","","","","","","","","","",""
"842","3","pic_response","html-keyboard-response","202","414675","0.0-1.0-7.0-3.0-1.31","17:41:09","4","","","","","","","<div>
            <img class='stim' src=""pictures/animals/0.jpg""></div><div class=""button_prompt"">
                    <b>请用数字键0-9回答</b>
                    </div>","","","","","","","","","","","","","","","","","","",""
"842","null","sub_response","html-keyboard-response","203","415676","0.0-1.0-7.0-3.0-2.31","17:41:09","4","","","","","","","<div style='text-align: center;'>
                            <span style=""color: green; font-size: 40px""><b>正确！+1 pts</b></span></div>
                            ","","learn","0","0","0","learn","2","2","[0, 1, 2, 3, 4, 5, 6, 7, 8, 9]","31","10","setsize","3S10A","animals","1","4","2","1",""
"null","null","fixation","html-keyboard-response","204","416177","0.0-1.0-7.0-3.0-0.32","17:41:09","4","","","","","","","fixation","","","","","","","","","","","","","","","","","","",""
"1716","8","pic_response","html-keyboard-response","205","417893","0.0-1.0-7.0-3.0-1.32","17:41:09","4","","","","","","","<div>
            <img class='stim' src=""pictures/animals/2.jpg""></div><div class=""button_prompt"">
                    <b>请用数字键0-9回答</b>
                    </div>","","","","","","","","","","","","","","","","","","",""
"1716","null","sub_response","html-keyboard-response","206","418895","0.0-1.0-7.0-3.0-2.32","17:41:09","4","","","","","","","<div style='text-align: center;'>
                            <span style=""color: red; font-size: 40px""><b>错误！+0 pts</b></span></div>
                            ","","learn","2","2","2","learn","9","9","[0, 1, 2, 3, 4, 5, 6, 7, 8, 9]","32","10","setsize","3S10A","animals","1","0","7","0",""
"null","null","fixation","html-keyboard-response","207","419396","0.0-1.0-7.0-3.0-0.33","17:41:09","4","","","","","","","fixation","","","","","","","","","","","","","","","","","","",""
"759","9","pic_response","html-keyboard-response","208","420156","0.0-1.0-7.0-3.0-1.33","17:41:09","4","","","","","","","<div>
            <img class='stim' src=""pictures/animals/2.jpg""></div><div class=""button_prompt"">
                    <b>请用数字键0-9回答</b>
                    </div>","","","","","","","","","","","","","","","","","","",""
"759","null","sub_response","html-keyboard-response","209","421157","0.0-1.0-7.0-3.0-2.33","17:41:09","4","","","","","","","<div style='text-align: center;'>
                            <span style=""color: red; font-size: 40px""><b>错误！+0 pts</b></span></div>
                            ","","learn","2","2","2","learn","9","9","[0, 1, 2, 3, 4, 5, 6, 7, 8, 9]","33","11","setsize","3S10A","animals","1","0","8","0",""
"null","null","fixation","html-keyboard-response","210","421658","0.0-1.0-7.0-3.0-0.34","17:41:09","4","","","","","","","fixation","","","","","","","","","","","","","","","","","","",""
"864","3","pic_response","html-keyboard-response","211","422522","0.0-1.0-7.0-3.0-1.34","17:41:09","4","","","","","","","<div>
            <img class='stim' src=""pictures/animals/0.jpg""></div><div class=""button_prompt"">
                    <b>请用数字键0-9回答</b>
                    </div>","","","","","","","","","","","","","","","","","","",""
"864","null","sub_response","html-keyboard-response","212","423524","0.0-1.0-7.0-3.0-2.34","17:41:09","4","","","","","","","<div style='text-align: center;'>
                            <span style=""color: green; font-size: 40px""><b>正确！+1 pts</b></span></div>
                            ","","learn","0","0","0","learn","2","2","[0, 1, 2, 3, 4, 5, 6, 7, 8, 9]","34","11","setsize","3S10A","animals","1","1","2","1",""
"null","null","fixation","html-keyboard-response","213","424026","0.0-1.0-7.0-3.0-0.35","17:41:09","4","","","","","","","fixation","","","","","","","","","","","","","","","","","","",""
"1019","7","pic_response","html-keyboard-response","214","425045","0.0-1.0-7.0-3.0-1.35","17:41:09","4","","","","","","","<div>
            <img class='stim' src=""pictures/animals/1.jpg""></div><div class=""button_prompt"">
                    <b>请用数字键0-9回答</b>
                    </div>","","","","","","","","","","","","","","","","","","",""
"1019","null","sub_response","html-keyboard-response","215","426046","0.0-1.0-7.0-3.0-2.35","17:41:09","4","","","","","","","<div style='text-align: center;'>
                            <span style=""color: green; font-size: 40px""><b>正确！+1 pts</b></span></div>
                            ","","learn","1","1","1","learn","6","6","[0, 1, 2, 3, 4, 5, 6, 7, 8, 9]","35","11","setsize","3S10A","animals","1","2","6","1",""
"null","null","fixation","html-keyboard-response","216","426549","0.0-1.0-7.0-3.0-0.36","17:41:09","4","","","","","","","fixation","","","","","","","","","","","","","","","","","","",""
"574","5","pic_response","html-keyboard-response","217","427124","0.0-1.0-7.0-3.0-1.36","17:41:09","4","","","","","","","<div>
            <img class='stim' src=""pictures/animals/2.jpg""></div><div class=""button_prompt"">
                    <b>请用数字键0-9回答</b>
                    </div>","","","","","","","","","","","","","","","","","","",""
"574","null","sub_response","html-keyboard-response","218","428126","0.0-1.0-7.0-3.0-2.36","17:41:09","4","","","","","","","<div style='text-align: center;'>
                            <span style=""color: red; font-size: 40px""><b>错误！+0 pts</b></span></div>
                            ","","learn","2","2","2","learn","9","9","[0, 1, 2, 3, 4, 5, 6, 7, 8, 9]","36","12","setsize","3S10A","animals","1","0","4","0",""
"null","null","fixation","html-keyboard-response","219","428627","0.0-1.0-7.0-3.0-0.37","17:41:09","4","","","","","","","fixation","","","","","","","","","","","","","","","","","","",""
"682","2","pic_response","html-keyboard-response","220","429310","0.0-1.0-7.0-3.0-1.37","17:41:09","4","","","","","","","<div>
            <img class='stim' src=""pictures/animals/1.jpg""></div><div class=""button_prompt"">
                    <b>请用数字键0-9回答</b>
                    </div>","","","","","","","","","","","","","","","","","","",""
"682","null","sub_response","html-keyboard-response","221","430312","0.0-1.0-7.0-3.0-2.37","17:41:09","4","","","","","","","<div style='text-align: center;'>
                            <span style=""color: red; font-size: 40px""><b>错误！+0 pts</b></span></div>
                            ","","learn","1","1","1","learn","6","6","[0, 1, 2, 3, 4, 5, 6, 7, 8, 9]","37","12","setsize","3S10A","animals","1","0","1","0",""
"null","null","fixation","html-keyboard-response","222","430814","0.0-1.0-7.0-3.0-0.38","17:41:09","4","","","","","","","fixation","","","","","","","","","","","","","","","","","","",""
"464","3","pic_response","html-keyboard-response","223","431279","0.0-1.0-7.0-3.0-1.38","17:41:09","4","","","","","","","<div>
            <img class='stim' src=""pictures/animals/0.jpg""></div><div class=""button_prompt"">
                    <b>请用数字键0-9回答</b>
                    </div>","","","","","","","","","","","","","","","","","","",""
"464","null","sub_response","html-keyboard-response","224","432281","0.0-1.0-7.0-3.0-2.38","17:41:09","4","","","","","","","<div style='text-align: center;'>
                            <span style=""color: green; font-size: 40px""><b>正确！+1 pts</b></span></div>
                            ","","learn","0","0","0","learn","2","2","[0, 1, 2, 3, 4, 5, 6, 7, 8, 9]","38","12","setsize","3S10A","animals","1","1","2","1",""
"null","null","fixation","html-keyboard-response","225","432782","0.0-1.0-7.0-3.0-0.39","17:41:09","4","","","","","","","fixation","","","","","","","","","","","","","","","","","","",""
"776","7","pic_response","html-keyboard-response","226","433559","0.0-1.0-7.0-3.0-1.39","17:41:09","4","","","","","","","<div>
            <img class='stim' src=""pictures/animals/1.jpg""></div><div class=""button_prompt"">
                    <b>请用数字键0-9回答</b>
                    </div>","","","","","","","","","","","","","","","","","","",""
"776","null","sub_response","html-keyboard-response","227","434560","0.0-1.0-7.0-3.0-2.39","17:41:09","4","","","","","","","<div style='text-align: center;'>
                            <span style=""color: green; font-size: 40px""><b>正确！+1 pts</b></span></div>
                            ","","learn","1","1","1","learn","6","6","[0, 1, 2, 3, 4, 5, 6, 7, 8, 9]","39","13","setsize","3S10A","animals","1","2","6","1",""
"null","null","fixation","html-keyboard-response","228","435061","0.0-1.0-7.0-3.0-0.40","17:41:09","4","","","","","","","fixation","","","","","","","","","","","","","","","","","","",""
"979","3","pic_response","html-keyboard-response","229","436041","0.0-1.0-7.0-3.0-1.40","17:41:09","4","","","","","","","<div>
            <img class='stim' src=""pictures/animals/0.jpg""></div><div class=""button_prompt"">
                    <b>请用数字键0-9回答</b>
                    </div>","","","","","","","","","","","","","","","","","","",""
"979","null","sub_response","html-keyboard-response","230","437043","0.0-1.0-7.0-3.0-2.40","17:41:09","4","","","","","","","<div style='text-align: center;'>
                            <span style=""color: green; font-size: 40px""><b>正确！+1 pts</b></span></div>
                            ","","learn","0","0","0","learn","2","2","[0, 1, 2, 3, 4, 5, 6, 7, 8, 9]","40","13","setsize","3S10A","animals","1","3","2","1",""
"null","null","fixation","html-keyboard-response","231","437544","0.0-1.0-7.0-3.0-0.41","17:41:09","4","","","","","","","fixation","","","","","","","","","","","","","","","","","","",""
"521","3","pic_response","html-keyboard-response","232","438065","0.0-1.0-7.0-3.0-1.41","17:41:09","4","","","","","","","<div>
            <img class='stim' src=""pictures/animals/2.jpg""></div><div class=""button_prompt"">
                    <b>请用数字键0-9回答</b>
                    </div>","","","","","","","","","","","","","","","","","","",""
"521","null","sub_response","html-keyboard-response","233","439067","0.0-1.0-7.0-3.0-2.41","17:41:09","4","","","","","","","<div style='text-align: center;'>
                            <span style=""color: red; font-size: 40px""><b>错误！+0 pts</b></span></div>
                            ","","learn","2","2","2","learn","9","9","[0, 1, 2, 3, 4, 5, 6, 7, 8, 9]","41","13","setsize","3S10A","animals","1","0","2","0",""
"null","null","fixation","html-keyboard-response","234","439568","0.0-1.0-7.0-3.0-0.42","17:41:09","4","","","","","","","fixation","","","","","","","","","","","","","","","","","","",""
"902","5","pic_response","html-keyboard-response","235","440471","0.0-1.0-7.0-3.0-1.42","17:41:09","4","","","","","","","<div>
            <img class='stim' src=""pictures/animals/2.jpg""></div><div class=""button_prompt"">
                    <b>请用数字键0-9回答</b>
                    </div>","","","","","","","","","","","","","","","","","","",""
"902","null","sub_response","html-keyboard-response","236","441473","0.0-1.0-7.0-3.0-2.42","17:41:09","4","","","","","","","<div style='text-align: center;'>
                            <span style=""color: red; font-size: 40px""><b>错误！+0 pts</b></span></div>
                            ","","learn","2","2","2","learn","9","9","[0, 1, 2, 3, 4, 5, 6, 7, 8, 9]","42","14","setsize","3S10A","animals","1","0","4","0",""
"null","null","fixation","html-keyboard-response","237","441975","0.0-1.0-7.0-3.0-0.43","17:41:09","4","","","","","","","fixation","","","","","","","","","","","","","","","","","","",""
"634","7","pic_response","html-keyboard-response","238","442609","0.0-1.0-7.0-3.0-1.43","17:41:09","4","","","","","","","<div>
            <img class='stim' src=""pictures/animals/1.jpg""></div><div class=""button_prompt"">
                    <b>请用数字键0-9回答</b>
                    </div>","","","","","","","","","","","","","","","","","","",""
"634","null","sub_response","html-keyboard-response","239","443612","0.0-1.0-7.0-3.0-2.43","17:41:09","4","","","","","","","<div style='text-align: center;'>
                            <span style=""color: green; font-size: 40px""><b>正确！+1 pts</b></span></div>
                            ","","learn","1","1","1","learn","6","6","[0, 1, 2, 3, 4, 5, 6, 7, 8, 9]","43","14","setsize","3S10A","animals","1","1","6","1",""
"null","null","fixation","html-keyboard-response","240","444114","0.0-1.0-7.0-3.0-0.44","17:41:09","4","","","","","","","fixation","","","","","","","","","","","","","","","","","","",""
"891","3","pic_response","html-keyboard-response","241","445006","0.0-1.0-7.0-3.0-1.44","17:41:09","4","","","","","","","<div>
            <img class='stim' src=""pictures/animals/0.jpg""></div><div class=""button_prompt"">
                    <b>请用数字键0-9回答</b>
                    </div>","","","","","","","","","","","","","","","","","","",""
"891","null","sub_response","html-keyboard-response","242","446007","0.0-1.0-7.0-3.0-2.44","17:41:09","4","","","","","","","<div style='text-align: center;'>
                            <span style=""color: green; font-size: 40px""><b>正确！+1 pts</b></span></div>
                            ","","learn","0","0","0","learn","2","2","[0, 1, 2, 3, 4, 5, 6, 7, 8, 9]","44","14","setsize","3S10A","animals","1","2","2","1",""
"null","null","fixation","html-keyboard-response","243","446521","0.0-1.0-7.0-3.0-0.45","17:41:09","4","","","","","","","fixation","","","","","","","","","","","","","","","","","","",""
"411","0","pic_response","html-keyboard-response","244","446933","0.0-1.0-7.0-3.0-1.45","17:41:09","4","","","","","","","<div>
            <img class='stim' src=""pictures/animals/2.jpg""></div><div class=""button_prompt"">
                    <b>请用数字键0-9回答</b>
                    </div>","","","","","","","","","","","","","","","","","","",""
"411","null","sub_response","html-keyboard-response","245","447934","0.0-1.0-7.0-3.0-2.45","17:41:09","4","","","","","","","<div style='text-align: center;'>
                            <span style=""color: green; font-size: 40px""><b>正确！+1 pts</b></span></div>
                            ","","learn","2","2","2","learn","9","9","[0, 1, 2, 3, 4, 5, 6, 7, 8, 9]","45","15","setsize","3S10A","animals","1","3","9","1",""
"null","null","fixation","html-keyboard-response","246","448436","0.0-1.0-7.0-3.0-0.46","17:41:09","4","","","","","","","fixation","","","","","","","","","","","","","","","","","","",""
"529","3","pic_response","html-keyboard-response","247","448966","0.0-1.0-7.0-3.0-1.46","17:41:09","4","","","","","","","<div>
            <img class='stim' src=""pictures/animals/0.jpg""></div><div class=""button_prompt"">
                    <b>请用数字键0-9回答</b>
                    </div>","","","","","","","","","","","","","","","","","","",""
"529","null","sub_response","html-keyboard-response","248","449967","0.0-1.0-7.0-3.0-2.46","17:41:09","4","","","","","","","<div style='text-align: center;'>
                            <span style=""color: green; font-size: 40px""><b>正确！+1 pts</b></span></div>
                            ","","learn","0","0","0","learn","2","2","[0, 1, 2, 3, 4, 5, 6, 7, 8, 9]","46","15","setsize","3S10A","animals","1","4","2","1",""
"null","null","fixation","html-keyboard-response","249","450469","0.0-1.0-7.0-3.0-0.47","17:41:09","4","","","","","","","fixation","","","","","","","","","","","","","","","","","","",""
"732","7","pic_response","html-keyboard-response","250","451201","0.0-1.0-7.0-3.0-1.47","17:41:09","4","","","","","","","<div>
            <img class='stim' src=""pictures/animals/1.jpg""></div><div class=""button_prompt"">
                    <b>请用数字键0-9回答</b>
                    </div>","","","","","","","","","","","","","","","","","","",""
"732","null","sub_response","html-keyboard-response","251","452202","0.0-1.0-7.0-3.0-2.47","17:41:09","4","","","","","","","<div style='text-align: center;'>
                            <span style=""color: green; font-size: 40px""><b>正确！+1 pts</b></span></div>
                            ","","learn","1","1","1","learn","6","6","[0, 1, 2, 3, 4, 5, 6, 7, 8, 9]","47","15","setsize","3S10A","animals","1","5","6","1",""
"null","null","fixation","html-keyboard-response","252","452704","0.0-1.0-7.0-3.0-0.48","17:41:09","4","","","","","","","fixation","","","","","","","","","","","","","","","","","","",""
"361","0","pic_response","html-keyboard-response","253","453066","0.0-1.0-7.0-3.0-1.48","17:41:09","4","","","","","","","<div>
            <img class='stim' src=""pictures/animals/2.jpg""></div><div class=""button_prompt"">
                    <b>请用数字键0-9回答</b>
                    </div>","","","","","","","","","","","","","","","","","","",""
"361","null","sub_response","html-keyboard-response","254","454067","0.0-1.0-7.0-3.0-2.48","17:41:09","4","","","","","","","<div style='text-align: center;'>
                            <span style=""color: green; font-size: 40px""><b>正确！+1 pts</b></span></div>
                            ","","learn","2","2","2","learn","9","9","[0, 1, 2, 3, 4, 5, 6, 7, 8, 9]","48","16","setsize","3S10A","animals","1","6","9","1",""
"null","null","fixation","html-keyboard-response","255","454568","0.0-1.0-7.0-3.0-0.49","17:41:09","4","","","","","","","fixation","","","","","","","","","","","","","","","","","","",""
"593","3","pic_response","html-keyboard-response","256","455162","0.0-1.0-7.0-3.0-1.49","17:41:09","4","","","","","","","<div>
            <img class='stim' src=""pictures/animals/0.jpg""></div><div class=""button_prompt"">
                    <b>请用数字键0-9回答</b>
                    </div>","","","","","","","","","","","","","","","","","","",""
"593","null","sub_response","html-keyboard-response","257","456165","0.0-1.0-7.0-3.0-2.49","17:41:09","4","","","","","","","<div style='text-align: center;'>
                            <span style=""color: green; font-size: 40px""><b>正确！+1 pts</b></span></div>
                            ","","learn","0","0","0","learn","2","2","[0, 1, 2, 3, 4, 5, 6, 7, 8, 9]","49","16","setsize","3S10A","animals","1","7","2","1",""
"1271"," ","","html-keyboard-response","258","457438","0.0-1.0-8.0","17:41:09","4","","","","","","","<div style=""font-size: 25px""><p>距下一个实验开始还有</p><div style=""font-size: 50px; color: blue""><p><span id=""clock"">1:00</span></div></p><p>按""空格""跳过休息</p></div>","","","","","","","","","","","","","","","","","","",""
"","","","preload","259","457760","0.0-1.0-9.0-0.0","17:41:09","4","true","false","[]","[]","[]","","","","","","","","","","","","","","","","","","","","",""
"1176"," ","","html-keyboard-response","260","458937","0.0-1.0-9.0-1.0","17:41:09","4","","","","","","","<div style='font-size: 32px; text-align: center;'
                    <p>请学习图片和数字之间的对应关系</p>
                    <p>我们将<span style='color: blue'><b> 告诉 </b></span>您选择的对错。请根据反馈学习。</p>
                    <p>请按""空格""继续实验。</p></div>","","","","","","","","","","","","","","","","","","",""
"6582"," ","inst","html-keyboard-response","261","465519","0.0-1.0-9.0-2.0","17:41:09","4","","","","","","","<img class='instruct_stim' src=""instruction/sports10.PNG""></div>","","","","","","","","","","","","","","","","","","",""
"null","null","fixation","html-keyboard-response","262","466020","0.0-1.0-9.0-3.0-0.0","17:41:09","4","","","","","","","fixation","","","","","","","","","","","","","","","","","","",""
"1185","1","pic_response","html-keyboard-response","263","467206","0.0-1.0-9.0-3.0-1.0","17:41:09","4","","","","","","","<div>
            <img class='stim' src=""pictures/sports/0.jpg""></div><div class=""button_prompt"">
                    <b>请用数字键0-9回答</b>
                    </div>","","","","","","","","","","","","","","","","","","",""
"1185","null","sub_response","html-keyboard-response","264","468207","0.0-1.0-9.0-3.0-2.0","17:41:09","4","","","","","","","<div style='text-align: center;'>
                            <span style=""color: green; font-size: 40px""><b>正确！+1 pts</b></span></div>
                            ","","learn","0","0","0","learn","0","0","[0, 1, 2, 3, 4, 5, 6, 7, 8, 9]","0","0","setsize","10S10A","sports","2","8","0","1",""
"null","null","fixation","html-keyboard-response","265","468710","0.0-1.0-9.0-3.0-0.1","17:41:09","4","","","","","","","fixation","","","","","","","","","","","","","","","","","","",""
"2858","9","pic_response","html-keyboard-response","266","471568","0.0-1.0-9.0-3.0-1.1","17:41:09","4","","","","","","","<div>
            <img class='stim' src=""pictures/sports/8.jpg""></div><div class=""button_prompt"">
                    <b>请用数字键0-9回答</b>
                    </div>","","","","","","","","","","","","","","","","","","",""
"2858","null","sub_response","html-keyboard-response","267","472569","0.0-1.0-9.0-3.0-2.1","17:41:09","4","","","","","","","<div style='text-align: center;'>
                            <span style=""color: green; font-size: 40px""><b>正确！+1 pts</b></span></div>
                            ","","learn","8","8","8","learn","8","8","[0, 1, 2, 3, 4, 5, 6, 7, 8, 9]","1","0","setsize","10S10A","sports","2","9","8","1",""
"null","null","fixation","html-keyboard-response","268","473071","0.0-1.0-9.0-3.0-0.2","17:41:09","4","","","","","","","fixation","","","","","","","","","","","","","","","","","","",""
"1984","1","pic_response","html-keyboard-response","269","475055","0.0-1.0-9.0-3.0-1.2","17:41:09","4","","","","","","","<div>
            <img class='stim' src=""pictures/sports/3.jpg""></div><div class=""button_prompt"">
                    <b>请用数字键0-9回答</b>
                    </div>","","","","","","","","","","","","","","","","","","",""
"1984","null","sub_response","html-keyboard-response","270","476057","0.0-1.0-9.0-3.0-2.2","17:41:09","4","","","","","","","<div style='text-align: center;'>
                            <span style=""color: red; font-size: 40px""><b>错误！+0 pts</b></span></div>
                            ","","learn","3","3","3","learn","3","3","[0, 1, 2, 3, 4, 5, 6, 7, 8, 9]","2","0","setsize","10S10A","sports","2","0","0","0",""
"null","null","fixation","html-keyboard-response","271","476558","0.0-1.0-9.0-3.0-0.3","17:41:09","4","","","","","","","fixation","","","","","","","","","","","","","","","","","","",""
"1529","1","pic_response","html-keyboard-response","272","478088","0.0-1.0-9.0-3.0-1.3","17:41:09","4","","","","","","","<div>
            <img class='stim' src=""pictures/sports/4.jpg""></div><div class=""button_prompt"">
                    <b>请用数字键0-9回答</b>
                    </div>","","","","","","","","","","","","","","","","","","",""
"1529","null","sub_response","html-keyboard-response","273","479088","0.0-1.0-9.0-3.0-2.3","17:41:09","4","","","","","","","<div style='text-align: center;'>
                            <span style=""color: red; font-size: 40px""><b>错误！+0 pts</b></span></div>
                            ","","learn","4","4","4","learn","4","4","[0, 1, 2, 3, 4, 5, 6, 7, 8, 9]","3","0","setsize","10S10A","sports","2","0","0","0",""
"null","null","fixation","html-keyboard-response","274","479591","0.0-1.0-9.0-3.0-0.4","17:41:09","4","","","","","","","fixation","","","","","","","","","","","","","","","","","","",""
"1305","2","pic_response","html-keyboard-response","275","480896","0.0-1.0-9.0-3.0-1.4","17:41:09","4","","","","","","","<div>
            <img class='stim' src=""pictures/sports/9.jpg""></div><div class=""button_prompt"">
                    <b>请用数字键0-9回答</b>
                    </div>","","","","","","","","","","","","","","","","","","",""
"1305","null","sub_response","html-keyboard-response","276","481897","0.0-1.0-9.0-3.0-2.4","17:41:09","4","","","","","","","<div style='text-align: center;'>
                            <span style=""color: red; font-size: 40px""><b>错误！+0 pts</b></span></div>
                            ","","learn","9","9","9","learn","9","9","[0, 1, 2, 3, 4, 5, 6, 7, 8, 9]","4","0","setsize","10S10A","sports","2","0","1","0",""
"null","null","fixation","html-keyboard-response","277","482399","0.0-1.0-9.0-3.0-0.5","17:41:09","4","","","","","","","fixation","","","","","","","","","","","","","","","","","","",""
"1339","3","pic_response","html-keyboard-response","278","483739","0.0-1.0-9.0-3.0-1.5","17:41:09","4","","","","","","","<div>
            <img class='stim' src=""pictures/sports/5.jpg""></div><div class=""button_prompt"">
                    <b>请用数字键0-9回答</b>
                    </div>","","","","","","","","","","","","","","","","","","",""
"1339","null","sub_response","html-keyboard-response","279","484740","0.0-1.0-9.0-3.0-2.5","17:41:09","4","","","","","","","<div style='text-align: center;'>
                            <span style=""color: red; font-size: 40px""><b>错误！+0 pts</b></span></div>
                            ","","learn","5","5","5","learn","5","5","[0, 1, 2, 3, 4, 5, 6, 7, 8, 9]","5","0","setsize","10S10A","sports","2","0","2","0",""
"null","null","fixation","html-keyboard-response","280","485242","0.0-1.0-9.0-3.0-0.6","17:41:09","4","","","","","","","fixation","","","","","","","","","","","","","","","","","","",""
"2347","4","pic_response","html-keyboard-response","281","487590","0.0-1.0-9.0-3.0-1.6","17:41:09","4","","","","","","","<div>
            <img class='stim' src=""pictures/sports/6.jpg""></div><div class=""button_prompt"">
                    <b>请用数字键0-9回答</b>
                    </div>","","","","","","","","","","","","","","","","","","",""
"2347","null","sub_response","html-keyboard-response","282","488592","0.0-1.0-9.0-3.0-2.6","17:41:09","4","","","","","","","<div style='text-align: center;'>
                            <span style=""color: red; font-size: 40px""><b>错误！+0 pts</b></span></div>
                            ","","learn","6","6","6","learn","6","6","[0, 1, 2, 3, 4, 5, 6, 7, 8, 9]","6","0","setsize","10S10A","sports","2","0","3","0",""
"null","null","fixation","html-keyboard-response","283","489093","0.0-1.0-9.0-3.0-0.7","17:41:09","4","","","","","","","fixation","","","","","","","","","","","","","","","","","","",""
"2315","9","pic_response","html-keyboard-response","284","491410","0.0-1.0-9.0-3.0-1.7","17:41:09","4","","","","","","","<div>
            <img class='stim' src=""pictures/sports/7.jpg""></div><div class=""button_prompt"">
                    <b>请用数字键0-9回答</b>
                    </div>","","","","","","","","","","","","","","","","","","",""
"2315","null","sub_response","html-keyboard-response","285","492411","0.0-1.0-9.0-3.0-2.7","17:41:09","4","","","","","","","<div style='text-align: center;'>
                            <span style=""color: red; font-size: 40px""><b>错误！+0 pts</b></span></div>
                            ","","learn","7","7","7","learn","7","7","[0, 1, 2, 3, 4, 5, 6, 7, 8, 9]","7","0","setsize","10S10A","sports","2","0","8","0",""
"null","null","fixation","html-keyboard-response","286","492913","0.0-1.0-9.0-3.0-0.8","17:41:09","4","","","","","","","fixation","","","","","","","","","","","","","","","","","","",""
"1055","1","pic_response","html-keyboard-response","287","493969","0.0-1.0-9.0-3.0-1.8","17:41:09","4","","","","","","","<div>
            <img class='stim' src=""pictures/sports/2.jpg""></div><div class=""button_prompt"">
                    <b>请用数字键0-9回答</b>
                    </div>","","","","","","","","","","","","","","","","","","",""
"1055","null","sub_response","html-keyboard-response","288","494971","0.0-1.0-9.0-3.0-2.8","17:41:09","4","","","","","","","<div style='text-align: center;'>
                            <span style=""color: red; font-size: 40px""><b>错误！+0 pts</b></span></div>
                            ","","learn","2","2","2","learn","2","2","[0, 1, 2, 3, 4, 5, 6, 7, 8, 9]","8","0","setsize","10S10A","sports","2","0","0","0",""
"null","null","fixation","html-keyboard-response","289","495473","0.0-1.0-9.0-3.0-0.9","17:41:09","4","","","","","","","fixation","","","","","","","","","","","","","","","","","","",""
"1029","2","pic_response","html-keyboard-response","290","496502","0.0-1.0-9.0-3.0-1.9","17:41:09","4","","","","","","","<div>
            <img class='stim' src=""pictures/sports/1.jpg""></div><div class=""button_prompt"">
                    <b>请用数字键0-9回答</b>
                    </div>","","","","","","","","","","","","","","","","","","",""
"1029","null","sub_response","html-keyboard-response","291","497503","0.0-1.0-9.0-3.0-2.9","17:41:09","4","","","","","","","<div style='text-align: center;'>
                            <span style=""color: green; font-size: 40px""><b>正确！+1 pts</b></span></div>
                            ","","learn","1","1","1","learn","1","1","[0, 1, 2, 3, 4, 5, 6, 7, 8, 9]","9","0","setsize","10S10A","sports","2","1","1","1",""
"null","null","fixation","html-keyboard-response","292","498004","0.0-1.0-9.0-3.0-0.10","17:41:09","4","","","","","","","fixation","","","","","","","","","","","","","","","","","","",""
"1506","4","pic_response","html-keyboard-response","293","499510","0.0-1.0-9.0-3.0-1.10","17:41:09","4","","","","","","","<div>
            <img class='stim' src=""pictures/sports/5.jpg""></div><div class=""button_prompt"">
                    <b>请用数字键0-9回答</b>
                    </div>","","","","","","","","","","","","","","","","","","",""
"1506","null","sub_response","html-keyboard-response","294","500512","0.0-1.0-9.0-3.0-2.10","17:41:09","4","","","","","","","<div style='text-align: center;'>
                            <span style=""color: red; font-size: 40px""><b>错误！+0 pts</b></span></div>
                            ","","learn","5","5","5","learn","5","5","[0, 1, 2, 3, 4, 5, 6, 7, 8, 9]","10","1","setsize","10S10A","sports","2","0","3","0",""
"null","null","fixation","html-keyboard-response","295","501013","0.0-1.0-9.0-3.0-0.11","17:41:09","4","","","","","","","fixation","","","","","","","","","","","","","","","","","","",""
"1007","5","pic_response","html-keyboard-response","296","502021","0.0-1.0-9.0-3.0-1.11","17:41:09","4","","","","","","","<div>
            <img class='stim' src=""pictures/sports/4.jpg""></div><div class=""button_prompt"">
                    <b>请用数字键0-9回答</b>
                    </div>","","","","","","","","","","","","","","","","","","",""
"1007","null","sub_response","html-keyboard-response","297","503022","0.0-1.0-9.0-3.0-2.11","17:41:09","4","","","","","","","<div style='text-align: center;'>
                            <span style=""color: green; font-size: 40px""><b>正确！+1 pts</b></span></div>
                            ","","learn","4","4","4","learn","4","4","[0, 1, 2, 3, 4, 5, 6, 7, 8, 9]","11","1","setsize","10S10A","sports","2","1","4","1",""
"null","null","fixation","html-keyboard-response","298","503523","0.0-1.0-9.0-3.0-0.12","17:41:09","4","","","","","","","fixation","","","","","","","","","","","","","","","","","","",""
"1573","2","pic_response","html-keyboard-response","299","505097","0.0-1.0-9.0-3.0-1.12","17:41:09","4","","","","","","","<div>
            <img class='stim' src=""pictures/sports/9.jpg""></div><div class=""button_prompt"">
                    <b>请用数字键0-9回答</b>
                    </div>","","","","","","","","","","","","","","","","","","",""
"1573","null","sub_response","html-keyboard-response","300","506099","0.0-1.0-9.0-3.0-2.12","17:41:09","4","","","","","","","<div style='text-align: center;'>
                            <span style=""color: red; font-size: 40px""><b>错误！+0 pts</b></span></div>
                            ","","learn","9","9","9","learn","9","9","[0, 1, 2, 3, 4, 5, 6, 7, 8, 9]","12","1","setsize","10S10A","sports","2","0","1","0",""
"null","null","fixation","html-keyboard-response","301","506600","0.0-1.0-9.0-3.0-0.13","17:41:09","4","","","","","","","fixation","","","","","","","","","","","","","","","","","","",""
"739","6","pic_response","html-keyboard-response","302","507340","0.0-1.0-9.0-3.0-1.13","17:41:09","4","","","","","","","<div>
            <img class='stim' src=""pictures/sports/7.jpg""></div><div class=""button_prompt"">
                    <b>请用数字键0-9回答</b>
                    </div>","","","","","","","","","","","","","","","","","","",""
"739","null","sub_response","html-keyboard-response","303","508341","0.0-1.0-9.0-3.0-2.13","17:41:09","4","","","","","","","<div style='text-align: center;'>
                            <span style=""color: red; font-size: 40px""><b>错误！+0 pts</b></span></div>
                            ","","learn","7","7","7","learn","7","7","[0, 1, 2, 3, 4, 5, 6, 7, 8, 9]","13","1","setsize","10S10A","sports","2","0","5","0",""
"null","null","fixation","html-keyboard-response","304","508843","0.0-1.0-9.0-3.0-0.14","17:41:09","4","","","","","","","fixation","","","","","","","","","","","","","","","","","","",""
"1294","9","pic_response","html-keyboard-response","305","510137","0.0-1.0-9.0-3.0-1.14","17:41:09","4","","","","","","","<div>
            <img class='stim' src=""pictures/sports/8.jpg""></div><div class=""button_prompt"">
                    <b>请用数字键0-9回答</b>
                    </div>","","","","","","","","","","","","","","","","","","",""
"1294","null","sub_response","html-keyboard-response","306","511138","0.0-1.0-9.0-3.0-2.14","17:41:09","4","","","","","","","<div style='text-align: center;'>
                            <span style=""color: green; font-size: 40px""><b>正确！+1 pts</b></span></div>
                            ","","learn","8","8","8","learn","8","8","[0, 1, 2, 3, 4, 5, 6, 7, 8, 9]","14","1","setsize","10S10A","sports","2","1","8","1",""
"null","null","fixation","html-keyboard-response","307","511640","0.0-1.0-9.0-3.0-0.15","17:41:09","4","","","","","","","fixation","","","","","","","","","","","","","","","","","","",""
"1945","2","pic_response","html-keyboard-response","308","513585","0.0-1.0-9.0-3.0-1.15","17:41:09","4","","","","","","","<div>
            <img class='stim' src=""pictures/sports/1.jpg""></div><div class=""button_prompt"">
                    <b>请用数字键0-9回答</b>
                    </div>","","","","","","","","","","","","","","","","","","",""
"1945","null","sub_response","html-keyboard-response","309","514587","0.0-1.0-9.0-3.0-2.15","17:41:09","4","","","","","","","<div style='text-align: center;'>
                            <span style=""color: green; font-size: 40px""><b>正确！+1 pts</b></span></div>
                            ","","learn","1","1","1","learn","1","1","[0, 1, 2, 3, 4, 5, 6, 7, 8, 9]","15","1","setsize","10S10A","sports","2","2","1","1",""
"null","null","fixation","html-keyboard-response","310","515088","0.0-1.0-9.0-3.0-0.16","17:41:09","4","","","","","","","fixation","","","","","","","","","","","","","","","","","","",""
"933","1","pic_response","html-keyboard-response","311","516022","0.0-1.0-9.0-3.0-1.16","17:41:09","4","","","","","","","<div>
            <img class='stim' src=""pictures/sports/0.jpg""></div><div class=""button_prompt"">
                    <b>请用数字键0-9回答</b>
                    </div>","","","","","","","","","","","","","","","","","","",""
"933","null","sub_response","html-keyboard-response","312","517023","0.0-1.0-9.0-3.0-2.16","17:41:09","4","","","","","","","<div style='text-align: center;'>
                            <span style=""color: green; font-size: 40px""><b>正确！+1 pts</b></span></div>
                            ","","learn","0","0","0","learn","0","0","[0, 1, 2, 3, 4, 5, 6, 7, 8, 9]","16","1","setsize","10S10A","sports","2","3","0","1",""
"null","null","fixation","html-keyboard-response","313","517538","0.0-1.0-9.0-3.0-0.17","17:41:09","4","","","","","","","fixation","","","","","","","","","","","","","","","","","","",""
"969","0","pic_response","html-keyboard-response","314","518509","0.0-1.0-9.0-3.0-1.17","17:41:09","4","","","","","","","<div>
            <img class='stim' src=""pictures/sports/3.jpg""></div><div class=""button_prompt"">
                    <b>请用数字键0-9回答</b>
                    </div>","","","","","","","","","","","","","","","","","","",""
"969","null","sub_response","html-keyboard-response","315","519510","0.0-1.0-9.0-3.0-2.17","17:41:09","4","","","","","","","<div style='text-align: center;'>
                            <span style=""color: red; font-size: 40px""><b>错误！+0 pts</b></span></div>
                            ","","learn","3","3","3","learn","3","3","[0, 1, 2, 3, 4, 5, 6, 7, 8, 9]","17","1","setsize","10S10A","sports","2","0","9","0",""
"null","null","fixation","html-keyboard-response","316","520011","0.0-1.0-9.0-3.0-0.18","17:41:09","4","","","","","","","fixation","","","","","","","","","","","","","","","","","","",""
"1469","6","pic_response","html-keyboard-response","317","521481","0.0-1.0-9.0-3.0-1.18","17:41:09","4","","","","","","","<div>
            <img class='stim' src=""pictures/sports/6.jpg""></div><div class=""button_prompt"">
                    <b>请用数字键0-9回答</b>
                    </div>","","","","","","","","","","","","","","","","","","",""
"1469","null","sub_response","html-keyboard-response","318","522482","0.0-1.0-9.0-3.0-2.18","17:41:09","4","","","","","","","<div style='text-align: center;'>
                            <span style=""color: red; font-size: 40px""><b>错误！+0 pts</b></span></div>
                            ","","learn","6","6","6","learn","6","6","[0, 1, 2, 3, 4, 5, 6, 7, 8, 9]","18","1","setsize","10S10A","sports","2","0","5","0",""
"null","null","fixation","html-keyboard-response","319","522998","0.0-1.0-9.0-3.0-0.19","17:41:09","4","","","","","","","fixation","","","","","","","","","","","","","","","","","","",""
"623","5","pic_response","html-keyboard-response","320","523623","0.0-1.0-9.0-3.0-1.19","17:41:09","4","","","","","","","<div>
