"rt","response","screen_id","trial_type","trial_index","time_elapsed","internal_node_id","start_time","n_Prac","success","timeout","failed_images","failed_audio","failed_video","view_history","stimulus","question_order","stage","s","word","word_id","phase","a_cor","a_real","a_ava","trial","tps","task_type","block_typ","pic_typ","block_id","cum_r","a","r","plugin_name"
"40500","{""sub_id"":""60"",""task_type"":""task1"",""name"":""冯晓"",""gender"":""女""}","basic_info","survey-html-form","0","40505","0.0-0.0","18:34:15","3","","","","","","","","","","","","","","","","","","","","","","","","","",""
"","","","preload","1","43178","0.0-1.0-0.0","18:34:15","3","true","false","[]","[]","[]","","","","","","","","","","","","","","","","","","","","",""
"","","","preload","2","43346","0.0-1.0-1.0","18:34:15","3","true","false","[]","[]","[]","","","","","","","","","","","","","","","","","","","","",""
"","","","fullscreen","3","115290","0.0-1.0-2.0","18:34:15","3","true","","","","","","","","","","","","","","","","","","","","","","","","",""
"29066","","instruct","instructions","4","144356","0.0-1.0-3.0-0.0","18:34:15","3","","","","","","[{""page_index"":0,""viewing_time"":14716},{""page_index"":1,""viewing_time"":7994},{""page_index"":2,""viewing_time"":6355}]","","","","","","","","","","","","","","","","","","","",""
"12065","{""Q0"":"""",""task1"":""<span style='font-size: 24px'>学习图片和数字的对应关系</span>"",""task2"":""<span style='font-size: 24px'> 数字键1-3 </span>"",""task3"":""<span style='font-size: 24px'> 看到图片选出正确对应的数字 </span>""}","question","survey-multi-choice","5","156425","0.0-1.0-3.0-1.0","18:34:15","3","","","","","","","","[0,1,2,3]","","","","","","","","","","","","","","","","","",""
"3186"," ","inst_q","html-keyboard-response","6","159614","0.0-1.0-3.0-2.0","18:34:15","3","","","","","","","inst","","1","","","","","","","","","","","","","","","","",""
"8051","","instruct","instructions","7","167665","0.0-1.0-3.1-0.1","18:34:15","3","","","","","","[{""page_index"":0,""viewing_time"":2505},{""page_index"":1,""viewing_time"":2900},{""page_index"":2,""viewing_time"":2646}]","","","","","","","","","","","","","","","","","","","",""
"11855","{""Q0"":"""",""task1"":""<span style='font-size: 24px'>选择正确按钮获得更多能量</span>"",""task2"":""<span style='font-size: 24px'> 数字键1-3 </span>"",""task3"":""<span style='font-size: 24px'> 看到图片选出正确对应的数字 </span>""}","question","survey-multi-choice","8","179522","0.0-1.0-3.1-1.1","18:34:15","3","","","","","","","","[0,1,2,3]","","","","","","","","","","","","","","","","","",""
"1471"," ","inst_q","html-keyboard-response","9","180995","0.0-1.0-3.1-2.1","18:34:15","3","","","","","","","inst","","1","","","","","","","","","","","","","","","","",""
"13207","","instruct","instructions","10","194204","0.0-1.0-3.2-0.2","18:34:15","3","","","","","","[{""page_index"":0,""viewing_time"":5514},{""page_index"":1,""viewing_time"":3826},{""page_index"":2,""viewing_time"":3867}]","","","","","","","","","","","","","","","","","","","",""
"13525","{""Q0"":"""",""task1"":""<span style='font-size: 24px'>学习图片和数字的对应关系</span>"",""task2"":""<span style='font-size: 24px'> 数字键1-3 </span>"",""task3"":""<span style='font-size: 24px'> 看到图片选出正确对应的数字 </span>""}","question","survey-multi-choice","11","207732","0.0-1.0-3.2-1.2","18:34:15","3","","","","","","","","[0,1,2,3]","","","","","","","","","","","","","","","","","",""
"1898"," ","inst_q","html-keyboard-response","12","209633","0.0-1.0-3.2-2.2","18:34:15","3","","","","","","","inst","","1","","","","","","","","","","","","","","","","",""
"5112","","instruct","instructions","13","214745","0.0-1.0-3.3-0.3","18:34:15","3","","","","","","[{""page_index"":0,""viewing_time"":2365},{""page_index"":1,""viewing_time"":864},{""page_index"":2,""viewing_time"":1883}]","","","","","","","","","","","","","","","","","","","",""
"12303","{""Q0"":"""",""task1"":""<span style='font-size: 24px'>学习图片和数字的对应关系</span>"",""task2"":""<span style='font-size: 24px'> 图片下方标注为可用的数字键（数字键1-3或0-9） </span>"",""task3"":""<span style='font-size: 24px'> 看到图片选出正确对应的数字 </span>""}","question","survey-multi-choice","14","227052","0.0-1.0-3.3-1.3","18:34:15","3","","","","","","","","[0,1,2,3]","","","","","","","","","","","","","","","","","",""
"4635"," ","inst_q","html-keyboard-response","15","231688","0.0-1.0-3.3-2.3","18:34:15","3","","","","","","","inst","","1","","","","","","","","","","","","","","","","",""
"","","","preload","16","231812","0.0-1.0-4.0-0.0","18:34:15","3","true","false","[]","[]","[]","","","","","","","","","","","","","","","","","","","","",""
"2203"," ","","html-keyboard-response","17","234018","0.0-1.0-4.0-1.0","18:34:15","3","","","","","","","<div style='font-size: 32px; text-align: center;'
                    <p>请学习图片和数字之间的对应关系</p>
                    <p>我们将<span style='color: blue'><b> 告诉 </b></span>您选择的对错。请根据反馈学习。</p>
                    <p>请按""空格""继续实验。</p></div>","","","","","","","","","","","","","","","","","","",""
"5632"," ","inst","html-keyboard-response","18","239652","0.0-1.0-4.0-2.0","18:34:15","3","","","","","","","<img class='instruct_stim' src=""instruction/prac3.PNG""></div>","","","","","","","","","","","","","","","","","","",""
"null","null","fixation","html-keyboard-response","19","240166","0.0-1.0-4.0-3.0-0.0","18:34:15","3","","","","","","","fixation","","","","","","","","","","","","","","","","","","",""
"null","null","pic_response","html-keyboard-response","20","243169","0.0-1.0-4.0-3.0-1.0","18:34:15","3","","","","","","","<div>
            <img class='stim' src=""pictures/prac/2.jpg""></div><div class=""button_prompt"">
                        <b>请用数字键1-3回答</b>
                        </div>","","","","","","","","","","","","","","","","","","",""
"null","null","sub_response","html-keyboard-response","21","244171","0.0-1.0-4.0-3.0-2.0","18:34:15","3","","","","","","","<div style='text-align: center;'>
                            <span style=""color: red; font-size: 40px""><b>错误！+0 pts</b></span></div>
                            ","","learn","2","2","2","learn","2","2","[0, 1, 2]","0","0","setsize","99","prac","0","0","999","0",""
"null","null","fixation","html-keyboard-response","22","244672","0.0-1.0-4.0-3.0-0.1","18:34:15","3","","","","","","","fixation","","","","","","","","","","","","","","","","","","",""
"1167","2","pic_response","html-keyboard-response","23","245840","0.0-1.0-4.0-3.0-1.1","18:34:15","3","","","","","","","<div>
            <img class='stim' src=""pictures/prac/0.jpg""></div><div class=""button_prompt"">
                        <b>请用数字键1-3回答</b>
                        </div>","","","","","","","","","","","","","","","","","","",""
"1167","null","sub_response","html-keyboard-response","24","246844","0.0-1.0-4.0-3.0-2.1","18:34:15","3","","","","","","","<div style='text-align: center;'>
                            <span style=""color: red; font-size: 40px""><b>错误！+0 pts</b></span></div>
                            ","","learn","0","0","0","learn","0","0","[0, 1, 2]","1","0","setsize","99","prac","0","0","1","0",""
"null","null","fixation","html-keyboard-response","25","247347","0.0-1.0-4.0-3.0-0.2","18:34:15","3","","","","","","","fixation","","","","","","","","","","","","","","","","","","",""
"1040","3","pic_response","html-keyboard-response","26","248388","0.0-1.0-4.0-3.0-1.2","18:34:15","3","","","","","","","<div>
            <img class='stim' src=""pictures/prac/1.jpg""></div><div class=""button_prompt"">
                        <b>请用数字键1-3回答</b>
                        </div>","","","","","","","","","","","","","","","","","","",""
"1040","null","sub_response","html-keyboard-response","27","249389","0.0-1.0-4.0-3.0-2.2","18:34:15","3","","","","","","","<div style='text-align: center;'>
                            <span style=""color: red; font-size: 40px""><b>错误！+0 pts</b></span></div>
                            ","","learn","1","1","1","learn","0","0","[0, 1, 2]","2","0","setsize","99","prac","0","0","2","0",""
"null","null","fixation","html-keyboard-response","28","249891","0.0-1.0-4.0-3.0-0.3","18:34:15","3","","","","","","","fixation","","","","","","","","","","","","","","","","","","",""
"1461","3","pic_response","html-keyboard-response","29","251354","0.0-1.0-4.0-3.0-1.3","18:34:15","3","","","","","","","<div>
            <img class='stim' src=""pictures/prac/0.jpg""></div><div class=""button_prompt"">
                        <b>请用数字键1-3回答</b>
                        </div>","","","","","","","","","","","","","","","","","","",""
"1461","null","sub_response","html-keyboard-response","30","252356","0.0-1.0-4.0-3.0-2.3","18:34:15","3","","","","","","","<div style='text-align: center;'>
                            <span style=""color: red; font-size: 40px""><b>错误！+0 pts</b></span></div>
                            ","","learn","0","0","0","learn","0","0","[0, 1, 2]","3","1","setsize","99","prac","0","0","2","0",""
"null","null","fixation","html-keyboard-response","31","252858","0.0-1.0-4.0-3.0-0.4","18:34:15","3","","","","","","","fixation","","","","","","","","","","","","","","","","","","",""
"1787","2","pic_response","html-keyboard-response","32","254646","0.0-1.0-4.0-3.0-1.4","18:34:15","3","","","","","","","<div>
            <img class='stim' src=""pictures/prac/2.jpg""></div><div class=""button_prompt"">
                        <b>请用数字键1-3回答</b>
                        </div>","","","","","","","","","","","","","","","","","","",""
"1787","null","sub_response","html-keyboard-response","33","255648","0.0-1.0-4.0-3.0-2.4","18:34:15","3","","","","","","","<div style='text-align: center;'>
                            <span style=""color: red; font-size: 40px""><b>错误！+0 pts</b></span></div>
                            ","","learn","2","2","2","learn","2","2","[0, 1, 2]","4","1","setsize","99","prac","0","0","1","0",""
"null","null","fixation","html-keyboard-response","34","256149","0.0-1.0-4.0-3.0-0.5","18:34:15","3","","","","","","","fixation","","","","","","","","","","","","","","","","","","",""
"421","1","pic_response","html-keyboard-response","35","256571","0.0-1.0-4.0-3.0-1.5","18:34:15","3","","","","","","","<div>
            <img class='stim' src=""pictures/prac/1.jpg""></div><div class=""button_prompt"">
                        <b>请用数字键1-3回答</b>
                        </div>","","","","","","","","","","","","","","","","","","",""
"421","null","sub_response","html-keyboard-response","36","257573","0.0-1.0-4.0-3.0-2.5","18:34:15","3","","","","","","","<div style='text-align: center;'>
                            <span style=""color: green; font-size: 40px""><b>正确！+1 pts</b></span></div>
                            ","","learn","1","1","1","learn","0","0","[0, 1, 2]","5","1","setsize","99","prac","0","1","0","1",""
"","","","preload","37","257580","0.0-1.0-4.1-0.1","18:34:15","3","true","false","[]","[]","[]","","","","","","","","","","","","","","","","","","","","",""
"2416"," ","","html-keyboard-response","38","259997","0.0-1.0-4.1-1.1","18:34:15","3","","","","","","","<div style='font-size: 32px; text-align: center;'
                    <p>请学习图片和数字之间的对应关系</p>
                    <p>我们将<span style='color: blue'><b> 告诉 </b></span>您选择的对错。请根据反馈学习。</p>
                    <p>请按""空格""继续实验。</p></div>","","","","","","","","","","","","","","","","","","",""
"2497"," ","inst","html-keyboard-response","39","262495","0.0-1.0-4.1-2.1","18:34:15","3","","","","","","","<img class='instruct_stim' src=""instruction/prac3.PNG""></div>","","","","","","","","","","","","","","","","","","",""
"null","null","fixation","html-keyboard-response","40","263001","0.0-1.0-4.1-3.1-0.6","18:34:15","3","","","","","","","fixation","","","","","","","","","","","","","","","","","","",""
"841","1","pic_response","html-keyboard-response","41","263843","0.0-1.0-4.1-3.1-1.6","18:34:15","3","","","","","","","<div>
            <img class='stim' src=""pictures/prac/2.jpg""></div><div class=""button_prompt"">
                        <b>请用数字键1-3回答</b>
                        </div>","","","","","","","","","","","","","","","","","","",""
"841","null","sub_response","html-keyboard-response","42","264845","0.0-1.0-4.1-3.1-2.6","18:34:15","3","","","","","","","<div style='text-align: center;'>
                            <span style=""color: red; font-size: 40px""><b>错误！+0 pts</b></span></div>
                            ","","learn","2","2","2","learn","2","2","[0, 1, 2]","0","0","setsize","99","prac","0","0","0","0",""
"null","null","fixation","html-keyboard-response","43","265347","0.0-1.0-4.1-3.1-0.7","18:34:15","3","","","","","","","fixation","","","","","","","","","","","","","","","","","","",""
"771","1","pic_response","html-keyboard-response","44","266120","0.0-1.0-4.1-3.1-1.7","18:34:15","3","","","","","","","<div>
            <img class='stim' src=""pictures/prac/0.jpg""></div><div class=""button_prompt"">
                        <b>请用数字键1-3回答</b>
                        </div>","","","","","","","","","","","","","","","","","","",""
"771","null","sub_response","html-keyboard-response","45","267133","0.0-1.0-4.1-3.1-2.7","18:34:15","3","","","","","","","<div style='text-align: center;'>
                            <span style=""color: green; font-size: 40px""><b>正确！+1 pts</b></span></div>
                            ","","learn","0","0","0","learn","0","0","[0, 1, 2]","1","0","setsize","99","prac","0","1","0","1",""
"null","null","fixation","html-keyboard-response","46","267635","0.0-1.0-4.1-3.1-0.8","18:34:15","3","","","","","","","fixation","","","","","","","","","","","","","","","","","","",""
"930","1","pic_response","html-keyboard-response","47","268566","0.0-1.0-4.1-3.1-1.8","18:34:15","3","","","","","","","<div>
            <img class='stim' src=""pictures/prac/1.jpg""></div><div class=""button_prompt"">
                        <b>请用数字键1-3回答</b>
                        </div>","","","","","","","","","","","","","","","","","","",""
"930","null","sub_response","html-keyboard-response","48","269568","0.0-1.0-4.1-3.1-2.8","18:34:15","3","","","","","","","<div style='text-align: center;'>
                            <span style=""color: green; font-size: 40px""><b>正确！+1 pts</b></span></div>
                            ","","learn","1","1","1","learn","0","0","[0, 1, 2]","2","0","setsize","99","prac","0","2","0","1",""
"null","null","fixation","html-keyboard-response","49","270070","0.0-1.0-4.1-3.1-0.9","18:34:15","3","","","","","","","fixation","","","","","","","","","","","","","","","","","","",""
"1602","3","pic_response","html-keyboard-response","50","271674","0.0-1.0-4.1-3.1-1.9","18:34:15","3","","","","","","","<div>
            <img class='stim' src=""pictures/prac/0.jpg""></div><div class=""button_prompt"">
                        <b>请用数字键1-3回答</b>
                        </div>","","","","","","","","","","","","","","","","","","",""
"1602","null","sub_response","html-keyboard-response","51","272676","0.0-1.0-4.1-3.1-2.9","18:34:15","3","","","","","","","<div style='text-align: center;'>
                            <span style=""color: red; font-size: 40px""><b>错误！+0 pts</b></span></div>
                            ","","learn","0","0","0","learn","0","0","[0, 1, 2]","3","1","setsize","99","prac","0","0","2","0",""
"null","null","fixation","html-keyboard-response","52","273178","0.0-1.0-4.1-3.1-0.10","18:34:15","3","","","","","","","fixation","","","","","","","","","","","","","","","","","","",""
"838","3","pic_response","html-keyboard-response","53","274017","0.0-1.0-4.1-3.1-1.10","18:34:15","3","","","","","","","<div>
            <img class='stim' src=""pictures/prac/2.jpg""></div><div class=""button_prompt"">
                        <b>请用数字键1-3回答</b>
                        </div>","","","","","","","","","","","","","","","","","","",""
"838","null","sub_response","html-keyboard-response","54","275020","0.0-1.0-4.1-3.1-2.10","18:34:15","3","","","","","","","<div style='text-align: center;'>
                            <span style=""color: green; font-size: 40px""><b>正确！+1 pts</b></span></div>
                            ","","learn","2","2","2","learn","2","2","[0, 1, 2]","4","1","setsize","99","prac","0","1","2","1",""
"null","null","fixation","html-keyboard-response","55","275522","0.0-1.0-4.1-3.1-0.11","18:34:15","3","","","","","","","fixation","","","","","","","","","","","","","","","","","","",""
"714","1","pic_response","html-keyboard-response","56","276237","0.0-1.0-4.1-3.1-1.11","18:34:15","3","","","","","","","<div>
            <img class='stim' src=""pictures/prac/1.jpg""></div><div class=""button_prompt"">
                        <b>请用数字键1-3回答</b>
                        </div>","","","","","","","","","","","","","","","","","","",""
"714","null","sub_response","html-keyboard-response","57","277239","0.0-1.0-4.1-3.1-2.11","18:34:15","3","","","","","","","<div style='text-align: center;'>
                            <span style=""color: green; font-size: 40px""><b>正确！+1 pts</b></span></div>
                            ","","learn","1","1","1","learn","0","0","[0, 1, 2]","5","1","setsize","99","prac","0","2","0","1",""
"","","","preload","58","277242","0.0-1.0-4.2-0.2","18:34:15","3","true","false","[]","[]","[]","","","","","","","","","","","","","","","","","","","","",""
"2965"," ","","html-keyboard-response","59","280208","0.0-1.0-4.2-1.2","18:34:15","3","","","","","","","<div style='font-size: 32px; text-align: center;'
                    <p>请学习图片和数字之间的对应关系</p>
                    <p>我们将<span style='color: blue'><b> 告诉 </b></span>您选择的对错。请根据反馈学习。</p>
                    <p>请按""空格""继续实验。</p></div>","","","","","","","","","","","","","","","","","","",""
"2219"," ","inst","html-keyboard-response","60","282428","0.0-1.0-4.2-2.2","18:34:15","3","","","","","","","<img class='instruct_stim' src=""instruction/prac3.PNG""></div>","","","","","","","","","","","","","","","","","","",""
"null","null","fixation","html-keyboard-response","61","282929","0.0-1.0-4.2-3.2-0.12","18:34:15","3","","","","","","","fixation","","","","","","","","","","","","","","","","","","",""
"1080","3","pic_response","html-keyboard-response","62","284010","0.0-1.0-4.2-3.2-1.12","18:34:15","3","","","","","","","<div>
            <img class='stim' src=""pictures/prac/2.jpg""></div><div class=""button_prompt"">
                        <b>请用数字键1-3回答</b>
                        </div>","","","","","","","","","","","","","","","","","","",""
"1080","null","sub_response","html-keyboard-response","63","285012","0.0-1.0-4.2-3.2-2.12","18:34:15","3","","","","","","","<div style='text-align: center;'>
                            <span style=""color: green; font-size: 40px""><b>正确！+1 pts</b></span></div>
                            ","","learn","2","2","2","learn","2","2","[0, 1, 2]","0","0","setsize","99","prac","0","3","2","1",""
"null","null","fixation","html-keyboard-response","64","285513","0.0-1.0-4.2-3.2-0.13","18:34:15","3","","","","","","","fixation","","","","","","","","","","","","","","","","","","",""
"1116","1","pic_response","html-keyboard-response","65","286630","0.0-1.0-4.2-3.2-1.13","18:34:15","3","","","","","","","<div>
            <img class='stim' src=""pictures/prac/0.jpg""></div><div class=""button_prompt"">
                        <b>请用数字键1-3回答</b>
                        </div>","","","","","","","","","","","","","","","","","","",""
"1116","null","sub_response","html-keyboard-response","66","287631","0.0-1.0-4.2-3.2-2.13","18:34:15","3","","","","","","","<div style='text-align: center;'>
                            <span style=""color: green; font-size: 40px""><b>正确！+1 pts</b></span></div>
                            ","","learn","0","0","0","learn","0","0","[0, 1, 2]","1","0","setsize","99","prac","0","4","0","1",""
"null","null","fixation","html-keyboard-response","67","288133","0.0-1.0-4.2-3.2-0.14","18:34:15","3","","","","","","","fixation","","","","","","","","","","","","","","","","","","",""
"772","1","pic_response","html-keyboard-response","68","288906","0.0-1.0-4.2-3.2-1.14","18:34:15","3","","","","","","","<div>
            <img class='stim' src=""pictures/prac/1.jpg""></div><div class=""button_prompt"">
                        <b>请用数字键1-3回答</b>
                        </div>","","","","","","","","","","","","","","","","","","",""
"772","null","sub_response","html-keyboard-response","69","289908","0.0-1.0-4.2-3.2-2.14","18:34:15","3","","","","","","","<div style='text-align: center;'>
                            <span style=""color: green; font-size: 40px""><b>正确！+1 pts</b></span></div>
                            ","","learn","1","1","1","learn","0","0","[0, 1, 2]","2","0","setsize","99","prac","0","5","0","1",""
"null","null","fixation","html-keyboard-response","70","290410","0.0-1.0-4.2-3.2-0.15","18:34:15","3","","","","","","","fixation","","","","","","","","","","","","","","","","","","",""
"722","1","pic_response","html-keyboard-response","71","291133","0.0-1.0-4.2-3.2-1.15","18:34:15","3","","","","","","","<div>
            <img class='stim' src=""pictures/prac/0.jpg""></div><div class=""button_prompt"">
                        <b>请用数字键1-3回答</b>
                        </div>","","","","","","","","","","","","","","","","","","",""
"722","null","sub_response","html-keyboard-response","72","292135","0.0-1.0-4.2-3.2-2.15","18:34:15","3","","","","","","","<div style='text-align: center;'>
                            <span style=""color: green; font-size: 40px""><b>正确！+1 pts</b></span></div>
                            ","","learn","0","0","0","learn","0","0","[0, 1, 2]","3","1","setsize","99","prac","0","6","0","1",""
"null","null","fixation","html-keyboard-response","73","292637","0.0-1.0-4.2-3.2-0.16","18:34:15","3","","","","","","","fixation","","","","","","","","","","","","","","","","","","",""
"587","1","pic_response","html-keyboard-response","74","293226","0.0-1.0-4.2-3.2-1.16","18:34:15","3","","","","","","","<div>
            <img class='stim' src=""pictures/prac/2.jpg""></div><div class=""button_prompt"">
                        <b>请用数字键1-3回答</b>
                        </div>","","","","","","","","","","","","","","","","","","",""
"587","null","sub_response","html-keyboard-response","75","294227","0.0-1.0-4.2-3.2-2.16","18:34:15","3","","","","","","","<div style='text-align: center;'>
                            <span style=""color: red; font-size: 40px""><b>错误！+0 pts</b></span></div>
                            ","","learn","2","2","2","learn","2","2","[0, 1, 2]","4","1","setsize","99","prac","0","0","0","0",""
"null","null","fixation","html-keyboard-response","76","294729","0.0-1.0-4.2-3.2-0.17","18:34:15","3","","","","","","","fixation","","","","","","","","","","","","","","","","","","",""
"639","1","pic_response","html-keyboard-response","77","295370","0.0-1.0-4.2-3.2-1.17","18:34:15","3","","","","","","","<div>
            <img class='stim' src=""pictures/prac/1.jpg""></div><div class=""button_prompt"">
                        <b>请用数字键1-3回答</b>
                        </div>","","","","","","","","","","","","","","","","","","",""
"639","null","sub_response","html-keyboard-response","78","296371","0.0-1.0-4.2-3.2-2.17","18:34:15","3","","","","","","","<div style='text-align: center;'>
                            <span style=""color: green; font-size: 40px""><b>正确！+1 pts</b></span></div>
                            ","","learn","1","1","1","learn","0","0","[0, 1, 2]","5","1","setsize","99","prac","0","1","0","1",""
"2716"," ","","html-keyboard-response","79","299089","0.0-1.0-5.0","18:34:15","3","","","","","","","<div style=""font-size: 25px""><p>距下一个实验开始还有</p><div style=""font-size: 50px; color: blue""><p><span id=""clock"">1:00</span></div></p><p>按""空格""跳过休息</p></div>","","","","","","","","","","","","","","","","","","",""
"2048"," ","","html-keyboard-response","80","301138","0.0-1.0-6.0","18:34:15","3","","","","","","","<div style='font-size: 32px; text-align: center;'
                    <p>请按""空格""继续正式实验。</p></div>","","","","","","","","","","","","","","","","","","",""
"","","","preload","81","301362","0.0-1.0-7.0-0.0","18:34:15","3","true","false","[]","[]","[]","","","","","","","","","","","","","","","","","","","","",""
"1161"," ","","html-keyboard-response","82","302525","0.0-1.0-7.0-1.0","18:34:15","3","","","","","","","<div style='font-size: 32px; text-align: center;'
                    <p>请学习图片和数字之间的对应关系</p>
                    <p>我们将<span style='color: blue'><b> 告诉 </b></span>您选择的对错。请根据反馈学习。</p>
                    <p>请按""空格""继续实验。</p></div>","","","","","","","","","","","","","","","","","","",""
"13311"," ","inst","html-keyboard-response","83","315837","0.0-1.0-7.0-2.0","18:34:15","3","","","","","","","<img class='instruct_stim' src=""instruction/animals3.PNG""></div>","","","","","","","","","","","","","","","","","","",""
"null","null","fixation","html-keyboard-response","84","316339","0.0-1.0-7.0-3.0-0.0","18:34:15","3","","","","","","","fixation","","","","","","","","","","","","","","","","","","",""
"1013","1","pic_response","html-keyboard-response","85","317353","0.0-1.0-7.0-3.0-1.0","18:34:15","3","","","","","","","<div>
            <img class='stim' src=""pictures/animals/1.jpg""></div><div class=""button_prompt"">
                    <b>请用数字键0-9回答</b>
                    </div>","","","","","","","","","","","","","","","","","","",""
"1013","null","sub_response","html-keyboard-response","86","318355","0.0-1.0-7.0-3.0-2.0","18:34:15","3","","","","","","","<div style='text-align: center;'>
                            <span style=""color: red; font-size: 40px""><b>错误！+0 pts</b></span></div>
                            ","","learn","1","1","1","learn","6","6","[0, 1, 2, 3, 4, 5, 6, 7, 8, 9]","0","0","setsize","3S10A","animals","1","0","0","0",""
"null","null","fixation","html-keyboard-response","87","318857","0.0-1.0-7.0-3.0-0.1","18:34:15","3","","","","","","","fixation","","","","","","","","","","","","","","","","","","",""
"1020","1","pic_response","html-keyboard-response","88","319878","0.0-1.0-7.0-3.0-1.1","18:34:15","3","","","","","","","<div>
            <img class='stim' src=""pictures/animals/2.jpg""></div><div class=""button_prompt"">
                    <b>请用数字键0-9回答</b>
                    </div>","","","","","","","","","","","","","","","","","","",""
"1020","null","sub_response","html-keyboard-response","89","320879","0.0-1.0-7.0-3.0-2.1","18:34:15","3","","","","","","","<div style='text-align: center;'>
                            <span style=""color: red; font-size: 40px""><b>错误！+0 pts</b></span></div>
                            ","","learn","2","2","2","learn","9","9","[0, 1, 2, 3, 4, 5, 6, 7, 8, 9]","1","0","setsize","3S10A","animals","1","0","0","0",""
"null","null","fixation","html-keyboard-response","90","321381","0.0-1.0-7.0-3.0-0.2","18:34:15","3","","","","","","","fixation","","","","","","","","","","","","","","","","","","",""
"639","1","pic_response","html-keyboard-response","91","322021","0.0-1.0-7.0-3.0-1.2","18:34:15","3","","","","","","","<div>
            <img class='stim' src=""pictures/animals/0.jpg""></div><div class=""button_prompt"">
                    <b>请用数字键0-9回答</b>
                    </div>","","","","","","","","","","","","","","","","","","",""
"639","null","sub_response","html-keyboard-response","92","323024","0.0-1.0-7.0-3.0-2.2","18:34:15","3","","","","","","","<div style='text-align: center;'>
                            <span style=""color: red; font-size: 40px""><b>错误！+0 pts</b></span></div>
                            ","","learn","0","0","0","learn","2","2","[0, 1, 2, 3, 4, 5, 6, 7, 8, 9]","2","0","setsize","3S10A","animals","1","0","0","0",""
"null","null","fixation","html-keyboard-response","93","323527","0.0-1.0-7.0-3.0-0.3","18:34:15","3","","","","","","","fixation","","","","","","","","","","","","","","","","","","",""
"1365","2","pic_response","html-keyboard-response","94","324893","0.0-1.0-7.0-3.0-1.3","18:34:15","3","","","","","","","<div>
            <img class='stim' src=""pictures/animals/2.jpg""></div><div class=""button_prompt"">
                    <b>请用数字键0-9回答</b>
                    </div>","","","","","","","","","","","","","","","","","","",""
"1365","null","sub_response","html-keyboard-response","95","325896","0.0-1.0-7.0-3.0-2.3","18:34:15","3","","","","","","","<div style='text-align: center;'>
                            <span style=""color: red; font-size: 40px""><b>错误！+0 pts</b></span></div>
                            ","","learn","2","2","2","learn","9","9","[0, 1, 2, 3, 4, 5, 6, 7, 8, 9]","3","1","setsize","3S10A","animals","1","0","1","0",""
"null","null","fixation","html-keyboard-response","96","326398","0.0-1.0-7.0-3.0-0.4","18:34:15","3","","","","","","","fixation","","","","","","","","","","","","","","","","","","",""
"1047","2","pic_response","html-keyboard-response","97","327445","0.0-1.0-7.0-3.0-1.4","18:34:15","3","","","","","","","<div>
            <img class='stim' src=""pictures/animals/0.jpg""></div><div class=""button_prompt"">
                    <b>请用数字键0-9回答</b>
                    </div>","","","","","","","","","","","","","","","","","","",""
"1047","null","sub_response","html-keyboard-response","98","328447","0.0-1.0-7.0-3.0-2.4","18:34:15","3","","","","","","","<div style='text-align: center;'>
                            <span style=""color: red; font-size: 40px""><b>错误！+0 pts</b></span></div>
                            ","","learn","0","0","0","learn","2","2","[0, 1, 2, 3, 4, 5, 6, 7, 8, 9]","4","1","setsize","3S10A","animals","1","0","1","0",""
"null","null","fixation","html-keyboard-response","99","328950","0.0-1.0-7.0-3.0-0.5","18:34:15","3","","","","","","","fixation","","","","","","","","","","","","","","","","","","",""
"890","2","pic_response","html-keyboard-response","100","329842","0.0-1.0-7.0-3.0-1.5","18:34:15","3","","","","","","","<div>
            <img class='stim' src=""pictures/animals/1.jpg""></div><div class=""button_prompt"">
                    <b>请用数字键0-9回答</b>
                    </div>","","","","","","","","","","","","","","","","","","",""
"890","null","sub_response","html-keyboard-response","101","330845","0.0-1.0-7.0-3.0-2.5","18:34:15","3","","","","","","","<div style='text-align: center;'>
                            <span style=""color: red; font-size: 40px""><b>错误！+0 pts</b></span></div>
                            ","","learn","1","1","1","learn","6","6","[0, 1, 2, 3, 4, 5, 6, 7, 8, 9]","5","1","setsize","3S10A","animals","1","0","1","0",""
"null","null","fixation","html-keyboard-response","102","331348","0.0-1.0-7.0-3.0-0.6","18:34:15","3","","","","","","","fixation","","","","","","","","","","","","","","","","","","",""
"524","3","pic_response","html-keyboard-response","103","331873","0.0-1.0-7.0-3.0-1.6","18:34:15","3","","","","","","","<div>
            <img class='stim' src=""pictures/animals/2.jpg""></div><div class=""button_prompt"">
                    <b>请用数字键0-9回答</b>
                    </div>","","","","","","","","","","","","","","","","","","",""
"524","null","sub_response","html-keyboard-response","104","332877","0.0-1.0-7.0-3.0-2.6","18:34:15","3","","","","","","","<div style='text-align: center;'>
                            <span style=""color: red; font-size: 40px""><b>错误！+0 pts</b></span></div>
                            ","","learn","2","2","2","learn","9","9","[0, 1, 2, 3, 4, 5, 6, 7, 8, 9]","6","2","setsize","3S10A","animals","1","0","2","0",""
"null","null","fixation","html-keyboard-response","105","333379","0.0-1.0-7.0-3.0-0.7","18:34:15","3","","","","","","","fixation","","","","","","","","","","","","","","","","","","",""
"1329","3","pic_response","html-keyboard-response","106","334710","0.0-1.0-7.0-3.0-1.7","18:34:15","3","","","","","","","<div>
            <img class='stim' src=""pictures/animals/0.jpg""></div><div class=""button_prompt"">
                    <b>请用数字键0-9回答</b>
                    </div>","","","","","","","","","","","","","","","","","","",""
"1329","null","sub_response","html-keyboard-response","107","335711","0.0-1.0-7.0-3.0-2.7","18:34:15","3","","","","","","","<div style='text-align: center;'>
                            <span style=""color: green; font-size: 40px""><b>正确！+1 pts</b></span></div>
                            ","","learn","0","0","0","learn","2","2","[0, 1, 2, 3, 4, 5, 6, 7, 8, 9]","7","2","setsize","3S10A","animals","1","1","2","1",""
"null","null","fixation","html-keyboard-response","108","336213","0.0-1.0-7.0-3.0-0.8","18:34:15","3","","","","","","","fixation","","","","","","","","","","","","","","","","","","",""
"2385","3","pic_response","html-keyboard-response","109","338599","0.0-1.0-7.0-3.0-1.8","18:34:15","3","","","","","","","<div>
            <img class='stim' src=""pictures/animals/1.jpg""></div><div class=""button_prompt"">
                    <b>请用数字键0-9回答</b>
                    </div>","","","","","","","","","","","","","","","","","","",""
"2385","null","sub_response","html-keyboard-response","110","339600","0.0-1.0-7.0-3.0-2.8","18:34:15","3","","","","","","","<div style='text-align: center;'>
                            <span style=""color: red; font-size: 40px""><b>错误！+0 pts</b></span></div>
                            ","","learn","1","1","1","learn","6","6","[0, 1, 2, 3, 4, 5, 6, 7, 8, 9]","8","2","setsize","3S10A","animals","1","0","2","0",""
"null","null","fixation","html-keyboard-response","111","340102","0.0-1.0-7.0-3.0-0.9","18:34:15","3","","","","","","","fixation","","","","","","","","","","","","","","","","","","",""
"840","4","pic_response","html-keyboard-response","112","340944","0.0-1.0-7.0-3.0-1.9","18:34:15","3","","","","","","","<div>
            <img class='stim' src=""pictures/animals/0.jpg""></div><div class=""button_prompt"">
                    <b>请用数字键0-9回答</b>
                    </div>","","","","","","","","","","","","","","","","","","",""
"840","null","sub_response","html-keyboard-response","113","341945","0.0-1.0-7.0-3.0-2.9","18:34:15","3","","","","","","","<div style='text-align: center;'>
                            <span style=""color: red; font-size: 40px""><b>错误！+0 pts</b></span></div>
                            ","","learn","0","0","0","learn","2","2","[0, 1, 2, 3, 4, 5, 6, 7, 8, 9]","9","3","setsize","3S10A","animals","1","0","3","0",""
"null","null","fixation","html-keyboard-response","114","342447","0.0-1.0-7.0-3.0-0.10","18:34:15","3","","","","","","","fixation","","","","","","","","","","","","","","","","","","",""
"1809","3","pic_response","html-keyboard-response","115","344257","0.0-1.0-7.0-3.0-1.10","18:34:15","3","","","","","","","<div>
            <img class='stim' src=""pictures/animals/2.jpg""></div><div class=""button_prompt"">
                    <b>请用数字键0-9回答</b>
                    </div>","","","","","","","","","","","","","","","","","","",""
"1809","null","sub_response","html-keyboard-response","116","345259","0.0-1.0-7.0-3.0-2.10","18:34:15","3","","","","","","","<div style='text-align: center;'>
                            <span style=""color: red; font-size: 40px""><b>错误！+0 pts</b></span></div>
                            ","","learn","2","2","2","learn","9","9","[0, 1, 2, 3, 4, 5, 6, 7, 8, 9]","10","3","setsize","3S10A","animals","1","0","2","0",""
"null","null","fixation","html-keyboard-response","117","345762","0.0-1.0-7.0-3.0-0.11","18:34:15","3","","","","","","","fixation","","","","","","","","","","","","","","","","","","",""
"523","3","pic_response","html-keyboard-response","118","346285","0.0-1.0-7.0-3.0-1.11","18:34:15","3","","","","","","","<div>
            <img class='stim' src=""pictures/animals/1.jpg""></div><div class=""button_prompt"">
                    <b>请用数字键0-9回答</b>
                    </div>","","","","","","","","","","","","","","","","","","",""
"523","null","sub_response","html-keyboard-response","119","347288","0.0-1.0-7.0-3.0-2.11","18:34:15","3","","","","","","","<div style='text-align: center;'>
                            <span style=""color: red; font-size: 40px""><b>错误！+0 pts</b></span></div>
                            ","","learn","1","1","1","learn","6","6","[0, 1, 2, 3, 4, 5, 6, 7, 8, 9]","11","3","setsize","3S10A","animals","1","0","2","0",""
"null","null","fixation","html-keyboard-response","120","347805","0.0-1.0-7.0-3.0-0.12","18:34:15","3","","","","","","","fixation","","","","","","","","","","","","","","","","","","",""
"799","3","pic_response","html-keyboard-response","121","348606","0.0-1.0-7.0-3.0-1.12","18:34:15","3","","","","","","","<div>
            <img class='stim' src=""pictures/animals/1.jpg""></div><div class=""button_prompt"">
                    <b>请用数字键0-9回答</b>
                    </div>","","","","","","","","","","","","","","","","","","",""
"799","null","sub_response","html-keyboard-response","122","349612","0.0-1.0-7.0-3.0-2.12","18:34:15","3","","","","","","","<div style='text-align: center;'>
                            <span style=""color: red; font-size: 40px""><b>错误！+0 pts</b></span></div>
                            ","","learn","1","1","1","learn","6","6","[0, 1, 2, 3, 4, 5, 6, 7, 8, 9]","12","4","setsize","3S10A","animals","1","0","2","0",""
"null","null","fixation","html-keyboard-response","123","350113","0.0-1.0-7.0-3.0-0.13","18:34:15","3","","","","","","","fixation","","","","","","","","","","","","","","","","","","",""
"1496","5","pic_response","html-keyboard-response","124","351610","0.0-1.0-7.0-3.0-1.13","18:34:15","3","","","","","","","<div>
            <img class='stim' src=""pictures/animals/2.jpg""></div><div class=""button_prompt"">
                    <b>请用数字键0-9回答</b>
                    </div>","","","","","","","","","","","","","","","","","","",""
"1496","null","sub_response","html-keyboard-response","125","352611","0.0-1.0-7.0-3.0-2.13","18:34:15","3","","","","","","","<div style='text-align: center;'>
                            <span style=""color: red; font-size: 40px""><b>错误！+0 pts</b></span></div>
                            ","","learn","2","2","2","learn","9","9","[0, 1, 2, 3, 4, 5, 6, 7, 8, 9]","13","4","setsize","3S10A","animals","1","0","4","0",""
"null","null","fixation","html-keyboard-response","126","353114","0.0-1.0-7.0-3.0-0.14","18:34:15","3","","","","","","","fixation","","","","","","","","","","","","","","","","","","",""
"852","3","pic_response","html-keyboard-response","127","353968","0.0-1.0-7.0-3.0-1.14","18:34:15","3","","","","","","","<div>
            <img class='stim' src=""pictures/animals/0.jpg""></div><div class=""button_prompt"">
                    <b>请用数字键0-9回答</b>
                    </div>","","","","","","","","","","","","","","","","","","",""
"852","null","sub_response","html-keyboard-response","128","354969","0.0-1.0-7.0-3.0-2.14","18:34:15","3","","","","","","","<div style='text-align: center;'>
                            <span style=""color: green; font-size: 40px""><b>正确！+1 pts</b></span></div>
                            ","","learn","0","0","0","learn","2","2","[0, 1, 2, 3, 4, 5, 6, 7, 8, 9]","14","4","setsize","3S10A","animals","1","1","2","1",""
"null","null","fixation","html-keyboard-response","129","355472","0.0-1.0-7.0-3.0-0.15","18:34:15","3","","","","","","","fixation","","","","","","","","","","","","","","","","","","",""
"1258","6","pic_response","html-keyboard-response","130","356731","0.0-1.0-7.0-3.0-1.15","18:34:15","3","","","","","","","<div>
            <img class='stim' src=""pictures/animals/2.jpg""></div><div class=""button_prompt"">
                    <b>请用数字键0-9回答</b>
                    </div>","","","","","","","","","","","","","","","","","","",""
"1258","null","sub_response","html-keyboard-response","131","357732","0.0-1.0-7.0-3.0-2.15","18:34:15","3","","","","","","","<div style='text-align: center;'>
                            <span style=""color: red; font-size: 40px""><b>错误！+0 pts</b></span></div>
                            ","","learn","2","2","2","learn","9","9","[0, 1, 2, 3, 4, 5, 6, 7, 8, 9]","15","5","setsize","3S10A","animals","1","0","5","0",""
"null","null","fixation","html-keyboard-response","132","358234","0.0-1.0-7.0-3.0-0.16","18:34:15","3","","","","","","","fixation","","","","","","","","","","","","","","","","","","",""
"456","6","pic_response","html-keyboard-response","133","358691","0.0-1.0-7.0-3.0-1.16","18:34:15","3","","","","","","","<div>
            <img class='stim' src=""pictures/animals/0.jpg""></div><div class=""button_prompt"">
                    <b>请用数字键0-9回答</b>
                    </div>","","","","","","","","","","","","","","","","","","",""
"456","null","sub_response","html-keyboard-response","134","359693","0.0-1.0-7.0-3.0-2.16","18:34:15","3","","","","","","","<div style='text-align: center;'>
                            <span style=""color: red; font-size: 40px""><b>错误！+0 pts</b></span></div>
                            ","","learn","0","0","0","learn","2","2","[0, 1, 2, 3, 4, 5, 6, 7, 8, 9]","16","5","setsize","3S10A","animals","1","0","5","0",""
"null","null","fixation","html-keyboard-response","135","360195","0.0-1.0-7.0-3.0-0.17","18:34:15","3","","","","","","","fixation","","","","","","","","","","","","","","","","","","",""
"1146","6","pic_response","html-keyboard-response","136","361342","0.0-1.0-7.0-3.0-1.17","18:34:15","3","","","","","","","<div>
            <img class='stim' src=""pictures/animals/1.jpg""></div><div class=""button_prompt"">
                    <b>请用数字键0-9回答</b>
                    </div>","","","","","","","","","","","","","","","","","","",""
"1146","null","sub_response","html-keyboard-response","137","362344","0.0-1.0-7.0-3.0-2.17","18:34:15","3","","","","","","","<div style='text-align: center;'>
                            <span style=""color: red; font-size: 40px""><b>错误！+0 pts</b></span></div>
                            ","","learn","1","1","1","learn","6","6","[0, 1, 2, 3, 4, 5, 6, 7, 8, 9]","17","5","setsize","3S10A","animals","1","0","5","0",""
"null","null","fixation","html-keyboard-response","138","362846","0.0-1.0-7.0-3.0-0.18","18:34:15","3","","","","","","","fixation","","","","","","","","","","","","","","","","","","",""
"1011","7","pic_response","html-keyboard-response","139","363859","0.0-1.0-7.0-3.0-1.18","18:34:15","3","","","","","","","<div>
            <img class='stim' src=""pictures/animals/2.jpg""></div><div class=""button_prompt"">
                    <b>请用数字键0-9回答</b>
                    </div>","","","","","","","","","","","","","","","","","","",""
"1011","null","sub_response","html-keyboard-response","140","364860","0.0-1.0-7.0-3.0-2.18","18:34:15","3","","","","","","","<div style='text-align: center;'>
                            <span style=""color: red; font-size: 40px""><b>错误！+0 pts</b></span></div>
                            ","","learn","2","2","2","learn","9","9","[0, 1, 2, 3, 4, 5, 6, 7, 8, 9]","18","6","setsize","3S10A","animals","1","0","6","0",""
"null","null","fixation","html-keyboard-response","141","365363","0.0-1.0-7.0-3.0-0.19","18:34:15","3","","","","","","","fixation","","","","","","","","","","","","","","","","","","",""
"604","7","pic_response","html-keyboard-response","142","365968","0.0-1.0-7.0-3.0-1.19","18:34:15","3","","","","","","","<div>
            <img class='stim' src=""pictures/animals/1.jpg""></div><div class=""button_prompt"">
                    <b>请用数字键0-9回答</b>
                    </div>","","","","","","","","","","","","","","","","","","",""
"604","null","sub_response","html-keyboard-response","143","366970","0.0-1.0-7.0-3.0-2.19","18:34:15","3","","","","","","","<div style='text-align: center;'>
                            <span style=""color: green; font-size: 40px""><b>正确！+1 pts</b></span></div>
                            ","","learn","1","1","1","learn","6","6","[0, 1, 2, 3, 4, 5, 6, 7, 8, 9]","19","6","setsize","3S10A","animals","1","1","6","1",""
"null","null","fixation","html-keyboard-response","144","367472","0.0-1.0-7.0-3.0-0.20","18:34:15","3","","","","","","","fixation","","","","","","","","","","","","","","","","","","",""
"1071","3","pic_response","html-keyboard-response","145","368544","0.0-1.0-7.0-3.0-1.20","18:34:15","3","","","","","","","<div>
            <img class='stim' src=""pictures/animals/0.jpg""></div><div class=""button_prompt"">
                    <b>请用数字键0-9回答</b>
                    </div>","","","","","","","","","","","","","","","","","","",""
"1071","null","sub_response","html-keyboard-response","146","369546","0.0-1.0-7.0-3.0-2.20","18:34:15","3","","","","","","","<div style='text-align: center;'>
                            <span style=""color: green; font-size: 40px""><b>正确！+1 pts</b></span></div>
                            ","","learn","0","0","0","learn","2","2","[0, 1, 2, 3, 4, 5, 6, 7, 8, 9]","20","6","setsize","3S10A","animals","1","2","2","1",""
"null","null","fixation","html-keyboard-response","147","370048","0.0-1.0-7.0-3.0-0.21","18:34:15","3","","","","","","","fixation","","","","","","","","","","","","","","","","","","",""
"429","8","pic_response","html-keyboard-response","148","370478","0.0-1.0-7.0-3.0-1.21","18:34:15","3","","","","","","","<div>
            <img class='stim' src=""pictures/animals/2.jpg""></div><div class=""button_prompt"">
                    <b>请用数字键0-9回答</b>
                    </div>","","","","","","","","","","","","","","","","","","",""
"429","null","sub_response","html-keyboard-response","149","371481","0.0-1.0-7.0-3.0-2.21","18:34:15","3","","","","","","","<div style='text-align: center;'>
                            <span style=""color: red; font-size: 40px""><b>错误！+0 pts</b></span></div>
                            ","","learn","2","2","2","learn","9","9","[0, 1, 2, 3, 4, 5, 6, 7, 8, 9]","21","7","setsize","3S10A","animals","1","0","7","0",""
"null","null","fixation","html-keyboard-response","150","371984","0.0-1.0-7.0-3.0-0.22","18:34:15","3","","","","","","","fixation","","","","","","","","","","","","","","","","","","",""
"712","3","pic_response","html-keyboard-response","151","372697","0.0-1.0-7.0-3.0-1.22","18:34:15","3","","","","","","","<div>
            <img class='stim' src=""pictures/animals/0.jpg""></div><div class=""button_prompt"">
                    <b>请用数字键0-9回答</b>
                    </div>","","","","","","","","","","","","","","","","","","",""
"712","null","sub_response","html-keyboard-response","152","373699","0.0-1.0-7.0-3.0-2.22","18:34:15","3","","","","","","","<div style='text-align: center;'>
                            <span style=""color: green; font-size: 40px""><b>正确！+1 pts</b></span></div>
                            ","","learn","0","0","0","learn","2","2","[0, 1, 2, 3, 4, 5, 6, 7, 8, 9]","22","7","setsize","3S10A","animals","1","1","2","1",""
"null","null","fixation","html-keyboard-response","153","374201","0.0-1.0-7.0-3.0-0.23","18:34:15","3","","","","","","","fixation","","","","","","","","","","","","","","","","","","",""
"791","7","pic_response","html-keyboard-response","154","374993","0.0-1.0-7.0-3.0-1.23","18:34:15","3","","","","","","","<div>
            <img class='stim' src=""pictures/animals/1.jpg""></div><div class=""button_prompt"">
                    <b>请用数字键0-9回答</b>
                    </div>","","","","","","","","","","","","","","","","","","",""
"791","null","sub_response","html-keyboard-response","155","375995","0.0-1.0-7.0-3.0-2.23","18:34:15","3","","","","","","","<div style='text-align: center;'>
                            <span style=""color: green; font-size: 40px""><b>正确！+1 pts</b></span></div>
                            ","","learn","1","1","1","learn","6","6","[0, 1, 2, 3, 4, 5, 6, 7, 8, 9]","23","7","setsize","3S10A","animals","1","2","6","1",""
"null","null","fixation","html-keyboard-response","156","376497","0.0-1.0-7.0-3.0-0.24","18:34:15","3","","","","","","","fixation","","","","","","","","","","","","","","","","","","",""
"1118","7","pic_response","html-keyboard-response","157","377616","0.0-1.0-7.0-3.0-1.24","18:34:15","3","","","","","","","<div>
            <img class='stim' src=""pictures/animals/1.jpg""></div><div class=""button_prompt"">
                    <b>请用数字键0-9回答</b>
                    </div>","","","","","","","","","","","","","","","","","","",""
"1118","null","sub_response","html-keyboard-response","158","378617","0.0-1.0-7.0-3.0-2.24","18:34:15","3","","","","","","","<div style='text-align: center;'>
                            <span style=""color: green; font-size: 40px""><b>正确！+1 pts</b></span></div>
                            ","","learn","1","1","1","learn","6","6","[0, 1, 2, 3, 4, 5, 6, 7, 8, 9]","24","8","setsize","3S10A","animals","1","3","6","1",""
"null","null","fixation","html-keyboard-response","159","379124","0.0-1.0-7.0-3.0-0.25","18:34:15","3","","","","","","","fixation","","","","","","","","","","","","","","","","","","",""
"565","9","pic_response","html-keyboard-response","160","379690","0.0-1.0-7.0-3.0-1.25","18:34:15","3","","","","","","","<div>
            <img class='stim' src=""pictures/animals/2.jpg""></div><div class=""button_prompt"">
                    <b>请用数字键0-9回答</b>
                    </div>","","","","","","","","","","","","","","","","","","",""
"565","null","sub_response","html-keyboard-response","161","380691","0.0-1.0-7.0-3.0-2.25","18:34:15","3","","","","","","","<div style='text-align: center;'>
                            <span style=""color: red; font-size: 40px""><b>错误！+0 pts</b></span></div>
                            ","","learn","2","2","2","learn","9","9","[0, 1, 2, 3, 4, 5, 6, 7, 8, 9]","25","8","setsize","3S10A","animals","1","0","8","0",""
"null","null","fixation","html-keyboard-response","162","381193","0.0-1.0-7.0-3.0-0.26","18:34:15","3","","","","","","","fixation","","","","","","","","","","","","","","","","","","",""
"1736","3","pic_response","html-keyboard-response","163","382930","0.0-1.0-7.0-3.0-1.26","18:34:15","3","","","","","","","<div>
            <img class='stim' src=""pictures/animals/0.jpg""></div><div class=""button_prompt"">
                    <b>请用数字键0-9回答</b>
                    </div>","","","","","","","","","","","","","","","","","","",""
"1736","null","sub_response","html-keyboard-response","164","383932","0.0-1.0-7.0-3.0-2.26","18:34:15","3","","","","","","","<div style='text-align: center;'>
                            <span style=""color: green; font-size: 40px""><b>正确！+1 pts</b></span></div>
                            ","","learn","0","0","0","learn","2","2","[0, 1, 2, 3, 4, 5, 6, 7, 8, 9]","26","8","setsize","3S10A","animals","1","1","2","1",""
"null","null","fixation","html-keyboard-response","165","384435","0.0-1.0-7.0-3.0-0.27","18:34:15","3","","","","","","","fixation","","","","","","","","","","","","","","","","","","",""
"671","3","pic_response","html-keyboard-response","166","385107","0.0-1.0-7.0-3.0-1.27","18:34:15","3","","","","","","","<div>
            <img class='stim' src=""pictures/animals/0.jpg""></div><div class=""button_prompt"">
                    <b>请用数字键0-9回答</b>
                    </div>","","","","","","","","","","","","","","","","","","",""
"671","null","sub_response","html-keyboard-response","167","386110","0.0-1.0-7.0-3.0-2.27","18:34:15","3","","","","","","","<div style='text-align: center;'>
                            <span style=""color: green; font-size: 40px""><b>正确！+1 pts</b></span></div>
                            ","","learn","0","0","0","learn","2","2","[0, 1, 2, 3, 4, 5, 6, 7, 8, 9]","27","9","setsize","3S10A","animals","1","2","2","1",""
"null","null","fixation","html-keyboard-response","168","386611","0.0-1.0-7.0-3.0-0.28","18:34:15","3","","","","","","","fixation","","","","","","","","","","","","","","","","","","",""
"1083","7","pic_response","html-keyboard-response","169","387695","0.0-1.0-7.0-3.0-1.28","18:34:15","3","","","","","","","<div>
            <img class='stim' src=""pictures/animals/1.jpg""></div><div class=""button_prompt"">
                    <b>请用数字键0-9回答</b>
                    </div>","","","","","","","","","","","","","","","","","","",""
"1083","null","sub_response","html-keyboard-response","170","388697","0.0-1.0-7.0-3.0-2.28","18:34:15","3","","","","","","","<div style='text-align: center;'>
                            <span style=""color: green; font-size: 40px""><b>正确！+1 pts</b></span></div>
                            ","","learn","1","1","1","learn","6","6","[0, 1, 2, 3, 4, 5, 6, 7, 8, 9]","28","9","setsize","3S10A","animals","1","3","6","1",""
"null","null","fixation","html-keyboard-response","171","389199","0.0-1.0-7.0-3.0-0.29","18:34:15","3","","","","","","","fixation","","","","","","","","","","","","","","","","","","",""
"447","0","pic_response","html-keyboard-response","172","389647","0.0-1.0-7.0-3.0-1.29","18:34:15","3","","","","","","","<div>
            <img class='stim' src=""pictures/animals/2.jpg""></div><div class=""button_prompt"">
                    <b>请用数字键0-9回答</b>
                    </div>","","","","","","","","","","","","","","","","","","",""
"447","null","sub_response","html-keyboard-response","173","390648","0.0-1.0-7.0-3.0-2.29","18:34:15","3","","","","","","","<div style='text-align: center;'>
                            <span style=""color: green; font-size: 40px""><b>正确！+1 pts</b></span></div>
                            ","","learn","2","2","2","learn","9","9","[0, 1, 2, 3, 4, 5, 6, 7, 8, 9]","29","9","setsize","3S10A","animals","1","4","9","1",""
"null","null","fixation","html-keyboard-response","174","391150","0.0-1.0-7.0-3.0-0.30","18:34:15","3","","","","","","","fixation","","","","","","","","","","","","","","","","","","",""
"736","0","pic_response","html-keyboard-response","175","391888","0.0-1.0-7.0-3.0-1.30","18:34:15","3","","","","","","","<div>
            <img class='stim' src=""pictures/animals/2.jpg""></div><div class=""button_prompt"">
                    <b>请用数字键0-9回答</b>
                    </div>","","","","","","","","","","","","","","","","","","",""
"736","null","sub_response","html-keyboard-response","176","392889","0.0-1.0-7.0-3.0-2.30","18:34:15","3","","","","","","","<div style='text-align: center;'>
                            <span style=""color: green; font-size: 40px""><b>正确！+1 pts</b></span></div>
                            ","","learn","2","2","2","learn","9","9","[0, 1, 2, 3, 4, 5, 6, 7, 8, 9]","30","10","setsize","3S10A","animals","1","5","9","1",""
"null","null","fixation","html-keyboard-response","177","393391","0.0-1.0-7.0-3.0-0.31","18:34:15","3","","","","","","","fixation","","","","","","","","","","","","","","","","","","",""
"452","3","pic_response","html-keyboard-response","178","393844","0.0-1.0-7.0-3.0-1.31","18:34:15","3","","","","","","","<div>
            <img class='stim' src=""pictures/animals/0.jpg""></div><div class=""button_prompt"">
                    <b>请用数字键0-9回答</b>
                    </div>","","","","","","","","","","","","","","","","","","",""
"452","null","sub_response","html-keyboard-response","179","394851","0.0-1.0-7.0-3.0-2.31","18:34:15","3","","","","","","","<div style='text-align: center;'>
                            <span style=""color: green; font-size: 40px""><b>正确！+1 pts</b></span></div>
                            ","","learn","0","0","0","learn","2","2","[0, 1, 2, 3, 4, 5, 6, 7, 8, 9]","31","10","setsize","3S10A","animals","1","6","2","1",""
"null","null","fixation","html-keyboard-response","180","395353","0.0-1.0-7.0-3.0-0.32","18:34:15","3","","","","","","","fixation","","","","","","","","","","","","","","","","","","",""
"565","7","pic_response","html-keyboard-response","181","395918","0.0-1.0-7.0-3.0-1.32","18:34:15","3","","","","","","","<div>
            <img class='stim' src=""pictures/animals/1.jpg""></div><div class=""button_prompt"">
                    <b>请用数字键0-9回答</b>
                    </div>","","","","","","","","","","","","","","","","","","",""
"565","null","sub_response","html-keyboard-response","182","396920","0.0-1.0-7.0-3.0-2.32","18:34:15","3","","","","","","","<div style='text-align: center;'>
                            <span style=""color: green; font-size: 40px""><b>正确！+1 pts</b></span></div>
                            ","","learn","1","1","1","learn","6","6","[0, 1, 2, 3, 4, 5, 6, 7, 8, 9]","32","10","setsize","3S10A","animals","1","7","6","1",""
"null","null","fixation","html-keyboard-response","183","397421","0.0-1.0-7.0-3.0-0.33","18:34:15","3","","","","","","","fixation","","","","","","","","","","","","","","","","","","",""
"529","3","pic_response","html-keyboard-response","184","397951","0.0-1.0-7.0-3.0-1.33","18:34:15","3","","","","","","","<div>
            <img class='stim' src=""pictures/animals/0.jpg""></div><div class=""button_prompt"">
                    <b>请用数字键0-9回答</b>
                    </div>","","","","","","","","","","","","","","","","","","",""
"529","null","sub_response","html-keyboard-response","185","398953","0.0-1.0-7.0-3.0-2.33","18:34:15","3","","","","","","","<div style='text-align: center;'>
                            <span style=""color: green; font-size: 40px""><b>正确！+1 pts</b></span></div>
                            ","","learn","0","0","0","learn","2","2","[0, 1, 2, 3, 4, 5, 6, 7, 8, 9]","33","11","setsize","3S10A","animals","1","8","2","1",""
"null","null","fixation","html-keyboard-response","186","399455","0.0-1.0-7.0-3.0-0.34","18:34:15","3","","","","","","","fixation","","","","","","","","","","","","","","","","","","",""
"731","0","pic_response","html-keyboard-response","187","400187","0.0-1.0-7.0-3.0-1.34","18:34:15","3","","","","","","","<div>
            <img class='stim' src=""pictures/animals/2.jpg""></div><div class=""button_prompt"">
                    <b>请用数字键0-9回答</b>
                    </div>","","","","","","","","","","","","","","","","","","",""
"731","null","sub_response","html-keyboard-response","188","401188","0.0-1.0-7.0-3.0-2.34","18:34:15","3","","","","","","","<div style='text-align: center;'>
                            <span style=""color: green; font-size: 40px""><b>正确！+1 pts</b></span></div>
                            ","","learn","2","2","2","learn","9","9","[0, 1, 2, 3, 4, 5, 6, 7, 8, 9]","34","11","setsize","3S10A","animals","1","9","9","1",""
"null","null","fixation","html-keyboard-response","189","401690","0.0-1.0-7.0-3.0-0.35","18:34:15","3","","","","","","","fixation","","","","","","","","","","","","","","","","","","",""
"560","7","pic_response","html-keyboard-response","190","402251","0.0-1.0-7.0-3.0-1.35","18:34:15","3","","","","","","","<div>
            <img class='stim' src=""pictures/animals/1.jpg""></div><div class=""button_prompt"">
                    <b>请用数字键0-9回答</b>
                    </div>","","","","","","","","","","","","","","","","","","",""
"560","null","sub_response","html-keyboard-response","191","403253","0.0-1.0-7.0-3.0-2.35","18:34:15","3","","","","","","","<div style='text-align: center;'>
                            <span style=""color: green; font-size: 40px""><b>正确！+1 pts</b></span></div>
                            ","","learn","1","1","1","learn","6","6","[0, 1, 2, 3, 4, 5, 6, 7, 8, 9]","35","11","setsize","3S10A","animals","1","10","6","1",""
"null","null","fixation","html-keyboard-response","192","403755","0.0-1.0-7.0-3.0-0.36","18:34:15","3","","","","","","","fixation","","","","","","","","","","","","","","","","","","",""
"780","0","pic_response","html-keyboard-response","193","404536","0.0-1.0-7.0-3.0-1.36","18:34:15","3","","","","","","","<div>
            <img class='stim' src=""pictures/animals/2.jpg""></div><div class=""button_prompt"">
                    <b>请用数字键0-9回答</b>
                    </div>","","","","","","","","","","","","","","","","","","",""
"780","null","sub_response","html-keyboard-response","194","405537","0.0-1.0-7.0-3.0-2.36","18:34:15","3","","","","","","","<div style='text-align: center;'>
                            <span style=""color: green; font-size: 40px""><b>正确！+1 pts</b></span></div>
                            ","","learn","2","2","2","learn","9","9","[0, 1, 2, 3, 4, 5, 6, 7, 8, 9]","36","12","setsize","3S10A","animals","1","11","9","1",""
"null","null","fixation","html-keyboard-response","195","406039","0.0-1.0-7.0-3.0-0.37","18:34:15","3","","","","","","","fixation","","","","","","","","","","","","","","","","","","",""
"736","3","pic_response","html-keyboard-response","196","406775","0.0-1.0-7.0-3.0-1.37","18:34:15","3","","","","","","","<div>
            <img class='stim' src=""pictures/animals/1.jpg""></div><div class=""button_prompt"">
                    <b>请用数字键0-9回答</b>
                    </div>","","","","","","","","","","","","","","","","","","",""
"736","null","sub_response","html-keyboard-response","197","407777","0.0-1.0-7.0-3.0-2.37","18:34:15","3","","","","","","","<div style='text-align: center;'>
                            <span style=""color: red; font-size: 40px""><b>错误！+0 pts</b></span></div>
                            ","","learn","1","1","1","learn","6","6","[0, 1, 2, 3, 4, 5, 6, 7, 8, 9]","37","12","setsize","3S10A","animals","1","0","2","0",""
"null","null","fixation","html-keyboard-response","198","408278","0.0-1.0-7.0-3.0-0.38","18:34:15","3","","","","","","","fixation","","","","","","","","","","","","","","","","","","",""
"724","3","pic_response","html-keyboard-response","199","409005","0.0-1.0-7.0-3.0-1.38","18:34:15","3","","","","","","","<div>
            <img class='stim' src=""pictures/animals/0.jpg""></div><div class=""button_prompt"">
                    <b>请用数字键0-9回答</b>
                    </div>","","","","","","","","","","","","","","","","","","",""
"724","null","sub_response","html-keyboard-response","200","410006","0.0-1.0-7.0-3.0-2.38","18:34:15","3","","","","","","","<div style='text-align: center;'>
                            <span style=""color: green; font-size: 40px""><b>正确！+1 pts</b></span></div>
                            ","","learn","0","0","0","learn","2","2","[0, 1, 2, 3, 4, 5, 6, 7, 8, 9]","38","12","setsize","3S10A","animals","1","1","2","1",""
"null","null","fixation","html-keyboard-response","201","410509","0.0-1.0-7.0-3.0-0.39","18:34:15","3","","","","","","","fixation","","","","","","","","","","","","","","","","","","",""
"666","0","pic_response","html-keyboard-response","202","411176","0.0-1.0-7.0-3.0-1.39","18:34:15","3","","","","","","","<div>
            <img class='stim' src=""pictures/animals/2.jpg""></div><div class=""button_prompt"">
                    <b>请用数字键0-9回答</b>
                    </div>","","","","","","","","","","","","","","","","","","",""
"666","null","sub_response","html-keyboard-response","203","412177","0.0-1.0-7.0-3.0-2.39","18:34:15","3","","","","","","","<div style='text-align: center;'>
                            <span style=""color: green; font-size: 40px""><b>正确！+1 pts</b></span></div>
                            ","","learn","2","2","2","learn","9","9","[0, 1, 2, 3, 4, 5, 6, 7, 8, 9]","39","13","setsize","3S10A","animals","1","2","9","1",""
"null","null","fixation","html-keyboard-response","204","412682","0.0-1.0-7.0-3.0-0.40","18:34:15","3","","","","","","","fixation","","","","","","","","","","","","","","","","","","",""
"678","3","pic_response","html-keyboard-response","205","413362","0.0-1.0-7.0-3.0-1.40","18:34:15","3","","","","","","","<div>
            <img class='stim' src=""pictures/animals/0.jpg""></div><div class=""button_prompt"">
                    <b>请用数字键0-9回答</b>
                    </div>","","","","","","","","","","","","","","","","","","",""
"678","null","sub_response","html-keyboard-response","206","414364","0.0-1.0-7.0-3.0-2.40","18:34:15","3","","","","","","","<div style='text-align: center;'>
                            <span style=""color: green; font-size: 40px""><b>正确！+1 pts</b></span></div>
                            ","","learn","0","0","0","learn","2","2","[0, 1, 2, 3, 4, 5, 6, 7, 8, 9]","40","13","setsize","3S10A","animals","1","3","2","1",""
"null","null","fixation","html-keyboard-response","207","414866","0.0-1.0-7.0-3.0-0.41","18:34:15","3","","","","","","","fixation","","","","","","","","","","","","","","","","","","",""
"1521","3","pic_response","html-keyboard-response","208","416388","0.0-1.0-7.0-3.0-1.41","18:34:15","3","","","","","","","<div>
            <img class='stim' src=""pictures/animals/1.jpg""></div><div class=""button_prompt"">
                    <b>请用数字键0-9回答</b>
                    </div>","","","","","","","","","","","","","","","","","","",""
"1521","null","sub_response","html-keyboard-response","209","417389","0.0-1.0-7.0-3.0-2.41","18:34:15","3","","","","","","","<div style='text-align: center;'>
                            <span style=""color: red; font-size: 40px""><b>错误！+0 pts</b></span></div>
                            ","","learn","1","1","1","learn","6","6","[0, 1, 2, 3, 4, 5, 6, 7, 8, 9]","41","13","setsize","3S10A","animals","1","0","2","0",""
"null","null","fixation","html-keyboard-response","210","417892","0.0-1.0-7.0-3.0-0.42","18:34:15","3","","","","","","","fixation","","","","","","","","","","","","","","","","","","",""
"950","3","pic_response","html-keyboard-response","211","418844","0.0-1.0-7.0-3.0-1.42","18:34:15","3","","","","","","","<div>
            <img class='stim' src=""pictures/animals/0.jpg""></div><div class=""button_prompt"">
                    <b>请用数字键0-9回答</b>
                    </div>","","","","","","","","","","","","","","","","","","",""
"950","null","sub_response","html-keyboard-response","212","419845","0.0-1.0-7.0-3.0-2.42","18:34:15","3","","","","","","","<div style='text-align: center;'>
                            <span style=""color: green; font-size: 40px""><b>正确！+1 pts</b></span></div>
                            ","","learn","0","0","0","learn","2","2","[0, 1, 2, 3, 4, 5, 6, 7, 8, 9]","42","14","setsize","3S10A","animals","1","1","2","1",""
"null","null","fixation","html-keyboard-response","213","420347","0.0-1.0-7.0-3.0-0.43","18:34:15","3","","","","","","","fixation","","","","","","","","","","","","","","","","","","",""
"706","0","pic_response","html-keyboard-response","214","421055","0.0-1.0-7.0-3.0-1.43","18:34:15","3","","","","","","","<div>
            <img class='stim' src=""pictures/animals/2.jpg""></div><div class=""button_prompt"">
                    <b>请用数字键0-9回答</b>
                    </div>","","","","","","","","","","","","","","","","","","",""
"706","null","sub_response","html-keyboard-response","215","422057","0.0-1.0-7.0-3.0-2.43","18:34:15","3","","","","","","","<div style='text-align: center;'>
                            <span style=""color: green; font-size: 40px""><b>正确！+1 pts</b></span></div>
                            ","","learn","2","2","2","learn","9","9","[0, 1, 2, 3, 4, 5, 6, 7, 8, 9]","43","14","setsize","3S10A","animals","1","2","9","1",""
"null","null","fixation","html-keyboard-response","216","422559","0.0-1.0-7.0-3.0-0.44","18:34:15","3","","","","","","","fixation","","","","","","","","","","","","","","","","","","",""
"493","7","pic_response","html-keyboard-response","217","423053","0.0-1.0-7.0-3.0-1.44","18:34:15","3","","","","","","","<div>
            <img class='stim' src=""pictures/animals/1.jpg""></div><div class=""button_prompt"">
                    <b>请用数字键0-9回答</b>
                    </div>","","","","","","","","","","","","","","","","","","",""
"493","null","sub_response","html-keyboard-response","218","424066","0.0-1.0-7.0-3.0-2.44","18:34:15","3","","","","","","","<div style='text-align: center;'>
                            <span style=""color: green; font-size: 40px""><b>正确！+1 pts</b></span></div>
                            ","","learn","1","1","1","learn","6","6","[0, 1, 2, 3, 4, 5, 6, 7, 8, 9]","44","14","setsize","3S10A","animals","1","3","6","1",""
"null","null","fixation","html-keyboard-response","219","424568","0.0-1.0-7.0-3.0-0.45","18:34:15","3","","","","","","","fixation","","","","","","","","","","","","","","","","","","",""
"640","3","pic_response","html-keyboard-response","220","425209","0.0-1.0-7.0-3.0-1.45","18:34:15","3","","","","","","","<div>
            <img class='stim' src=""pictures/animals/0.jpg""></div><div class=""button_prompt"">
                    <b>请用数字键0-9回答</b>
                    </div>","","","","","","","","","","","","","","","","","","",""
"640","null","sub_response","html-keyboard-response","221","426211","0.0-1.0-7.0-3.0-2.45","18:34:15","3","","","","","","","<div style='text-align: center;'>
                            <span style=""color: green; font-size: 40px""><b>正确！+1 pts</b></span></div>
                            ","","learn","0","0","0","learn","2","2","[0, 1, 2, 3, 4, 5, 6, 7, 8, 9]","45","15","setsize","3S10A","animals","1","4","2","1",""
"null","null","fixation","html-keyboard-response","222","426713","0.0-1.0-7.0-3.0-0.46","18:34:15","3","","","","","","","fixation","","","","","","","","","","","","","","","","","","",""
"994","0","pic_response","html-keyboard-response","223","427708","0.0-1.0-7.0-3.0-1.46","18:34:15","3","","","","","","","<div>
            <img class='stim' src=""pictures/animals/2.jpg""></div><div class=""button_prompt"">
                    <b>请用数字键0-9回答</b>
                    </div>","","","","","","","","","","","","","","","","","","",""
"994","null","sub_response","html-keyboard-response","224","428710","0.0-1.0-7.0-3.0-2.46","18:34:15","3","","","","","","","<div style='text-align: center;'>
                            <span style=""color: green; font-size: 40px""><b>正确！+1 pts</b></span></div>
                            ","","learn","2","2","2","learn","9","9","[0, 1, 2, 3, 4, 5, 6, 7, 8, 9]","46","15","setsize","3S10A","animals","1","5","9","1",""
"null","null","fixation","html-keyboard-response","225","429211","0.0-1.0-7.0-3.0-0.47","18:34:15","3","","","","","","","fixation","","","","","","","","","","","","","","","","","","",""
"599","7","pic_response","html-keyboard-response","226","429812","0.0-1.0-7.0-3.0-1.47","18:34:15","3","","","","","","","<div>
            <img class='stim' src=""pictures/animals/1.jpg""></div><div class=""button_prompt"">
                    <b>请用数字键0-9回答</b>
                    </div>","","","","","","","","","","","","","","","","","","",""
"599","null","sub_response","html-keyboard-response","227","430813","0.0-1.0-7.0-3.0-2.47","18:34:15","3","","","","","","","<div style='text-align: center;'>
                            <span style=""color: green; font-size: 40px""><b>正确！+1 pts</b></span></div>
                            ","","learn","1","1","1","learn","6","6","[0, 1, 2, 3, 4, 5, 6, 7, 8, 9]","47","15","setsize","3S10A","animals","1","6","6","1",""
"null","null","fixation","html-keyboard-response","228","431314","0.0-1.0-7.0-3.0-0.48","18:34:15","3","","","","","","","fixation","","","","","","","","","","","","","","","","","","",""
"514","3","pic_response","html-keyboard-response","229","431829","0.0-1.0-7.0-3.0-1.48","18:34:15","3","","","","","","","<div>
            <img class='stim' src=""pictures/animals/0.jpg""></div><div class=""button_prompt"">
                    <b>请用数字键0-9回答</b>
                    </div>","","","","","","","","","","","","","","","","","","",""
"514","null","sub_response","html-keyboard-response","230","432832","0.0-1.0-7.0-3.0-2.48","18:34:15","3","","","","","","","<div style='text-align: center;'>
                            <span style=""color: green; font-size: 40px""><b>正确！+1 pts</b></span></div>
                            ","","learn","0","0","0","learn","2","2","[0, 1, 2, 3, 4, 5, 6, 7, 8, 9]","48","16","setsize","3S10A","animals","1","7","2","1",""
"null","null","fixation","html-keyboard-response","231","433332","0.0-1.0-7.0-3.0-0.49","18:34:15","3","","","","","","","fixation","","","","","","","","","","","","","","","","","","",""
"380","7","pic_response","html-keyboard-response","232","433713","0.0-1.0-7.0-3.0-1.49","18:34:15","3","","","","","","","<div>
            <img class='stim' src=""pictures/animals/1.jpg""></div><div class=""button_prompt"">
                    <b>请用数字键0-9回答</b>
                    </div>","","","","","","","","","","","","","","","","","","",""
"380","null","sub_response","html-keyboard-response","233","434714","0.0-1.0-7.0-3.0-2.49","18:34:15","3","","","","","","","<div style='text-align: center;'>
                            <span style=""color: green; font-size: 40px""><b>正确！+1 pts</b></span></div>
                            ","","learn","1","1","1","learn","6","6","[0, 1, 2, 3, 4, 5, 6, 7, 8, 9]","49","16","setsize","3S10A","animals","1","8","6","1",""
"null","null","fixation","html-keyboard-response","234","435215","0.0-1.0-7.0-3.0-0.50","18:34:15","3","","","","","","","fixation","","","","","","","","","","","","","","","","","","",""
"409","0","pic_response","html-keyboard-response","235","435625","0.0-1.0-7.0-3.0-1.50","18:34:15","3","","","","","","","<div>
            <img class='stim' src=""pictures/animals/2.jpg""></div><div class=""button_prompt"">
                    <b>请用数字键0-9回答</b>
                    </div>","","","","","","","","","","","","","","","","","","",""
"409","null","sub_response","html-keyboard-response","236","436627","0.0-1.0-7.0-3.0-2.50","18:34:15","3","","","","","","","<div style='text-align: center;'>
                            <span style=""color: green; font-size: 40px""><b>正确！+1 pts</b></span></div>
                            ","","learn","2","2","2","learn","9","9","[0, 1, 2, 3, 4, 5, 6, 7, 8, 9]","50","16","setsize","3S10A","animals","1","9","9","1",""
"6690"," ","","html-keyboard-response","237","443318","0.0-1.0-8.0","18:34:15","3","","","","","","","<div style=""font-size: 25px""><p>距下一个实验开始还有</p><div style=""font-size: 50px; color: blue""><p><span id=""clock"">1:00</span></div></p><p>按""空格""跳过休息</p></div>","","","","","","","","","","","","","","","","","","",""
"","","","preload","238","443501","0.0-1.0-9.0-0.0","18:34:15","3","true","false","[]","[]","[]","","","","","","","","","","","","","","","","","","","","",""
"1146"," ","","html-keyboard-response","239","444648","0.0-1.0-9.0-1.0","18:34:15","3","","","","","","","<div style='font-size: 32px; text-align: center;'
                    <p>请学习图片和数字之间的对应关系</p>
                    <p>我们将<span style='color: blue'><b> 告诉 </b></span>您选择的对错。请根据反馈学习。</p>
                    <p>请按""空格""继续实验。</p></div>","","","","","","","","","","","","","","","","","","",""
"9007"," ","inst","html-keyboard-response","240","453656","0.0-1.0-9.0-2.0","18:34:15","3","","","","","","","<img class='instruct_stim' src=""instruction/sports3.PNG""></div>","","","","","","","","","","","","","","","","","","",""
"null","null","fixation","html-keyboard-response","241","454157","0.0-1.0-9.0-3.0-0.0","18:34:15","3","","","","","","","fixation","","","","","","","","","","","","","","","","","","",""
"916","1","pic_response","html-keyboard-response","242","455074","0.0-1.0-9.0-3.0-1.0","18:34:15","3","","","","","","","<div>
            <img class='stim' src=""pictures/sports/2.jpg""></div><div class=""button_prompt"">
                        <b>请用数字键1-3回答</b>
                        </div>","","","","","","","","","","","","","","","","","","",""
"916","null","sub_response","html-keyboard-response","243","456075","0.0-1.0-9.0-3.0-2.0","18:34:15","3","","","","","","","<div style='text-align: center;'>
                            <span style=""color: red; font-size: 40px""><b>错误！+0 pts</b></span></div>
                            ","","learn","2","2","2","learn","2","2","[0, 1, 2]","0","0","setsize","3S3A","sports","2","0","0","0",""
"null","null","fixation","html-keyboard-response","244","456577","0.0-1.0-9.0-3.0-0.1","18:34:15","3","","","","","","","fixation","","","","","","","","","","","","","","","","","","",""
"602","1","pic_response","html-keyboard-response","245","457180","0.0-1.0-9.0-3.0-1.1","18:34:15","3","","","","","","","<div>
            <img class='stim' src=""pictures/sports/0.jpg""></div><div class=""button_prompt"">
                        <b>请用数字键1-3回答</b>
                        </div>","","","","","","","","","","","","","","","","","","",""
"602","null","sub_response","html-keyboard-response","246","458183","0.0-1.0-9.0-3.0-2.1","18:34:15","3","","","","","","","<div style='text-align: center;'>
                            <span style=""color: green; font-size: 40px""><b>正确！+1 pts</b></span></div>
                            ","","learn","0","0","0","learn","0","0","[0, 1, 2]","1","0","setsize","3S3A","sports","2","1","0","1",""
"null","null","fixation","html-keyboard-response","247","458686","0.0-1.0-9.0-3.0-0.2","18:34:15","3","","","","","","","fixation","","","","","","","","","","","","","","","","","","",""
"1016","2","pic_response","html-keyboard-response","248","459702","0.0-1.0-9.0-3.0-1.2","18:34:15","3","","","","","","","<div>
            <img class='stim' src=""pictures/sports/1.jpg""></div><div class=""button_prompt"">
                        <b>请用数字键1-3回答</b>
                        </div>","","","","","","","","","","","","","","","","","","",""
"1016","null","sub_response","html-keyboard-response","249","460703","0.0-1.0-9.0-3.0-2.2","18:34:15","3","","","","","","","<div style='text-align: center;'>
                            <span style=""color: red; font-size: 40px""><b>错误！+0 pts</b></span></div>
                            ","","learn","1","1","1","learn","0","0","[0, 1, 2]","2","0","setsize","3S3A","sports","2","0","1","0",""
"null","null","fixation","html-keyboard-response","250","461204","0.0-1.0-9.0-3.0-0.3","18:34:15","3","","","","","","","fixation","","","","","","","","","","","","","","","","","","",""
"1715","2","pic_response","html-keyboard-response","251","462920","0.0-1.0-9.0-3.0-1.3","18:34:15","3","","","","","","","<div>
            <img class='stim' src=""pictures/sports/0.jpg""></div><div class=""button_prompt"">
                        <b>请用数字键1-3回答</b>
                        </div>","","","","","","","","","","","","","","","","","","",""
"1715","null","sub_response","html-keyboard-response","252","463922","0.0-1.0-9.0-3.0-2.3","18:34:15","3","","","","","","","<div style='text-align: center;'>
                            <span style=""color: red; font-size: 40px""><b>错误！+0 pts</b></span></div>
                            ","","learn","0","0","0","learn","0","0","[0, 1, 2]","3","1","setsize","3S3A","sports","2","0","1","0",""
"null","null","fixation","html-keyboard-response","253","464424","0.0-1.0-9.0-3.0-0.4","18:34:15","3","","","","","","","fixation","","","","","","","","","","","","","","","","","","",""
"932","1","pic_response","html-keyboard-response","254","465357","0.0-1.0-9.0-3.0-1.4","18:34:15","3","","","","","","","<div>
            <img class='stim' src=""pictures/sports/2.jpg""></div><div class=""button_prompt"">
                        <b>请用数字键1-3回答</b>
                        </div>","","","","","","","","","","","","","","","","","","",""
"932","null","sub_response","html-keyboard-response","255","466358","0.0-1.0-9.0-3.0-2.4","18:34:15","3","","","","","","","<div style='text-align: center;'>
                            <span style=""color: red; font-size: 40px""><b>错误！+0 pts</b></span></div>
                            ","","learn","2","2","2","learn","2","2","[0, 1, 2]","4","1","setsize","3S3A","sports","2","0","0","0",""
"null","null","fixation","html-keyboard-response","256","466861","0.0-1.0-9.0-3.0-0.5","18:34:15","3","","","","","","","fixation","","","","","","","","","","","","","","","","","","",""
"1156","1","pic_response","html-keyboard-response","257","468018","0.0-1.0-9.0-3.0-1.5","18:34:15","3","","","","","","","<div>
            <img class='stim' src=""pictures/sports/1.jpg""></div><div class=""button_prompt"">
                        <b>请用数字键1-3回答</b>
                        </div>","","","","","","","","","","","","","","","","","","",""
"1156","null","sub_response","html-keyboard-response","258","469021","0.0-1.0-9.0-3.0-2.5","18:34:15","3","","","","","","","<div style='text-align: center;'>
                            <span style=""color: green; font-size: 40px""><b>正确！+1 pts</b></span></div>
                            ","","learn","1","1","1","learn","0","0","[0, 1, 2]","5","1","setsize","3S3A","sports","2","1","0","1",""
"null","null","fixation","html-keyboard-response","259","469524","0.0-1.0-9.0-3.0-0.6","18:34:15","3","","","","","","","fixation","","","","","","","","","","","","","","","","","","",""
"524","3","pic_response","html-keyboard-response","260","470049","0.0-1.0-9.0-3.0-1.6","18:34:15","3","","","","","","","<div>
            <img class='stim' src=""pictures/sports/0.jpg""></div><div class=""button_prompt"">
                        <b>请用数字键1-3回答</b>
                        </div>","","","","","","","","","","","","","","","","","","",""
"524","null","sub_response","html-keyboard-response","261","471050","0.0-1.0-9.0-3.0-2.6","18:34:15","3","","","","","","","<div style='text-align: center;'>
                            <span style=""color: red; font-size: 40px""><b>错误！+0 pts</b></span></div>
                            ","","learn","0","0","0","learn","0","0","[0, 1, 2]","6","2","setsize","3S3A","sports","2","0","2","0",""
"null","null","fixation","html-keyboard-response","262","471552","0.0-1.0-9.0-3.0-0.7","18:34:15","3","","","","","","","fixation","","","","","","","","","","","","","","","","","","",""
"716","3","pic_response","html-keyboard-response","263","472269","0.0-1.0-9.0-3.0-1.7","18:34:15","3","","","","","","","<div>
            <img class='stim' src=""pictures/sports/2.jpg""></div><div class=""button_prompt"">
                        <b>请用数字键1-3回答</b>
                        </div>","","","","","","","","","","","","","","","","","","",""
"716","null","sub_response","html-keyboard-response","264","473271","0.0-1.0-9.0-3.0-2.7","18:34:15","3","","","","","","","<div style='text-align: center;'>
                            <span style=""color: green; font-size: 40px""><b>正确！+1 pts</b></span></div>
                            ","","learn","2","2","2","learn","2","2","[0, 1, 2]","7","2","setsize","3S3A","sports","2","1","2","1",""
"null","null","fixation","html-keyboard-response","265","473773","0.0-1.0-9.0-3.0-0.8","18:34:15","3","","","","","","","fixation","","","","","","","","","","","","","","","","","","",""
"933","1","pic_response","html-keyboard-response","266","474707","0.0-1.0-9.0-3.0-1.8","18:34:15","3","","","","","","","<div>
            <img class='stim' src=""pictures/sports/1.jpg""></div><div class=""button_prompt"">
                        <b>请用数字键1-3回答</b>
                        </div>","","","","","","","","","","","","","","","","","","",""
"933","null","sub_response","html-keyboard-response","267","475710","0.0-1.0-9.0-3.0-2.8","18:34:15","3","","","","","","","<div style='text-align: center;'>
                            <span style=""color: green; font-size: 40px""><b>正确！+1 pts</b></span></div>
                            ","","learn","1","1","1","learn","0","0","[0, 1, 2]","8","2","setsize","3S3A","sports","2","2","0","1",""
"null","null","fixation","html-keyboard-response","268","476212","0.0-1.0-9.0-3.0-0.9","18:34:15","3","","","","","","","fixation","","","","","","","","","","","","","","","","","","",""
"null","null","pic_response","html-keyboard-response","269","479214","0.0-1.0-9.0-3.0-1.9","18:34:15","3","","","","","","","<div>
            <img class='stim' src=""pictures/sports/0.jpg""></div><div class=""button_prompt"">
                        <b>请用数字键1-3回答</b>
                        </div>","","","","","","","","","","","","","","","","","","",""
"null","null","sub_response","html-keyboard-response","270","480216","0.0-1.0-9.0-3.0-2.9","18:34:15","3","","","","","","","<div style='text-align: center;'>
                            <span style=""color: red; font-size: 40px""><b>错误！+0 pts</b></span></div>
                            ","","learn","0","0","0","learn","0","0","[0, 1, 2]","9","3","setsize","3S3A","sports","2","0","999","0",""
"null","null","fixation","html-keyboard-response","271","480717","0.0-1.0-9.0-3.0-0.10","18:34:15","3","","","","","","","fixation","","","","","","","","","","","","","","","","","","",""
"1255","1","pic_response","html-keyboard-response","272","481974","0.0-1.0-9.0-3.0-1.10","18:34:15","3","","","","","","","<div>
            <img class='stim' src=""pictures/sports/1.jpg""></div><div class=""button_prompt"">
                        <b>请用数字键1-3回答</b>
                        </div>","","","","","","","","","","","","","","","","","","",""
"1255","null","sub_response","html-keyboard-response","273","482975","0.0-1.0-9.0-3.0-2.10","18:34:15","3","","","","","","","<div style='text-align: center;'>
                            <span style=""color: green; font-size: 40px""><b>正确！+1 pts</b></span></div>
                            ","","learn","1","1","1","learn","0","0","[0, 1, 2]","10","3","setsize","3S3A","sports","2","1","0","1",""
"null","null","fixation","html-keyboard-response","274","483477","0.0-1.0-9.0-3.0-0.11","18:34:15","3","","","","","","","fixation","","","","","","","","","","","","","","","","","","",""
"718","3","pic_response","html-keyboard-response","275","484198","0.0-1.0-9.0-3.0-1.11","18:34:15","3","","","","","","","<div>
            <img class='stim' src=""pictures/sports/2.jpg""></div><div class=""button_prompt"">
                        <b>请用数字键1-3回答</b>
                        </div>","","","","","","","","","","","","","","","","","","",""
"718","null","sub_response","html-keyboard-response","276","485200","0.0-1.0-9.0-3.0-2.11","18:34:15","3","","","","","","","<div style='text-align: center;'>
                            <span style=""color: green; font-size: 40px""><b>正确！+1 pts</b></span></div>
                            ","","learn","2","2","2","learn","2","2","[0, 1, 2]","11","3","setsize","3S3A","sports","2","2","2","1",""
"null","null","fixation","html-keyboard-response","277","485701","0.0-1.0-9.0-3.0-0.12","18:34:15","3","","","","","","","fixation","","","","","","","","","","","","","","","","","","",""
"835","3","pic_response","html-keyboard-response","278","486537","0.0-1.0-9.0-3.0-1.12","18:34:15","3","","","","","","","<div>
            <img class='stim' src=""pictures/sports/2.jpg""></div><div class=""button_prompt"">
                        <b>请用数字键1-3回答</b>
                        </div>","","","","","","","","","","","","","","","","","","",""
"835","null","sub_response","html-keyboard-response","279","487539","0.0-1.0-9.0-3.0-2.12","18:34:15","3","","","","","","","<div style='text-align: center;'>
                            <span style=""color: green; font-size: 40px""><b>正确！+1 pts</b></span></div>
                            ","","learn","2","2","2","learn","2","2","[0, 1, 2]","12","4","setsize","3S3A","sports","2","3","2","1",""
"null","null","fixation","html-keyboard-response","280","488040","0.0-1.0-9.0-3.0-0.13","18:34:15","3","","","","","","","fixation","","","","","","","","","","","","","","","","","","",""
"625","2","pic_response","html-keyboard-response","281","488666","0.0-1.0-9.0-3.0-1.13","18:34:15","3","","","","","","","<div>
            <img class='stim' src=""pictures/sports/0.jpg""></div><div class=""button_prompt"">
                        <b>请用数字键1-3回答</b>
                        </div>","","","","","","","","","","","","","","","","","","",""
"625","null","sub_response","html-keyboard-response","282","489667","0.0-1.0-9.0-3.0-2.13","18:34:15","3","","","","","","","<div style='text-align: center;'>
                            <span style=""color: red; font-size: 40px""><b>错误！+0 pts</b></span></div>
                            ","","learn","0","0","0","learn","0","0","[0, 1, 2]","13","4","setsize","3S3A","sports","2","0","1","0",""
"null","null","fixation","html-keyboard-response","283","490168","0.0-1.0-9.0-3.0-0.14","18:34:15","3","","","","","","","fixation","","","","","","","","","","","","","","","","","","",""
"1446","3","pic_response","html-keyboard-response","284","491614","0.0-1.0-9.0-3.0-1.14","18:34:15","3","","","","","","","<div>
            <img class='stim' src=""pictures/sports/1.jpg""></div><div class=""button_prompt"">
                        <b>请用数字键1-3回答</b>
                        </div>","","","","","","","","","","","","","","","","","","",""
"1446","null","sub_response","html-keyboard-response","285","492617","0.0-1.0-9.0-3.0-2.14","18:34:15","3","","","","","","","<div style='text-align: center;'>
                            <span style=""color: red; font-size: 40px""><b>错误！+0 pts</b></span></div>
                            ","","learn","1","1","1","learn","0","0","[0, 1, 2]","14","4","setsize","3S3A","sports","2","0","2","0",""
"null","null","fixation","html-keyboard-response","286","493132","0.0-1.0-9.0-3.0-0.15","18:34:15","3","","","","","","","fixation","","","","","","","","","","","","","","","","","","",""
"1454","3","pic_response","html-keyboard-response","287","494587","0.0-1.0-9.0-3.0-1.15","18:34:15","3","","","","","","","<div>
            <img class='stim' src=""pictures/sports/2.jpg""></div><div class=""button_prompt"">
                        <b>请用数字键1-3回答</b>
                        </div>","","","","","","","","","","","","","","","","","","",""
"1454","null","sub_response","html-keyboard-response","288","495588","0.0-1.0-9.0-3.0-2.15","18:34:15","3","","","","","","","<div style='text-align: center;'>
                            <span style=""color: green; font-size: 40px""><b>正确！+1 pts</b></span></div>
                            ","","learn","2","2","2","learn","2","2","[0, 1, 2]","15","5","setsize","3S3A","sports","2","1","2","1",""
"null","null","fixation","html-keyboard-response","289","496089","0.0-1.0-9.0-3.0-0.16","18:34:15","3","","","","","","","fixation","","","","","","","","","","","","","","","","","","",""
"756","3","pic_response","html-keyboard-response","290","496846","0.0-1.0-9.0-3.0-1.16","18:34:15","3","","","","","","","<div>
            <img class='stim' src=""pictures/sports/0.jpg""></div><div class=""button_prompt"">
                        <b>请用数字键1-3回答</b>
                        </div>","","","","","","","","","","","","","","","","","","",""
"756","null","sub_response","html-keyboard-response","291","497848","0.0-1.0-9.0-3.0-2.16","18:34:15","3","","","","","","","<div style='text-align: center;'>
                            <span style=""color: red; font-size: 40px""><b>错误！+0 pts</b></span></div>
                            ","","learn","0","0","0","learn","0","0","[0, 1, 2]","16","5","setsize","3S3A","sports","2","0","2","0",""
"null","null","fixation","html-keyboard-response","292","498350","0.0-1.0-9.0-3.0-0.17","18:34:15","3","","","","","","","fixation","","","","","","","","","","","","","","","","","","",""
"655","1","pic_response","html-keyboard-response","293","499006","0.0-1.0-9.0-3.0-1.17","18:34:15","3","","","","","","","<div>
            <img class='stim' src=""pictures/sports/1.jpg""></div><div class=""button_prompt"">
                        <b>请用数字键1-3回答</b>
                        </div>","","","","","","","","","","","","","","","","","","",""
"655","null","sub_response","html-keyboard-response","294","500007","0.0-1.0-9.0-3.0-2.17","18:34:15","3","","","","","","","<div style='text-align: center;'>
                            <span style=""color: green; font-size: 40px""><b>正确！+1 pts</b></span></div>
                            ","","learn","1","1","1","learn","0","0","[0, 1, 2]","17","5","setsize","3S3A","sports","2","1","0","1",""
"null","null","fixation","html-keyboard-response","295","500514","0.0-1.0-9.0-3.0-0.18","18:34:15","3","","","","","","","fixation","","","","","","","","","","","","","","","","","","",""
"1705","1","pic_response","html-keyboard-response","296","502221","0.0-1.0-9.0-3.0-1.18","18:34:15","3","","","","","","","<div>
            <img class='stim' src=""pictures/sports/2.jpg""></div><div class=""button_prompt"">
                        <b>请用数字键1-3回答</b>
                        </div>","","","","","","","","","","","","","","","","","","",""
"1705","null","sub_response","html-keyboard-response","297","503223","0.0-1.0-9.0-3.0-2.18","18:34:15","3","","","","","","","<div style='text-align: center;'>
                            <span style=""color: red; font-size: 40px""><b>错误！+0 pts</b></span></div>
                            ","","learn","2","2","2","learn","2","2","[0, 1, 2]","18","6","setsize","3S3A","sports","2","0","0","0",""
"null","null","fixation","html-keyboard-response","298","503725","0.0-1.0-9.0-3.0-0.19","18:34:15","3","","","","","","","fixation","","","","","","","","","","","","","","","","","","",""
"646","1","pic_response","html-keyboard-response","299","504372","0.0-1.0-9.0-3.0-1.19","18:34:15","3","","","","","","","<div>
            <img class='stim' src=""pictures/sports/1.jpg""></div><div class=""button_prompt"">
                        <b>请用数字键1-3回答</b>
                        </div>","","","","","","","","","","","","","","","","","","",""
"646","null","sub_response","html-keyboard-response","300","505374","0.0-1.0-9.0-3.0-2.19","18:34:15","3","","","","","","","<div style='text-align: center;'>
                            <span style=""color: green; font-size: 40px""><b>正确！+1 pts</b></span></div>
                            ","","learn","1","1","1","learn","0","0","[0, 1, 2]","19","6","setsize","3S3A","sports","2","1","0","1",""
"null","null","fixation","html-keyboard-response","301","505876","0.0-1.0-9.0-3.0-0.20","18:34:15","3","","","","","","","fixation","","","","","","","","","","","","","","","","","","",""
"1023","1","pic_response","html-keyboard-response","302","506899","0.0-1.0-9.0-3.0-1.20","18:34:15","3","","","","","","","<div>
            <img class='stim' src=""pictures/sports/0.jpg""></div><div class=""button_prompt"">
                        <b>请用数字键1-3回答</b>
                        </div>","","","","","","","","","","","","","","","","","","",""
"1023","null","sub_response","html-keyboard-response","303","507902","0.0-1.0-9.0-3.0-2.20","18:34:15","3","","","","","","","<div style='text-align: center;'>
                            <span style=""color: green; font-size: 40px""><b>正确！+1 pts</b></span></div>
                            ","","learn","0","0","0","learn","0","0","[0, 1, 2]","20","6","setsize","3S3A","sports","2","2","0","1",""
"null","null","fixation","html-keyboard-response","304","508404","0.0-1.0-9.0-3.0-0.21","18:34:15","3","","","","","","","fixation","","","","","","","","","","","","","","","","","","",""
"693","1","pic_response","html-keyboard-response","305","509098","0.0-1.0-9.0-3.0-1.21","18:34:15","3","","","","","","","<div>
            <img class='stim' src=""pictures/sports/1.jpg""></div><div class=""button_prompt"">
                        <b>请用数字键1-3回答</b>
                        </div>","","","","","","","","","","","","","","","","","","",""
"693","null","sub_response","html-keyboard-response","306","510100","0.0-1.0-9.0-3.0-2.21","18:34:15","3","","","","","","","<div style='text-align: center;'>
                            <span style=""color: green; font-size: 40px""><b>正确！+1 pts</b></span></div>
                            ","","learn","1","1","1","learn","0","0","[0, 1, 2]","21","7","setsize","3S3A","sports","2","3","0","1",""
"null","null","fixation","html-keyboard-response","307","510602","0.0-1.0-9.0-3.0-0.22","18:34:15","3","","","","","","","fixation","","","","","","","","","","","","","","","","","","",""
"673","3","pic_response","html-keyboard-response","308","511275","0.0-1.0-9.0-3.0-1.22","18:34:15","3","","","","","","","<div>
            <img class='stim' src=""pictures/sports/2.jpg""></div><div class=""button_prompt"">
                        <b>请用数字键1-3回答</b>
                        </div>","","","","","","","","","","","","","","","","","","",""
"673","null","sub_response","html-keyboard-response","309","512276","0.0-1.0-9.0-3.0-2.22","18:34:15","3","","","","","","","<div style='text-align: center;'>
                            <span style=""color: green; font-size: 40px""><b>正确！+1 pts</b></span></div>
                            ","","learn","2","2","2","learn","2","2","[0, 1, 2]","22","7","setsize","3S3A","sports","2","4","2","1",""
"null","null","fixation","html-keyboard-response","310","512778","0.0-1.0-9.0-3.0-0.23","18:34:15","3","","","","","","","fixation","","","","","","","","","","","","","","","","","","",""
"1477","1","pic_response","html-keyboard-response","311","514256","0.0-1.0-9.0-3.0-1.23","18:34:15","3","","","","","","","<div>
            <img class='stim' src=""pictures/sports/0.jpg""></div><div class=""button_prompt"">
                        <b>请用数字键1-3回答</b>
                        </div>","","","","","","","","","","","","","","","","","","",""
"1477","null","sub_response","html-keyboard-response","312","515258","0.0-1.0-9.0-3.0-2.23","18:34:15","3","","","","","","","<div style='text-align: center;'>
                            <span style=""color: green; font-size: 40px""><b>正确！+1 pts</b></span></div>
                            ","","learn","0","0","0","learn","0","0","[0, 1, 2]","23","7","setsize","3S3A","sports","2","5","0","1",""
"null","null","fixation","html-keyboard-response","313","515759","0.0-1.0-9.0-3.0-0.24","18:34:15","3","","","","","","","fixation","","","","","","","","","","","","","","","","","","",""
"null","null","pic_response","html-keyboard-response","314","518761","0.0-1.0-9.0-3.0-1.24","18:34:15","3","","","","","","","<div>
            <img class='stim' src=""pictures/sports/0.jpg""></div><div class=""button_prompt"">
                        <b>请用数字键1-3回答</b>
                        </div>","","","","","","","","","","","","","","","","","","",""
"null","null","sub_response","html-keyboard-response","315","519762","0.0-1.0-9.0-3.0-2.24","18:34:15","3","","","","","","","<div style='text-align: center;'>
                            <span style=""color: red; font-size: 40px""><b>错误！+0 pts</b></span></div>
                            ","","learn","0","0","0","learn","0","0","[0, 1, 2]","24","8","setsize","3S3A","sports","2","0","999","0",""
"null","null","fixation","html-keyboard-response","316","520265","0.0-1.0-9.0-3.0-0.25","18:34:15","3","","","","","","","fixation","","","","","","","","","","","","","","","","","","",""
"1351","3","pic_response","html-keyboard-response","317","521617","0.0-1.0-9.0-3.0-1.25","18:34:15","3","","","","","","","<div>
            <img class='stim' src=""pictures/sports/2.jpg""></div><div class=""button_prompt"">
                        <b>请用数字键1-3回答</b>
                        </div>","","","","","","","","","","","","","","","","","","",""
"1351","null","sub_response","html-keyboard-response","318","522628","0.0-1.0-9.0-3.0-2.25","18:34:15","3","","","","","","","<div style='text-align: center;'>
                            <span style=""color: green; font-size: 40px""><b>正确！+1 pts</b></span></div>
                            ","","learn","2","2","2","learn","2","2","[0, 1, 2]","25","8","setsize","3S3A","sports","2","1","2","1",""
"null","null","fixation","html-keyboard-response","319","523130","0.0-1.0-9.0-3.0-0.26","18:34:15","3","","","","","","","fixation","","","","","","","","","","","","","","","","","","",""
"533","1","pic_response","html-keyboard-response","320","523664","0.0-1.0-9.0-3.0-1.26","18:34:15","3","","","","","","","<div>
