"rt","response","screen_id","trial_type","trial_index","time_elapsed","internal_node_id","start_time","n_Prac","success","timeout","failed_images","failed_audio","failed_video","view_history","stimulus","question_order","stage","s","word","word_id","phase","a_cor","a_real","a_ava","trial","tps","task_type","block_typ","pic_typ","block_id","cum_r","a","r","plugin_name"
"88575","{""sub_id"":""69"",""task_type"":""task1"",""name"":""韦羡炀"",""gender"":""M""}","basic_info","survey-html-form","0","88579","0.0-0.0","13:10:30","2","","","","","","","","","","","","","","","","","","","","","","","","","",""
"","","","preload","1","90171","0.0-1.0-0.0","13:10:30","2","true","false","[]","[]","[]","","","","","","","","","","","","","","","","","","","","",""
"","","","preload","2","90465","0.0-1.0-1.0","13:10:30","2","true","false","[]","[]","[]","","","","","","","","","","","","","","","","","","","","",""
"","","","fullscreen","3","92512","0.0-1.0-2.0","13:10:30","2","true","","","","","","","","","","","","","","","","","","","","","","","","",""
"132560","","instruct","instructions","4","225072","0.0-1.0-3.0-0.0","13:10:30","2","","","","","","[{""page_index"":0,""viewing_time"":39925},{""page_index"":1,""viewing_time"":11427},{""page_index"":2,""viewing_time"":81207}]","","","","","","","","","","","","","","","","","","","",""
"26904","{""Q0"":"""",""task1"":""<span style='font-size: 24px'>学习图片和数字的对应关系</span>"",""task2"":""<span style='font-size: 24px'> 图片下方标注为可用的数字键（数字键1-3或0-9） </span>"",""task3"":""<span style='font-size: 24px'> 看到图片选出正确对应的数字 </span>""}","question","survey-multi-choice","5","251978","0.0-1.0-3.0-1.0","13:10:30","2","","","","","","","","[0,1,2,3]","","","","","","","","","","","","","","","","","",""
"6372"," ","inst_q","html-keyboard-response","6","258352","0.0-1.0-3.0-2.0","13:10:30","2","","","","","","","inst","","1","","","","","","","","","","","","","","","","",""
"","","","preload","7","258578","0.0-1.0-4.0-0.0","13:10:30","2","true","false","[]","[]","[]","","","","","","","","","","","","","","","","","","","","",""
"4151"," ","","html-keyboard-response","8","262730","0.0-1.0-4.0-1.0","13:10:30","2","","","","","","","<div style='font-size: 32px; text-align: center;'
                    <p>请学习图片和数字之间的对应关系</p>
                    <p>我们将<span style='color: blue'><b> 告诉 </b></span>您选择的对错。请根据反馈学习。</p>
                    <p>请按""空格""继续实验。</p></div>","","","","","","","","","","","","","","","","","","",""
"11629"," ","inst","html-keyboard-response","9","274359","0.0-1.0-4.0-2.0","13:10:30","2","","","","","","","<img class='instruct_stim' src=""instruction/prac3.PNG""></div>","","","","","","","","","","","","","","","","","","",""
"null","null","fixation","html-keyboard-response","10","274860","0.0-1.0-4.0-3.0-0.0","13:10:30","2","","","","","","","fixation","","","","","","","","","","","","","","","","","","",""
"1298","1","pic_response","html-keyboard-response","11","276159","0.0-1.0-4.0-3.0-1.0","13:10:30","2","","","","","","","<div>
            <img class='stim' src=""pictures/prac/1.jpg""></div><div class=""button_prompt"">
                        <b>请用数字键1-3回答</b>
                        </div>","","","","","","","","","","","","","","","","","","",""
"1298","null","sub_response","html-keyboard-response","12","277160","0.0-1.0-4.0-3.0-2.0","13:10:30","2","","","","","","","<div style='text-align: center;'>
                            <span style=""color: green; font-size: 40px""><b>正确！+1 pts</b></span></div>
                            ","","learn","1","1","1","learn","0","0","[0, 1, 2]","0","0","setsize","99","prac","0","1","0","1",""
"null","null","fixation","html-keyboard-response","13","277662","0.0-1.0-4.0-3.0-0.1","13:10:30","2","","","","","","","fixation","","","","","","","","","","","","","","","","","","",""
"658","2","pic_response","html-keyboard-response","14","278321","0.0-1.0-4.0-3.0-1.1","13:10:30","2","","","","","","","<div>
            <img class='stim' src=""pictures/prac/0.jpg""></div><div class=""button_prompt"">
                        <b>请用数字键1-3回答</b>
                        </div>","","","","","","","","","","","","","","","","","","",""
"658","null","sub_response","html-keyboard-response","15","279322","0.0-1.0-4.0-3.0-2.1","13:10:30","2","","","","","","","<div style='text-align: center;'>
                            <span style=""color: red; font-size: 40px""><b>错误！+0 pts</b></span></div>
                            ","","learn","0","0","0","learn","0","0","[0, 1, 2]","1","0","setsize","99","prac","0","0","1","0",""
"null","null","fixation","html-keyboard-response","16","279824","0.0-1.0-4.0-3.0-0.2","13:10:30","2","","","","","","","fixation","","","","","","","","","","","","","","","","","","",""
"614","3","pic_response","html-keyboard-response","17","280439","0.0-1.0-4.0-3.0-1.2","13:10:30","2","","","","","","","<div>
            <img class='stim' src=""pictures/prac/2.jpg""></div><div class=""button_prompt"">
                        <b>请用数字键1-3回答</b>
                        </div>","","","","","","","","","","","","","","","","","","",""
"614","null","sub_response","html-keyboard-response","18","281441","0.0-1.0-4.0-3.0-2.2","13:10:30","2","","","","","","","<div style='text-align: center;'>
                            <span style=""color: green; font-size: 40px""><b>正确！+1 pts</b></span></div>
                            ","","learn","2","2","2","learn","2","2","[0, 1, 2]","2","0","setsize","99","prac","0","1","2","1",""
"null","null","fixation","html-keyboard-response","19","281943","0.0-1.0-4.0-3.0-0.3","13:10:30","2","","","","","","","fixation","","","","","","","","","","","","","","","","","","",""
"1040","3","pic_response","html-keyboard-response","20","282983","0.0-1.0-4.0-3.0-1.3","13:10:30","2","","","","","","","<div>
            <img class='stim' src=""pictures/prac/0.jpg""></div><div class=""button_prompt"">
                        <b>请用数字键1-3回答</b>
                        </div>","","","","","","","","","","","","","","","","","","",""
"1040","null","sub_response","html-keyboard-response","21","283985","0.0-1.0-4.0-3.0-2.3","13:10:30","2","","","","","","","<div style='text-align: center;'>
                            <span style=""color: red; font-size: 40px""><b>错误！+0 pts</b></span></div>
                            ","","learn","0","0","0","learn","0","0","[0, 1, 2]","3","1","setsize","99","prac","0","0","2","0",""
"null","null","fixation","html-keyboard-response","22","284486","0.0-1.0-4.0-3.0-0.4","13:10:30","2","","","","","","","fixation","","","","","","","","","","","","","","","","","","",""
"863","1","pic_response","html-keyboard-response","23","285350","0.0-1.0-4.0-3.0-1.4","13:10:30","2","","","","","","","<div>
            <img class='stim' src=""pictures/prac/1.jpg""></div><div class=""button_prompt"">
                        <b>请用数字键1-3回答</b>
                        </div>","","","","","","","","","","","","","","","","","","",""
"863","null","sub_response","html-keyboard-response","24","286351","0.0-1.0-4.0-3.0-2.4","13:10:30","2","","","","","","","<div style='text-align: center;'>
                            <span style=""color: green; font-size: 40px""><b>正确！+1 pts</b></span></div>
                            ","","learn","1","1","1","learn","0","0","[0, 1, 2]","4","1","setsize","99","prac","0","1","0","1",""
"null","null","fixation","html-keyboard-response","25","286853","0.0-1.0-4.0-3.0-0.5","13:10:30","2","","","","","","","fixation","","","","","","","","","","","","","","","","","","",""
"1073","3","pic_response","html-keyboard-response","26","287927","0.0-1.0-4.0-3.0-1.5","13:10:30","2","","","","","","","<div>
            <img class='stim' src=""pictures/prac/2.jpg""></div><div class=""button_prompt"">
                        <b>请用数字键1-3回答</b>
                        </div>","","","","","","","","","","","","","","","","","","",""
"1073","null","sub_response","html-keyboard-response","27","288928","0.0-1.0-4.0-3.0-2.5","13:10:30","2","","","","","","","<div style='text-align: center;'>
                            <span style=""color: green; font-size: 40px""><b>正确！+1 pts</b></span></div>
                            ","","learn","2","2","2","learn","2","2","[0, 1, 2]","5","1","setsize","99","prac","0","2","2","1",""
"","","","preload","28","288930","0.0-1.0-4.1-0.1","13:10:30","2","true","false","[]","[]","[]","","","","","","","","","","","","","","","","","","","","",""
"12382"," ","","html-keyboard-response","29","301312","0.0-1.0-4.1-1.1","13:10:30","2","","","","","","","<div style='font-size: 32px; text-align: center;'
                    <p>请学习图片和数字之间的对应关系</p>
                    <p>我们将<span style='color: blue'><b> 告诉 </b></span>您选择的对错。请根据反馈学习。</p>
                    <p>请按""空格""继续实验。</p></div>","","","","","","","","","","","","","","","","","","",""
"5609"," ","inst","html-keyboard-response","30","306922","0.0-1.0-4.1-2.1","13:10:30","2","","","","","","","<img class='instruct_stim' src=""instruction/prac3.PNG""></div>","","","","","","","","","","","","","","","","","","",""
"null","null","fixation","html-keyboard-response","31","307424","0.0-1.0-4.1-3.1-0.6","13:10:30","2","","","","","","","fixation","","","","","","","","","","","","","","","","","","",""
"950","1","pic_response","html-keyboard-response","32","308375","0.0-1.0-4.1-3.1-1.6","13:10:30","2","","","","","","","<div>
            <img class='stim' src=""pictures/prac/1.jpg""></div><div class=""button_prompt"">
                        <b>请用数字键1-3回答</b>
                        </div>","","","","","","","","","","","","","","","","","","",""
"950","null","sub_response","html-keyboard-response","33","309377","0.0-1.0-4.1-3.1-2.6","13:10:30","2","","","","","","","<div style='text-align: center;'>
                            <span style=""color: green; font-size: 40px""><b>正确！+1 pts</b></span></div>
                            ","","learn","1","1","1","learn","0","0","[0, 1, 2]","0","0","setsize","99","prac","0","3","0","1",""
"null","null","fixation","html-keyboard-response","34","309879","0.0-1.0-4.1-3.1-0.7","13:10:30","2","","","","","","","fixation","","","","","","","","","","","","","","","","","","",""
"655","1","pic_response","html-keyboard-response","35","310535","0.0-1.0-4.1-3.1-1.7","13:10:30","2","","","","","","","<div>
            <img class='stim' src=""pictures/prac/0.jpg""></div><div class=""button_prompt"">
                        <b>请用数字键1-3回答</b>
                        </div>","","","","","","","","","","","","","","","","","","",""
"655","null","sub_response","html-keyboard-response","36","311537","0.0-1.0-4.1-3.1-2.7","13:10:30","2","","","","","","","<div style='text-align: center;'>
                            <span style=""color: green; font-size: 40px""><b>正确！+1 pts</b></span></div>
                            ","","learn","0","0","0","learn","0","0","[0, 1, 2]","1","0","setsize","99","prac","0","4","0","1",""
"null","null","fixation","html-keyboard-response","37","312038","0.0-1.0-4.1-3.1-0.8","13:10:30","2","","","","","","","fixation","","","","","","","","","","","","","","","","","","",""
"657","3","pic_response","html-keyboard-response","38","312695","0.0-1.0-4.1-3.1-1.8","13:10:30","2","","","","","","","<div>
            <img class='stim' src=""pictures/prac/2.jpg""></div><div class=""button_prompt"">
                        <b>请用数字键1-3回答</b>
                        </div>","","","","","","","","","","","","","","","","","","",""
"657","null","sub_response","html-keyboard-response","39","313697","0.0-1.0-4.1-3.1-2.8","13:10:30","2","","","","","","","<div style='text-align: center;'>
                            <span style=""color: green; font-size: 40px""><b>正确！+1 pts</b></span></div>
                            ","","learn","2","2","2","learn","2","2","[0, 1, 2]","2","0","setsize","99","prac","0","5","2","1",""
"null","null","fixation","html-keyboard-response","40","314198","0.0-1.0-4.1-3.1-0.9","13:10:30","2","","","","","","","fixation","","","","","","","","","","","","","","","","","","",""
"608","1","pic_response","html-keyboard-response","41","314807","0.0-1.0-4.1-3.1-1.9","13:10:30","2","","","","","","","<div>
            <img class='stim' src=""pictures/prac/0.jpg""></div><div class=""button_prompt"">
                        <b>请用数字键1-3回答</b>
                        </div>","","","","","","","","","","","","","","","","","","",""
"608","null","sub_response","html-keyboard-response","42","315808","0.0-1.0-4.1-3.1-2.9","13:10:30","2","","","","","","","<div style='text-align: center;'>
                            <span style=""color: green; font-size: 40px""><b>正确！+1 pts</b></span></div>
                            ","","learn","0","0","0","learn","0","0","[0, 1, 2]","3","1","setsize","99","prac","0","6","0","1",""
"null","null","fixation","html-keyboard-response","43","316310","0.0-1.0-4.1-3.1-0.10","13:10:30","2","","","","","","","fixation","","","","","","","","","","","","","","","","","","",""
"865","1","pic_response","html-keyboard-response","44","317176","0.0-1.0-4.1-3.1-1.10","13:10:30","2","","","","","","","<div>
            <img class='stim' src=""pictures/prac/1.jpg""></div><div class=""button_prompt"">
                        <b>请用数字键1-3回答</b>
                        </div>","","","","","","","","","","","","","","","","","","",""
"865","null","sub_response","html-keyboard-response","45","318177","0.0-1.0-4.1-3.1-2.10","13:10:30","2","","","","","","","<div style='text-align: center;'>
                            <span style=""color: green; font-size: 40px""><b>正确！+1 pts</b></span></div>
                            ","","learn","1","1","1","learn","0","0","[0, 1, 2]","4","1","setsize","99","prac","0","7","0","1",""
"null","null","fixation","html-keyboard-response","46","318679","0.0-1.0-4.1-3.1-0.11","13:10:30","2","","","","","","","fixation","","","","","","","","","","","","","","","","","","",""
"697","3","pic_response","html-keyboard-response","47","319377","0.0-1.0-4.1-3.1-1.11","13:10:30","2","","","","","","","<div>
            <img class='stim' src=""pictures/prac/2.jpg""></div><div class=""button_prompt"">
                        <b>请用数字键1-3回答</b>
                        </div>","","","","","","","","","","","","","","","","","","",""
"697","null","sub_response","html-keyboard-response","48","320378","0.0-1.0-4.1-3.1-2.11","13:10:30","2","","","","","","","<div style='text-align: center;'>
                            <span style=""color: green; font-size: 40px""><b>正确！+1 pts</b></span></div>
                            ","","learn","2","2","2","learn","2","2","[0, 1, 2]","5","1","setsize","99","prac","0","8","2","1",""
"null","null","","html-keyboard-response","49","380379","0.0-1.0-5.0","13:10:30","2","","","","","","","<div style=""font-size: 25px""><p>距下一个实验开始还有</p><div style=""font-size: 50px; color: blue""><p><span id=""clock"">1:00</span></div></p><p>按""空格""跳过休息</p></div>","","","","","","","","","","","","","","","","","","",""
"15596"," ","","html-keyboard-response","50","395975","0.0-1.0-6.0","13:10:30","2","","","","","","","<div style='font-size: 32px; text-align: center;'
                    <p>请按""空格""继续正式实验。</p></div>","","","","","","","","","","","","","","","","","","",""
"","","","preload","51","396246","0.0-1.0-7.0-0.0","13:10:30","2","true","false","[]","[]","[]","","","","","","","","","","","","","","","","","","","","",""
"12249"," ","","html-keyboard-response","52","408496","0.0-1.0-7.0-1.0","13:10:30","2","","","","","","","<div style='font-size: 32px; text-align: center;'
                    <p>请学习图片和数字之间的对应关系</p>
                    <p>我们将<span style='color: blue'><b> 告诉 </b></span>您选择的对错。请根据反馈学习。</p>
                    <p>请按""空格""继续实验。</p></div>","","","","","","","","","","","","","","","","","","",""
"32200"," ","inst","html-keyboard-response","53","440696","0.0-1.0-7.0-2.0","13:10:30","2","","","","","","","<img class='instruct_stim' src=""instruction/sports10.PNG""></div>","","","","","","","","","","","","","","","","","","",""
"null","null","fixation","html-keyboard-response","54","441197","0.0-1.0-7.0-3.0-0.0","13:10:30","2","","","","","","","fixation","","","","","","","","","","","","","","","","","","",""
"null","null","pic_response","html-keyboard-response","55","444198","0.0-1.0-7.0-3.0-1.0","13:10:30","2","","","","","","","<div>
            <img class='stim' src=""pictures/sports/5.jpg""></div><div class=""button_prompt"">
                        <b>请用数字键1-3回答</b>
                        </div>","","","","","","","","","","","","","","","","","","",""
"null","null","sub_response","html-keyboard-response","56","445200","0.0-1.0-7.0-3.0-2.0","13:10:30","2","","","","","","","<div style='text-align: center;'>
                            <span style=""color: red; font-size: 40px""><b>错误！+0 pts</b></span></div>
                            ","","learn","5","5","5","learn","1","1","[0, 1, 2]","0","0","setsize","10S3A","sports","1","0","999","0",""
"null","null","fixation","html-keyboard-response","57","445701","0.0-1.0-7.0-3.0-0.1","13:10:30","2","","","","","","","fixation","","","","","","","","","","","","","","","","","","",""
"1634","1","pic_response","html-keyboard-response","58","447336","0.0-1.0-7.0-3.0-1.1","13:10:30","2","","","","","","","<div>
            <img class='stim' src=""pictures/sports/0.jpg""></div><div class=""button_prompt"">
                        <b>请用数字键1-3回答</b>
                        </div>","","","","","","","","","","","","","","","","","","",""
"1634","null","sub_response","html-keyboard-response","59","448337","0.0-1.0-7.0-3.0-2.1","13:10:30","2","","","","","","","<div style='text-align: center;'>
                            <span style=""color: green; font-size: 40px""><b>正确！+1 pts</b></span></div>
                            ","","learn","0","0","0","learn","0","0","[0, 1, 2]","1","0","setsize","10S3A","sports","1","1","0","1",""
"null","null","fixation","html-keyboard-response","60","448839","0.0-1.0-7.0-3.0-0.2","13:10:30","2","","","","","","","fixation","","","","","","","","","","","","","","","","","","",""
"895","1","pic_response","html-keyboard-response","61","449735","0.0-1.0-7.0-3.0-1.2","13:10:30","2","","","","","","","<div>
            <img class='stim' src=""pictures/sports/2.jpg""></div><div class=""button_prompt"">
                        <b>请用数字键1-3回答</b>
                        </div>","","","","","","","","","","","","","","","","","","",""
"895","null","sub_response","html-keyboard-response","62","450736","0.0-1.0-7.0-3.0-2.2","13:10:30","2","","","","","","","<div style='text-align: center;'>
                            <span style=""color: green; font-size: 40px""><b>正确！+1 pts</b></span></div>
                            ","","learn","2","2","2","learn","0","0","[0, 1, 2]","2","0","setsize","10S3A","sports","1","2","0","1",""
"null","null","fixation","html-keyboard-response","63","451238","0.0-1.0-7.0-3.0-0.3","13:10:30","2","","","","","","","fixation","","","","","","","","","","","","","","","","","","",""
"2529","2","pic_response","html-keyboard-response","64","453767","0.0-1.0-7.0-3.0-1.3","13:10:30","2","","","","","","","<div>
            <img class='stim' src=""pictures/sports/6.jpg""></div><div class=""button_prompt"">
                        <b>请用数字键1-3回答</b>
                        </div>","","","","","","","","","","","","","","","","","","",""
"2529","null","sub_response","html-keyboard-response","65","454769","0.0-1.0-7.0-3.0-2.3","13:10:30","2","","","","","","","<div style='text-align: center;'>
                            <span style=""color: red; font-size: 40px""><b>错误！+0 pts</b></span></div>
                            ","","learn","6","6","6","learn","2","2","[0, 1, 2]","3","0","setsize","10S3A","sports","1","0","1","0",""
"null","null","fixation","html-keyboard-response","66","455271","0.0-1.0-7.0-3.0-0.4","13:10:30","2","","","","","","","fixation","","","","","","","","","","","","","","","","","","",""
"null","null","pic_response","html-keyboard-response","67","458273","0.0-1.0-7.0-3.0-1.4","13:10:30","2","","","","","","","<div>
            <img class='stim' src=""pictures/sports/3.jpg""></div><div class=""button_prompt"">
                        <b>请用数字键1-3回答</b>
                        </div>","","","","","","","","","","","","","","","","","","",""
"null","null","sub_response","html-keyboard-response","68","459274","0.0-1.0-7.0-3.0-2.4","13:10:30","2","","","","","","","<div style='text-align: center;'>
                            <span style=""color: red; font-size: 40px""><b>错误！+0 pts</b></span></div>
                            ","","learn","3","3","3","learn","1","1","[0, 1, 2]","4","0","setsize","10S3A","sports","1","0","999","0",""
"null","null","fixation","html-keyboard-response","69","459776","0.0-1.0-7.0-3.0-0.5","13:10:30","2","","","","","","","fixation","","","","","","","","","","","","","","","","","","",""
"2039","2","pic_response","html-keyboard-response","70","461815","0.0-1.0-7.0-3.0-1.5","13:10:30","2","","","","","","","<div>
            <img class='stim' src=""pictures/sports/8.jpg""></div><div class=""button_prompt"">
                        <b>请用数字键1-3回答</b>
                        </div>","","","","","","","","","","","","","","","","","","",""
"2039","null","sub_response","html-keyboard-response","71","462816","0.0-1.0-7.0-3.0-2.5","13:10:30","2","","","","","","","<div style='text-align: center;'>
                            <span style=""color: red; font-size: 40px""><b>错误！+0 pts</b></span></div>
                            ","","learn","8","8","8","learn","2","2","[0, 1, 2]","5","0","setsize","10S3A","sports","1","0","1","0",""
"null","null","fixation","html-keyboard-response","72","463318","0.0-1.0-7.0-3.0-0.6","13:10:30","2","","","","","","","fixation","","","","","","","","","","","","","","","","","","",""
"1936","2","pic_response","html-keyboard-response","73","465256","0.0-1.0-7.0-3.0-1.6","13:10:30","2","","","","","","","<div>
            <img class='stim' src=""pictures/sports/7.jpg""></div><div class=""button_prompt"">
                        <b>请用数字键1-3回答</b>
                        </div>","","","","","","","","","","","","","","","","","","",""
"1936","null","sub_response","html-keyboard-response","74","466256","0.0-1.0-7.0-3.0-2.6","13:10:30","2","","","","","","","<div style='text-align: center;'>
                            <span style=""color: red; font-size: 40px""><b>错误！+0 pts</b></span></div>
                            ","","learn","7","7","7","learn","2","2","[0, 1, 2]","6","0","setsize","10S3A","sports","1","0","1","0",""
"null","null","fixation","html-keyboard-response","75","466757","0.0-1.0-7.0-3.0-0.7","13:10:30","2","","","","","","","fixation","","","","","","","","","","","","","","","","","","",""
"697","2","pic_response","html-keyboard-response","76","467455","0.0-1.0-7.0-3.0-1.7","13:10:30","2","","","","","","","<div>
            <img class='stim' src=""pictures/sports/1.jpg""></div><div class=""button_prompt"">
                        <b>请用数字键1-3回答</b>
                        </div>","","","","","","","","","","","","","","","","","","",""
"697","null","sub_response","html-keyboard-response","77","468456","0.0-1.0-7.0-3.0-2.7","13:10:30","2","","","","","","","<div style='text-align: center;'>
                            <span style=""color: red; font-size: 40px""><b>错误！+0 pts</b></span></div>
                            ","","learn","1","1","1","learn","0","0","[0, 1, 2]","7","0","setsize","10S3A","sports","1","0","1","0",""
"null","null","fixation","html-keyboard-response","78","468957","0.0-1.0-7.0-3.0-0.8","13:10:30","2","","","","","","","fixation","","","","","","","","","","","","","","","","","","",""
"1089","1","pic_response","html-keyboard-response","79","470047","0.0-1.0-7.0-3.0-1.8","13:10:30","2","","","","","","","<div>
            <img class='stim' src=""pictures/sports/9.jpg""></div><div class=""button_prompt"">
                        <b>请用数字键1-3回答</b>
                        </div>","","","","","","","","","","","","","","","","","","",""
"1089","null","sub_response","html-keyboard-response","80","471049","0.0-1.0-7.0-3.0-2.8","13:10:30","2","","","","","","","<div style='text-align: center;'>
                            <span style=""color: red; font-size: 40px""><b>错误！+0 pts</b></span></div>
                            ","","learn","9","9","9","learn","2","2","[0, 1, 2]","8","0","setsize","10S3A","sports","1","0","0","0",""
"null","null","fixation","html-keyboard-response","81","471550","0.0-1.0-7.0-3.0-0.9","13:10:30","2","","","","","","","fixation","","","","","","","","","","","","","","","","","","",""
"449","3","pic_response","html-keyboard-response","82","472000","0.0-1.0-7.0-3.0-1.9","13:10:30","2","","","","","","","<div>
            <img class='stim' src=""pictures/sports/4.jpg""></div><div class=""button_prompt"">
                        <b>请用数字键1-3回答</b>
                        </div>","","","","","","","","","","","","","","","","","","",""
"449","null","sub_response","html-keyboard-response","83","473002","0.0-1.0-7.0-3.0-2.9","13:10:30","2","","","","","","","<div style='text-align: center;'>
                            <span style=""color: red; font-size: 40px""><b>错误！+0 pts</b></span></div>
                            ","","learn","4","4","4","learn","1","1","[0, 1, 2]","9","0","setsize","10S3A","sports","1","0","2","0",""
"null","null","fixation","html-keyboard-response","84","473503","0.0-1.0-7.0-3.0-0.10","13:10:30","2","","","","","","","fixation","","","","","","","","","","","","","","","","","","",""
"951","2","pic_response","html-keyboard-response","85","474455","0.0-1.0-7.0-3.0-1.10","13:10:30","2","","","","","","","<div>
            <img class='stim' src=""pictures/sports/0.jpg""></div><div class=""button_prompt"">
                        <b>请用数字键1-3回答</b>
                        </div>","","","","","","","","","","","","","","","","","","",""
"951","null","sub_response","html-keyboard-response","86","475456","0.0-1.0-7.0-3.0-2.10","13:10:30","2","","","","","","","<div style='text-align: center;'>
                            <span style=""color: red; font-size: 40px""><b>错误！+0 pts</b></span></div>
                            ","","learn","0","0","0","learn","0","0","[0, 1, 2]","10","1","setsize","10S3A","sports","1","0","1","0",""
"null","null","fixation","html-keyboard-response","87","475957","0.0-1.0-7.0-3.0-0.11","13:10:30","2","","","","","","","fixation","","","","","","","","","","","","","","","","","","",""
"619","3","pic_response","html-keyboard-response","88","476577","0.0-1.0-7.0-3.0-1.11","13:10:30","2","","","","","","","<div>
            <img class='stim' src=""pictures/sports/8.jpg""></div><div class=""button_prompt"">
                        <b>请用数字键1-3回答</b>
                        </div>","","","","","","","","","","","","","","","","","","",""
"619","null","sub_response","html-keyboard-response","89","477578","0.0-1.0-7.0-3.0-2.11","13:10:30","2","","","","","","","<div style='text-align: center;'>
                            <span style=""color: green; font-size: 40px""><b>正确！+1 pts</b></span></div>
                            ","","learn","8","8","8","learn","2","2","[0, 1, 2]","11","1","setsize","10S3A","sports","1","1","2","1",""
"null","null","fixation","html-keyboard-response","90","478086","0.0-1.0-7.0-3.0-0.12","13:10:30","2","","","","","","","fixation","","","","","","","","","","","","","","","","","","",""
"769","2","pic_response","html-keyboard-response","91","478856","0.0-1.0-7.0-3.0-1.12","13:10:30","2","","","","","","","<div>
            <img class='stim' src=""pictures/sports/2.jpg""></div><div class=""button_prompt"">
                        <b>请用数字键1-3回答</b>
                        </div>","","","","","","","","","","","","","","","","","","",""
"769","null","sub_response","html-keyboard-response","92","479856","0.0-1.0-7.0-3.0-2.12","13:10:30","2","","","","","","","<div style='text-align: center;'>
                            <span style=""color: red; font-size: 40px""><b>错误！+0 pts</b></span></div>
                            ","","learn","2","2","2","learn","0","0","[0, 1, 2]","12","1","setsize","10S3A","sports","1","0","1","0",""
"null","null","fixation","html-keyboard-response","93","480358","0.0-1.0-7.0-3.0-0.13","13:10:30","2","","","","","","","fixation","","","","","","","","","","","","","","","","","","",""
"1121","1","pic_response","html-keyboard-response","94","481480","0.0-1.0-7.0-3.0-1.13","13:10:30","2","","","","","","","<div>
            <img class='stim' src=""pictures/sports/3.jpg""></div><div class=""button_prompt"">
                        <b>请用数字键1-3回答</b>
                        </div>","","","","","","","","","","","","","","","","","","",""
"1121","null","sub_response","html-keyboard-response","95","482481","0.0-1.0-7.0-3.0-2.13","13:10:30","2","","","","","","","<div style='text-align: center;'>
                            <span style=""color: red; font-size: 40px""><b>错误！+0 pts</b></span></div>
                            ","","learn","3","3","3","learn","1","1","[0, 1, 2]","13","1","setsize","10S3A","sports","1","0","0","0",""
"null","null","fixation","html-keyboard-response","96","482982","0.0-1.0-7.0-3.0-0.14","13:10:30","2","","","","","","","fixation","","","","","","","","","","","","","","","","","","",""
"959","2","pic_response","html-keyboard-response","97","483942","0.0-1.0-7.0-3.0-1.14","13:10:30","2","","","","","","","<div>
            <img class='stim' src=""pictures/sports/5.jpg""></div><div class=""button_prompt"">
                        <b>请用数字键1-3回答</b>
                        </div>","","","","","","","","","","","","","","","","","","",""
"959","null","sub_response","html-keyboard-response","98","484943","0.0-1.0-7.0-3.0-2.14","13:10:30","2","","","","","","","<div style='text-align: center;'>
                            <span style=""color: green; font-size: 40px""><b>正确！+1 pts</b></span></div>
                            ","","learn","5","5","5","learn","1","1","[0, 1, 2]","14","1","setsize","10S3A","sports","1","1","1","1",""
"null","null","fixation","html-keyboard-response","99","485444","0.0-1.0-7.0-3.0-0.15","13:10:30","2","","","","","","","fixation","","","","","","","","","","","","","","","","","","",""
"1825","2","pic_response","html-keyboard-response","100","487270","0.0-1.0-7.0-3.0-1.15","13:10:30","2","","","","","","","<div>
            <img class='stim' src=""pictures/sports/4.jpg""></div><div class=""button_prompt"">
                        <b>请用数字键1-3回答</b>
                        </div>","","","","","","","","","","","","","","","","","","",""
"1825","null","sub_response","html-keyboard-response","101","488271","0.0-1.0-7.0-3.0-2.15","13:10:30","2","","","","","","","<div style='text-align: center;'>
                            <span style=""color: green; font-size: 40px""><b>正确！+1 pts</b></span></div>
                            ","","learn","4","4","4","learn","1","1","[0, 1, 2]","15","1","setsize","10S3A","sports","1","2","1","1",""
"null","null","fixation","html-keyboard-response","102","488772","0.0-1.0-7.0-3.0-0.16","13:10:30","2","","","","","","","fixation","","","","","","","","","","","","","","","","","","",""
"947","3","pic_response","html-keyboard-response","103","489719","0.0-1.0-7.0-3.0-1.16","13:10:30","2","","","","","","","<div>
            <img class='stim' src=""pictures/sports/7.jpg""></div><div class=""button_prompt"">
                        <b>请用数字键1-3回答</b>
                        </div>","","","","","","","","","","","","","","","","","","",""
"947","null","sub_response","html-keyboard-response","104","490721","0.0-1.0-7.0-3.0-2.16","13:10:30","2","","","","","","","<div style='text-align: center;'>
                            <span style=""color: green; font-size: 40px""><b>正确！+1 pts</b></span></div>
                            ","","learn","7","7","7","learn","2","2","[0, 1, 2]","16","1","setsize","10S3A","sports","1","3","2","1",""
"null","null","fixation","html-keyboard-response","105","491222","0.0-1.0-7.0-3.0-0.17","13:10:30","2","","","","","","","fixation","","","","","","","","","","","","","","","","","","",""
"513","2","pic_response","html-keyboard-response","106","491735","0.0-1.0-7.0-3.0-1.17","13:10:30","2","","","","","","","<div>
            <img class='stim' src=""pictures/sports/9.jpg""></div><div class=""button_prompt"">
                        <b>请用数字键1-3回答</b>
                        </div>","","","","","","","","","","","","","","","","","","",""
"513","null","sub_response","html-keyboard-response","107","492737","0.0-1.0-7.0-3.0-2.17","13:10:30","2","","","","","","","<div style='text-align: center;'>
                            <span style=""color: red; font-size: 40px""><b>错误！+0 pts</b></span></div>
                            ","","learn","9","9","9","learn","2","2","[0, 1, 2]","17","1","setsize","10S3A","sports","1","0","1","0",""
"null","null","fixation","html-keyboard-response","108","493239","0.0-1.0-7.0-3.0-0.18","13:10:30","2","","","","","","","fixation","","","","","","","","","","","","","","","","","","",""
"1056","1","pic_response","html-keyboard-response","109","494296","0.0-1.0-7.0-3.0-1.18","13:10:30","2","","","","","","","<div>
            <img class='stim' src=""pictures/sports/1.jpg""></div><div class=""button_prompt"">
                        <b>请用数字键1-3回答</b>
                        </div>","","","","","","","","","","","","","","","","","","",""
"1056","null","sub_response","html-keyboard-response","110","495298","0.0-1.0-7.0-3.0-2.18","13:10:30","2","","","","","","","<div style='text-align: center;'>
                            <span style=""color: green; font-size: 40px""><b>正确！+1 pts</b></span></div>
                            ","","learn","1","1","1","learn","0","0","[0, 1, 2]","18","1","setsize","10S3A","sports","1","1","0","1",""
"null","null","fixation","html-keyboard-response","111","495799","0.0-1.0-7.0-3.0-0.19","13:10:30","2","","","","","","","fixation","","","","","","","","","","","","","","","","","","",""
"632","3","pic_response","html-keyboard-response","112","496431","0.0-1.0-7.0-3.0-1.19","13:10:30","2","","","","","","","<div>
            <img class='stim' src=""pictures/sports/6.jpg""></div><div class=""button_prompt"">
                        <b>请用数字键1-3回答</b>
                        </div>","","","","","","","","","","","","","","","","","","",""
"632","null","sub_response","html-keyboard-response","113","497432","0.0-1.0-7.0-3.0-2.19","13:10:30","2","","","","","","","<div style='text-align: center;'>
                            <span style=""color: green; font-size: 40px""><b>正确！+1 pts</b></span></div>
                            ","","learn","6","6","6","learn","2","2","[0, 1, 2]","19","1","setsize","10S3A","sports","1","2","2","1",""
"null","null","fixation","html-keyboard-response","114","497933","0.0-1.0-7.0-3.0-0.20","13:10:30","2","","","","","","","fixation","","","","","","","","","","","","","","","","","","",""
"242","2","pic_response","html-keyboard-response","115","498176","0.0-1.0-7.0-3.0-1.20","13:10:30","2","","","","","","","<div>
            <img class='stim' src=""pictures/sports/6.jpg""></div><div class=""button_prompt"">
                        <b>请用数字键1-3回答</b>
                        </div>","","","","","","","","","","","","","","","","","","",""
"242","null","sub_response","html-keyboard-response","116","499177","0.0-1.0-7.0-3.0-2.20","13:10:30","2","","","","","","","<div style='text-align: center;'>
                            <span style=""color: red; font-size: 40px""><b>错误！+0 pts</b></span></div>
                            ","","learn","6","6","6","learn","2","2","[0, 1, 2]","20","2","setsize","10S3A","sports","1","0","1","0",""
"null","null","fixation","html-keyboard-response","117","499678","0.0-1.0-7.0-3.0-0.21","13:10:30","2","","","","","","","fixation","","","","","","","","","","","","","","","","","","",""
"617","1","pic_response","html-keyboard-response","118","500296","0.0-1.0-7.0-3.0-1.21","13:10:30","2","","","","","","","<div>
            <img class='stim' src=""pictures/sports/0.jpg""></div><div class=""button_prompt"">
                        <b>请用数字键1-3回答</b>
                        </div>","","","","","","","","","","","","","","","","","","",""
"617","null","sub_response","html-keyboard-response","119","501297","0.0-1.0-7.0-3.0-2.21","13:10:30","2","","","","","","","<div style='text-align: center;'>
                            <span style=""color: green; font-size: 40px""><b>正确！+1 pts</b></span></div>
                            ","","learn","0","0","0","learn","0","0","[0, 1, 2]","21","2","setsize","10S3A","sports","1","1","0","1",""
"null","null","fixation","html-keyboard-response","120","501798","0.0-1.0-7.0-3.0-0.22","13:10:30","2","","","","","","","fixation","","","","","","","","","","","","","","","","","","",""
"1129","2","pic_response","html-keyboard-response","121","502928","0.0-1.0-7.0-3.0-1.22","13:10:30","2","","","","","","","<div>
            <img class='stim' src=""pictures/sports/3.jpg""></div><div class=""button_prompt"">
                        <b>请用数字键1-3回答</b>
                        </div>","","","","","","","","","","","","","","","","","","",""
"1129","null","sub_response","html-keyboard-response","122","503928","0.0-1.0-7.0-3.0-2.22","13:10:30","2","","","","","","","<div style='text-align: center;'>
                            <span style=""color: green; font-size: 40px""><b>正确！+1 pts</b></span></div>
                            ","","learn","3","3","3","learn","1","1","[0, 1, 2]","22","2","setsize","10S3A","sports","1","2","1","1",""
"null","null","fixation","html-keyboard-response","123","504429","0.0-1.0-7.0-3.0-0.23","13:10:30","2","","","","","","","fixation","","","","","","","","","","","","","","","","","","",""
"463","3","pic_response","html-keyboard-response","124","504893","0.0-1.0-7.0-3.0-1.23","13:10:30","2","","","","","","","<div>
            <img class='stim' src=""pictures/sports/1.jpg""></div><div class=""button_prompt"">
                        <b>请用数字键1-3回答</b>
                        </div>","","","","","","","","","","","","","","","","","","",""
"463","null","sub_response","html-keyboard-response","125","505894","0.0-1.0-7.0-3.0-2.23","13:10:30","2","","","","","","","<div style='text-align: center;'>
                            <span style=""color: red; font-size: 40px""><b>错误！+0 pts</b></span></div>
                            ","","learn","1","1","1","learn","0","0","[0, 1, 2]","23","2","setsize","10S3A","sports","1","0","2","0",""
"null","null","fixation","html-keyboard-response","126","506395","0.0-1.0-7.0-3.0-0.24","13:10:30","2","","","","","","","fixation","","","","","","","","","","","","","","","","","","",""
"914","1","pic_response","html-keyboard-response","127","507310","0.0-1.0-7.0-3.0-1.24","13:10:30","2","","","","","","","<div>
            <img class='stim' src=""pictures/sports/4.jpg""></div><div class=""button_prompt"">
                        <b>请用数字键1-3回答</b>
                        </div>","","","","","","","","","","","","","","","","","","",""
"914","null","sub_response","html-keyboard-response","128","508312","0.0-1.0-7.0-3.0-2.24","13:10:30","2","","","","","","","<div style='text-align: center;'>
                            <span style=""color: red; font-size: 40px""><b>错误！+0 pts</b></span></div>
                            ","","learn","4","4","4","learn","1","1","[0, 1, 2]","24","2","setsize","10S3A","sports","1","0","0","0",""
"null","null","fixation","html-keyboard-response","129","508813","0.0-1.0-7.0-3.0-0.25","13:10:30","2","","","","","","","fixation","","","","","","","","","","","","","","","","","","",""
"281","2","pic_response","html-keyboard-response","130","509095","0.0-1.0-7.0-3.0-1.25","13:10:30","2","","","","","","","<div>
            <img class='stim' src=""pictures/sports/8.jpg""></div><div class=""button_prompt"">
                        <b>请用数字键1-3回答</b>
                        </div>","","","","","","","","","","","","","","","","","","",""
"281","null","sub_response","html-keyboard-response","131","510096","0.0-1.0-7.0-3.0-2.25","13:10:30","2","","","","","","","<div style='text-align: center;'>
                            <span style=""color: red; font-size: 40px""><b>错误！+0 pts</b></span></div>
                            ","","learn","8","8","8","learn","2","2","[0, 1, 2]","25","2","setsize","10S3A","sports","1","0","1","0",""
"null","null","fixation","html-keyboard-response","132","510612","0.0-1.0-7.0-3.0-0.26","13:10:30","2","","","","","","","fixation","","","","","","","","","","","","","","","","","","",""
"563","2","pic_response","html-keyboard-response","133","511176","0.0-1.0-7.0-3.0-1.26","13:10:30","2","","","","","","","<div>
            <img class='stim' src=""pictures/sports/5.jpg""></div><div class=""button_prompt"">
                        <b>请用数字键1-3回答</b>
                        </div>","","","","","","","","","","","","","","","","","","",""
"563","null","sub_response","html-keyboard-response","134","512177","0.0-1.0-7.0-3.0-2.26","13:10:30","2","","","","","","","<div style='text-align: center;'>
                            <span style=""color: green; font-size: 40px""><b>正确！+1 pts</b></span></div>
                            ","","learn","5","5","5","learn","1","1","[0, 1, 2]","26","2","setsize","10S3A","sports","1","1","1","1",""
"null","null","fixation","html-keyboard-response","135","512678","0.0-1.0-7.0-3.0-0.27","13:10:30","2","","","","","","","fixation","","","","","","","","","","","","","","","","","","",""
"1058","1","pic_response","html-keyboard-response","136","513736","0.0-1.0-7.0-3.0-1.27","13:10:30","2","","","","","","","<div>
            <img class='stim' src=""pictures/sports/2.jpg""></div><div class=""button_prompt"">
                        <b>请用数字键1-3回答</b>
                        </div>","","","","","","","","","","","","","","","","","","",""
"1058","null","sub_response","html-keyboard-response","137","514750","0.0-1.0-7.0-3.0-2.27","13:10:30","2","","","","","","","<div style='text-align: center;'>
                            <span style=""color: green; font-size: 40px""><b>正确！+1 pts</b></span></div>
                            ","","learn","2","2","2","learn","0","0","[0, 1, 2]","27","2","setsize","10S3A","sports","1","2","0","1",""
"null","null","fixation","html-keyboard-response","138","515250","0.0-1.0-7.0-3.0-0.28","13:10:30","2","","","","","","","fixation","","","","","","","","","","","","","","","","","","",""
"1678","3","pic_response","html-keyboard-response","139","516929","0.0-1.0-7.0-3.0-1.28","13:10:30","2","","","","","","","<div>
            <img class='stim' src=""pictures/sports/9.jpg""></div><div class=""button_prompt"">
                        <b>请用数字键1-3回答</b>
                        </div>","","","","","","","","","","","","","","","","","","",""
"1678","null","sub_response","html-keyboard-response","140","517931","0.0-1.0-7.0-3.0-2.28","13:10:30","2","","","","","","","<div style='text-align: center;'>
                            <span style=""color: green; font-size: 40px""><b>正确！+1 pts</b></span></div>
                            ","","learn","9","9","9","learn","2","2","[0, 1, 2]","28","2","setsize","10S3A","sports","1","3","2","1",""
"null","null","fixation","html-keyboard-response","141","518432","0.0-1.0-7.0-3.0-0.29","13:10:30","2","","","","","","","fixation","","","","","","","","","","","","","","","","","","",""
"847","3","pic_response","html-keyboard-response","142","519280","0.0-1.0-7.0-3.0-1.29","13:10:30","2","","","","","","","<div>
            <img class='stim' src=""pictures/sports/7.jpg""></div><div class=""button_prompt"">
                        <b>请用数字键1-3回答</b>
                        </div>","","","","","","","","","","","","","","","","","","",""
"847","null","sub_response","html-keyboard-response","143","520280","0.0-1.0-7.0-3.0-2.29","13:10:30","2","","","","","","","<div style='text-align: center;'>
                            <span style=""color: green; font-size: 40px""><b>正确！+1 pts</b></span></div>
                            ","","learn","7","7","7","learn","2","2","[0, 1, 2]","29","2","setsize","10S3A","sports","1","4","2","1",""
"null","null","fixation","html-keyboard-response","144","520781","0.0-1.0-7.0-3.0-0.30","13:10:30","2","","","","","","","fixation","","","","","","","","","","","","","","","","","","",""
"963","1","pic_response","html-keyboard-response","145","521746","0.0-1.0-7.0-3.0-1.30","13:10:30","2","","","","","","","<div>
            <img class='stim' src=""pictures/sports/3.jpg""></div><div class=""button_prompt"">
                        <b>请用数字键1-3回答</b>
                        </div>","","","","","","","","","","","","","","","","","","",""
"963","null","sub_response","html-keyboard-response","146","522747","0.0-1.0-7.0-3.0-2.30","13:10:30","2","","","","","","","<div style='text-align: center;'>
                            <span style=""color: red; font-size: 40px""><b>错误！+0 pts</b></span></div>
                            ","","learn","3","3","3","learn","1","1","[0, 1, 2]","30","3","setsize","10S3A","sports","1","0","0","0",""
"null","null","fixation","html-keyboard-response","147","523249","0.0-1.0-7.0-3.0-0.31","13:10:30","2","","","","","","","fixation","","","","","","","","","","","","","","","","","","",""
"734","2","pic_response","html-keyboard-response","148","523983","0.0-1.0-7.0-3.0-1.31","13:10:30","2","","","","","","","<div>
            <img class='stim' src=""pictures/sports/6.jpg""></div><div class=""button_prompt"">
                        <b>请用数字键1-3回答</b>
                        </div>","","","","","","","","","","","","","","","","","","",""
"734","null","sub_response","html-keyboard-response","149","524985","0.0-1.0-7.0-3.0-2.31","13:10:30","2","","","","","","","<div style='text-align: center;'>
                            <span style=""color: red; font-size: 40px""><b>错误！+0 pts</b></span></div>
                            ","","learn","6","6","6","learn","2","2","[0, 1, 2]","31","3","setsize","10S3A","sports","1","0","1","0",""
"null","null","fixation","html-keyboard-response","150","525488","0.0-1.0-7.0-3.0-0.32","13:10:30","2","","","","","","","fixation","","","","","","","","","","","","","","","","","","",""
"982","1","pic_response","html-keyboard-response","151","526471","0.0-1.0-7.0-3.0-1.32","13:10:30","2","","","","","","","<div>
            <img class='stim' src=""pictures/sports/0.jpg""></div><div class=""button_prompt"">
                        <b>请用数字键1-3回答</b>
                        </div>","","","","","","","","","","","","","","","","","","",""
"982","null","sub_response","html-keyboard-response","152","527472","0.0-1.0-7.0-3.0-2.32","13:10:30","2","","","","","","","<div style='text-align: center;'>
                            <span style=""color: green; font-size: 40px""><b>正确！+1 pts</b></span></div>
                            ","","learn","0","0","0","learn","0","0","[0, 1, 2]","32","3","setsize","10S3A","sports","1","1","0","1",""
"null","null","fixation","html-keyboard-response","153","527974","0.0-1.0-7.0-3.0-0.33","13:10:30","2","","","","","","","fixation","","","","","","","","","","","","","","","","","","",""
"721","1","pic_response","html-keyboard-response","154","528696","0.0-1.0-7.0-3.0-1.33","13:10:30","2","","","","","","","<div>
            <img class='stim' src=""pictures/sports/2.jpg""></div><div class=""button_prompt"">
                        <b>请用数字键1-3回答</b>
                        </div>","","","","","","","","","","","","","","","","","","",""
"721","null","sub_response","html-keyboard-response","155","529698","0.0-1.0-7.0-3.0-2.33","13:10:30","2","","","","","","","<div style='text-align: center;'>
                            <span style=""color: green; font-size: 40px""><b>正确！+1 pts</b></span></div>
                            ","","learn","2","2","2","learn","0","0","[0, 1, 2]","33","3","setsize","10S3A","sports","1","2","0","1",""
"null","null","fixation","html-keyboard-response","156","530200","0.0-1.0-7.0-3.0-0.34","13:10:30","2","","","","","","","fixation","","","","","","","","","","","","","","","","","","",""
"816","3","pic_response","html-keyboard-response","157","531017","0.0-1.0-7.0-3.0-1.34","13:10:30","2","","","","","","","<div>
            <img class='stim' src=""pictures/sports/9.jpg""></div><div class=""button_prompt"">
                        <b>请用数字键1-3回答</b>
                        </div>","","","","","","","","","","","","","","","","","","",""
"816","null","sub_response","html-keyboard-response","158","532018","0.0-1.0-7.0-3.0-2.34","13:10:30","2","","","","","","","<div style='text-align: center;'>
                            <span style=""color: green; font-size: 40px""><b>正确！+1 pts</b></span></div>
                            ","","learn","9","9","9","learn","2","2","[0, 1, 2]","34","3","setsize","10S3A","sports","1","3","2","1",""
"null","null","fixation","html-keyboard-response","159","532519","0.0-1.0-7.0-3.0-0.35","13:10:30","2","","","","","","","fixation","","","","","","","","","","","","","","","","","","",""
"624","1","pic_response","html-keyboard-response","160","533144","0.0-1.0-7.0-3.0-1.35","13:10:30","2","","","","","","","<div>
            <img class='stim' src=""pictures/sports/1.jpg""></div><div class=""button_prompt"">
                        <b>请用数字键1-3回答</b>
                        </div>","","","","","","","","","","","","","","","","","","",""
"624","null","sub_response","html-keyboard-response","161","534145","0.0-1.0-7.0-3.0-2.35","13:10:30","2","","","","","","","<div style='text-align: center;'>
                            <span style=""color: green; font-size: 40px""><b>正确！+1 pts</b></span></div>
                            ","","learn","1","1","1","learn","0","0","[0, 1, 2]","35","3","setsize","10S3A","sports","1","4","0","1",""
"null","null","fixation","html-keyboard-response","162","534646","0.0-1.0-7.0-3.0-0.36","13:10:30","2","","","","","","","fixation","","","","","","","","","","","","","","","","","","",""
"721","3","pic_response","html-keyboard-response","163","535367","0.0-1.0-7.0-3.0-1.36","13:10:30","2","","","","","","","<div>
            <img class='stim' src=""pictures/sports/7.jpg""></div><div class=""button_prompt"">
                        <b>请用数字键1-3回答</b>
                        </div>","","","","","","","","","","","","","","","","","","",""
"721","null","sub_response","html-keyboard-response","164","536369","0.0-1.0-7.0-3.0-2.36","13:10:30","2","","","","","","","<div style='text-align: center;'>
                            <span style=""color: green; font-size: 40px""><b>正确！+1 pts</b></span></div>
                            ","","learn","7","7","7","learn","2","2","[0, 1, 2]","36","3","setsize","10S3A","sports","1","5","2","1",""
"null","null","fixation","html-keyboard-response","165","536870","0.0-1.0-7.0-3.0-0.37","13:10:30","2","","","","","","","fixation","","","","","","","","","","","","","","","","","","",""
"968","2","pic_response","html-keyboard-response","166","537838","0.0-1.0-7.0-3.0-1.37","13:10:30","2","","","","","","","<div>
            <img class='stim' src=""pictures/sports/4.jpg""></div><div class=""button_prompt"">
                        <b>请用数字键1-3回答</b>
                        </div>","","","","","","","","","","","","","","","","","","",""
"968","null","sub_response","html-keyboard-response","167","538839","0.0-1.0-7.0-3.0-2.37","13:10:30","2","","","","","","","<div style='text-align: center;'>
                            <span style=""color: green; font-size: 40px""><b>正确！+1 pts</b></span></div>
                            ","","learn","4","4","4","learn","1","1","[0, 1, 2]","37","3","setsize","10S3A","sports","1","6","1","1",""
"null","null","fixation","html-keyboard-response","168","539341","0.0-1.0-7.0-3.0-0.38","13:10:30","2","","","","","","","fixation","","","","","","","","","","","","","","","","","","",""
"930","2","pic_response","html-keyboard-response","169","540271","0.0-1.0-7.0-3.0-1.38","13:10:30","2","","","","","","","<div>
            <img class='stim' src=""pictures/sports/5.jpg""></div><div class=""button_prompt"">
                        <b>请用数字键1-3回答</b>
                        </div>","","","","","","","","","","","","","","","","","","",""
"930","null","sub_response","html-keyboard-response","170","541273","0.0-1.0-7.0-3.0-2.38","13:10:30","2","","","","","","","<div style='text-align: center;'>
                            <span style=""color: green; font-size: 40px""><b>正确！+1 pts</b></span></div>
                            ","","learn","5","5","5","learn","1","1","[0, 1, 2]","38","3","setsize","10S3A","sports","1","7","1","1",""
"null","null","fixation","html-keyboard-response","171","541775","0.0-1.0-7.0-3.0-0.39","13:10:30","2","","","","","","","fixation","","","","","","","","","","","","","","","","","","",""
"1474","1","pic_response","html-keyboard-response","172","543249","0.0-1.0-7.0-3.0-1.39","13:10:30","2","","","","","","","<div>
            <img class='stim' src=""pictures/sports/8.jpg""></div><div class=""button_prompt"">
                        <b>请用数字键1-3回答</b>
                        </div>","","","","","","","","","","","","","","","","","","",""
"1474","null","sub_response","html-keyboard-response","173","544250","0.0-1.0-7.0-3.0-2.39","13:10:30","2","","","","","","","<div style='text-align: center;'>
                            <span style=""color: red; font-size: 40px""><b>错误！+0 pts</b></span></div>
                            ","","learn","8","8","8","learn","2","2","[0, 1, 2]","39","3","setsize","10S3A","sports","1","0","0","0",""
"null","null","fixation","html-keyboard-response","174","544765","0.0-1.0-7.0-3.0-0.40","13:10:30","2","","","","","","","fixation","","","","","","","","","","","","","","","","","","",""
"1450","3","pic_response","html-keyboard-response","175","546216","0.0-1.0-7.0-3.0-1.40","13:10:30","2","","","","","","","<div>
            <img class='stim' src=""pictures/sports/2.jpg""></div><div class=""button_prompt"">
                        <b>请用数字键1-3回答</b>
                        </div>","","","","","","","","","","","","","","","","","","",""
"1450","null","sub_response","html-keyboard-response","176","547218","0.0-1.0-7.0-3.0-2.40","13:10:30","2","","","","","","","<div style='text-align: center;'>
                            <span style=""color: red; font-size: 40px""><b>错误！+0 pts</b></span></div>
                            ","","learn","2","2","2","learn","0","0","[0, 1, 2]","40","4","setsize","10S3A","sports","1","0","2","0",""
"null","null","fixation","html-keyboard-response","177","547731","0.0-1.0-7.0-3.0-0.41","13:10:30","2","","","","","","","fixation","","","","","","","","","","","","","","","","","","",""
"1343","2","pic_response","html-keyboard-response","178","549074","0.0-1.0-7.0-3.0-1.41","13:10:30","2","","","","","","","<div>
            <img class='stim' src=""pictures/sports/3.jpg""></div><div class=""button_prompt"">
                        <b>请用数字键1-3回答</b>
                        </div>","","","","","","","","","","","","","","","","","","",""
"1343","null","sub_response","html-keyboard-response","179","550075","0.0-1.0-7.0-3.0-2.41","13:10:30","2","","","","","","","<div style='text-align: center;'>
                            <span style=""color: green; font-size: 40px""><b>正确！+1 pts</b></span></div>
                            ","","learn","3","3","3","learn","1","1","[0, 1, 2]","41","4","setsize","10S3A","sports","1","1","1","1",""
"null","null","fixation","html-keyboard-response","180","550577","0.0-1.0-7.0-3.0-0.42","13:10:30","2","","","","","","","fixation","","","","","","","","","","","","","","","","","","",""
"1069","2","pic_response","html-keyboard-response","181","551647","0.0-1.0-7.0-3.0-1.42","13:10:30","2","","","","","","","<div>
            <img class='stim' src=""pictures/sports/4.jpg""></div><div class=""button_prompt"">
                        <b>请用数字键1-3回答</b>
                        </div>","","","","","","","","","","","","","","","","","","",""
"1069","null","sub_response","html-keyboard-response","182","552648","0.0-1.0-7.0-3.0-2.42","13:10:30","2","","","","","","","<div style='text-align: center;'>
                            <span style=""color: green; font-size: 40px""><b>正确！+1 pts</b></span></div>
                            ","","learn","4","4","4","learn","1","1","[0, 1, 2]","42","4","setsize","10S3A","sports","1","2","1","1",""
"null","null","fixation","html-keyboard-response","183","553149","0.0-1.0-7.0-3.0-0.43","13:10:30","2","","","","","","","fixation","","","","","","","","","","","","","","","","","","",""
"545","3","pic_response","html-keyboard-response","184","553695","0.0-1.0-7.0-3.0-1.43","13:10:30","2","","","","","","","<div>
            <img class='stim' src=""pictures/sports/9.jpg""></div><div class=""button_prompt"">
                        <b>请用数字键1-3回答</b>
                        </div>","","","","","","","","","","","","","","","","","","",""
"545","null","sub_response","html-keyboard-response","185","554696","0.0-1.0-7.0-3.0-2.43","13:10:30","2","","","","","","","<div style='text-align: center;'>
                            <span style=""color: green; font-size: 40px""><b>正确！+1 pts</b></span></div>
                            ","","learn","9","9","9","learn","2","2","[0, 1, 2]","43","4","setsize","10S3A","sports","1","3","2","1",""
"null","null","fixation","html-keyboard-response","186","555198","0.0-1.0-7.0-3.0-0.44","13:10:30","2","","","","","","","fixation","","","","","","","","","","","","","","","","","","",""
"929","1","pic_response","html-keyboard-response","187","556127","0.0-1.0-7.0-3.0-1.44","13:10:30","2","","","","","","","<div>
            <img class='stim' src=""pictures/sports/0.jpg""></div><div class=""button_prompt"">
                        <b>请用数字键1-3回答</b>
                        </div>","","","","","","","","","","","","","","","","","","",""
"929","null","sub_response","html-keyboard-response","188","557128","0.0-1.0-7.0-3.0-2.44","13:10:30","2","","","","","","","<div style='text-align: center;'>
                            <span style=""color: green; font-size: 40px""><b>正确！+1 pts</b></span></div>
                            ","","learn","0","0","0","learn","0","0","[0, 1, 2]","44","4","setsize","10S3A","sports","1","4","0","1",""
"null","null","fixation","html-keyboard-response","189","557630","0.0-1.0-7.0-3.0-0.45","13:10:30","2","","","","","","","fixation","","","","","","","","","","","","","","","","","","",""
"1145","3","pic_response","html-keyboard-response","190","558776","0.0-1.0-7.0-3.0-1.45","13:10:30","2","","","","","","","<div>
            <img class='stim' src=""pictures/sports/8.jpg""></div><div class=""button_prompt"">
                        <b>请用数字键1-3回答</b>
                        </div>","","","","","","","","","","","","","","","","","","",""
"1145","null","sub_response","html-keyboard-response","191","559777","0.0-1.0-7.0-3.0-2.45","13:10:30","2","","","","","","","<div style='text-align: center;'>
                            <span style=""color: green; font-size: 40px""><b>正确！+1 pts</b></span></div>
                            ","","learn","8","8","8","learn","2","2","[0, 1, 2]","45","4","setsize","10S3A","sports","1","5","2","1",""
"null","null","fixation","html-keyboard-response","192","560278","0.0-1.0-7.0-3.0-0.46","13:10:30","2","","","","","","","fixation","","","","","","","","","","","","","","","","","","",""
"307","2","pic_response","html-keyboard-response","193","560585","0.0-1.0-7.0-3.0-1.46","13:10:30","2","","","","","","","<div>
            <img class='stim' src=""pictures/sports/5.jpg""></div><div class=""button_prompt"">
                        <b>请用数字键1-3回答</b>
                        </div>","","","","","","","","","","","","","","","","","","",""
"307","null","sub_response","html-keyboard-response","194","561588","0.0-1.0-7.0-3.0-2.46","13:10:30","2","","","","","","","<div style='text-align: center;'>
                            <span style=""color: green; font-size: 40px""><b>正确！+1 pts</b></span></div>
                            ","","learn","5","5","5","learn","1","1","[0, 1, 2]","46","4","setsize","10S3A","sports","1","6","1","1",""
"null","null","fixation","html-keyboard-response","195","562089","0.0-1.0-7.0-3.0-0.47","13:10:30","2","","","","","","","fixation","","","","","","","","","","","","","","","","","","",""
"558","1","pic_response","html-keyboard-response","196","562647","0.0-1.0-7.0-3.0-1.47","13:10:30","2","","","","","","","<div>
            <img class='stim' src=""pictures/sports/1.jpg""></div><div class=""button_prompt"">
                        <b>请用数字键1-3回答</b>
                        </div>","","","","","","","","","","","","","","","","","","",""
"558","null","sub_response","html-keyboard-response","197","563649","0.0-1.0-7.0-3.0-2.47","13:10:30","2","","","","","","","<div style='text-align: center;'>
                            <span style=""color: green; font-size: 40px""><b>正确！+1 pts</b></span></div>
                            ","","learn","1","1","1","learn","0","0","[0, 1, 2]","47","4","setsize","10S3A","sports","1","7","0","1",""
"null","null","fixation","html-keyboard-response","198","564150","0.0-1.0-7.0-3.0-0.48","13:10:30","2","","","","","","","fixation","","","","","","","","","","","","","","","","","","",""
"null","null","pic_response","html-keyboard-response","199","567151","0.0-1.0-7.0-3.0-1.48","13:10:30","2","","","","","","","<div>
            <img class='stim' src=""pictures/sports/6.jpg""></div><div class=""button_prompt"">
                        <b>请用数字键1-3回答</b>
                        </div>","","","","","","","","","","","","","","","","","","",""
"null","null","sub_response","html-keyboard-response","200","568152","0.0-1.0-7.0-3.0-2.48","13:10:30","2","","","","","","","<div style='text-align: center;'>
                            <span style=""color: red; font-size: 40px""><b>错误！+0 pts</b></span></div>
                            ","","learn","6","6","6","learn","2","2","[0, 1, 2]","48","4","setsize","10S3A","sports","1","0","999","0",""
"null","null","fixation","html-keyboard-response","201","568653","0.0-1.0-7.0-3.0-0.49","13:10:30","2","","","","","","","fixation","","","","","","","","","","","","","","","","","","",""
"2425","2","pic_response","html-keyboard-response","202","571079","0.0-1.0-7.0-3.0-1.49","13:10:30","2","","","","","","","<div>
            <img class='stim' src=""pictures/sports/7.jpg""></div><div class=""button_prompt"">
                        <b>请用数字键1-3回答</b>
                        </div>","","","","","","","","","","","","","","","","","","",""
"2425","null","sub_response","html-keyboard-response","203","572080","0.0-1.0-7.0-3.0-2.49","13:10:30","2","","","","","","","<div style='text-align: center;'>
                            <span style=""color: red; font-size: 40px""><b>错误！+0 pts</b></span></div>
                            ","","learn","7","7","7","learn","2","2","[0, 1, 2]","49","4","setsize","10S3A","sports","1","0","1","0",""
"null","null","fixation","html-keyboard-response","204","572582","0.0-1.0-7.0-3.0-0.50","13:10:30","2","","","","","","","fixation","","","","","","","","","","","","","","","","","","",""
"1025","3","pic_response","html-keyboard-response","205","573607","0.0-1.0-7.0-3.0-1.50","13:10:30","2","","","","","","","<div>
            <img class='stim' src=""pictures/sports/9.jpg""></div><div class=""button_prompt"">
                        <b>请用数字键1-3回答</b>
                        </div>","","","","","","","","","","","","","","","","","","",""
"1025","null","sub_response","html-keyboard-response","206","574609","0.0-1.0-7.0-3.0-2.50","13:10:30","2","","","","","","","<div style='text-align: center;'>
                            <span style=""color: green; font-size: 40px""><b>正确！+1 pts</b></span></div>
                            ","","learn","9","9","9","learn","2","2","[0, 1, 2]","50","5","setsize","10S3A","sports","1","1","2","1",""
"null","null","fixation","html-keyboard-response","207","575110","0.0-1.0-7.0-3.0-0.51","13:10:30","2","","","","","","","fixation","","","","","","","","","","","","","","","","","","",""
"491","2","pic_response","html-keyboard-response","208","575602","0.0-1.0-7.0-3.0-1.51","13:10:30","2","","","","","","","<div>
            <img class='stim' src=""pictures/sports/7.jpg""></div><div class=""button_prompt"">
                        <b>请用数字键1-3回答</b>
                        </div>","","","","","","","","","","","","","","","","","","",""
"491","null","sub_response","html-keyboard-response","209","576602","0.0-1.0-7.0-3.0-2.51","13:10:30","2","","","","","","","<div style='text-align: center;'>
                            <span style=""color: red; font-size: 40px""><b>错误！+0 pts</b></span></div>
                            ","","learn","7","7","7","learn","2","2","[0, 1, 2]","51","5","setsize","10S3A","sports","1","0","1","0",""
"null","null","fixation","html-keyboard-response","210","577103","0.0-1.0-7.0-3.0-0.52","13:10:30","2","","","","","","","fixation","","","","","","","","","","","","","","","","","","",""
"888","1","pic_response","html-keyboard-response","211","577992","0.0-1.0-7.0-3.0-1.52","13:10:30","2","","","","","","","<div>
            <img class='stim' src=""pictures/sports/5.jpg""></div><div class=""button_prompt"">
                        <b>请用数字键1-3回答</b>
                        </div>","","","","","","","","","","","","","","","","","","",""
"888","null","sub_response","html-keyboard-response","212","578992","0.0-1.0-7.0-3.0-2.52","13:10:30","2","","","","","","","<div style='text-align: center;'>
                            <span style=""color: red; font-size: 40px""><b>错误！+0 pts</b></span></div>
                            ","","learn","5","5","5","learn","1","1","[0, 1, 2]","52","5","setsize","10S3A","sports","1","0","0","0",""
"null","null","fixation","html-keyboard-response","213","579494","0.0-1.0-7.0-3.0-0.53","13:10:30","2","","","","","","","fixation","","","","","","","","","","","","","","","","","","",""
"1202","3","pic_response","html-keyboard-response","214","580696","0.0-1.0-7.0-3.0-1.53","13:10:30","2","","","","","","","<div>
            <img class='stim' src=""pictures/sports/8.jpg""></div><div class=""button_prompt"">
                        <b>请用数字键1-3回答</b>
                        </div>","","","","","","","","","","","","","","","","","","",""
"1202","null","sub_response","html-keyboard-response","215","581698","0.0-1.0-7.0-3.0-2.53","13:10:30","2","","","","","","","<div style='text-align: center;'>
                            <span style=""color: green; font-size: 40px""><b>正确！+1 pts</b></span></div>
                            ","","learn","8","8","8","learn","2","2","[0, 1, 2]","53","5","setsize","10S3A","sports","1","1","2","1",""
"null","null","fixation","html-keyboard-response","216","582199","0.0-1.0-7.0-3.0-0.54","13:10:30","2","","","","","","","fixation","","","","","","","","","","","","","","","","","","",""
"1434","1","pic_response","html-keyboard-response","217","583634","0.0-1.0-7.0-3.0-1.54","13:10:30","2","","","","","","","<div>
            <img class='stim' src=""pictures/sports/1.jpg""></div><div class=""button_prompt"">
                        <b>请用数字键1-3回答</b>
                        </div>","","","","","","","","","","","","","","","","","","",""
"1434","null","sub_response","html-keyboard-response","218","584635","0.0-1.0-7.0-3.0-2.54","13:10:30","2","","","","","","","<div style='text-align: center;'>
                            <span style=""color: green; font-size: 40px""><b>正确！+1 pts</b></span></div>
                            ","","learn","1","1","1","learn","0","0","[0, 1, 2]","54","5","setsize","10S3A","sports","1","2","0","1",""
"null","null","fixation","html-keyboard-response","219","585137","0.0-1.0-7.0-3.0-0.55","13:10:30","2","","","","","","","fixation","","","","","","","","","","","","","","","","","","",""
"749","3","pic_response","html-keyboard-response","220","585886","0.0-1.0-7.0-3.0-1.55","13:10:30","2","","","","","","","<div>
            <img class='stim' src=""pictures/sports/6.jpg""></div><div class=""button_prompt"">
                        <b>请用数字键1-3回答</b>
                        </div>","","","","","","","","","","","","","","","","","","",""
"749","null","sub_response","html-keyboard-response","221","586887","0.0-1.0-7.0-3.0-2.55","13:10:30","2","","","","","","","<div style='text-align: center;'>
                            <span style=""color: green; font-size: 40px""><b>正确！+1 pts</b></span></div>
                            ","","learn","6","6","6","learn","2","2","[0, 1, 2]","55","5","setsize","10S3A","sports","1","3","2","1",""
"null","null","fixation","html-keyboard-response","222","587389","0.0-1.0-7.0-3.0-0.56","13:10:30","2","","","","","","","fixation","","","","","","","","","","","","","","","","","","",""
"1035","1","pic_response","html-keyboard-response","223","588425","0.0-1.0-7.0-3.0-1.56","13:10:30","2","","","","","","","<div>
            <img class='stim' src=""pictures/sports/0.jpg""></div><div class=""button_prompt"">
                        <b>请用数字键1-3回答</b>
                        </div>","","","","","","","","","","","","","","","","","","",""
"1035","null","sub_response","html-keyboard-response","224","589427","0.0-1.0-7.0-3.0-2.56","13:10:30","2","","","","","","","<div style='text-align: center;'>
                            <span style=""color: green; font-size: 40px""><b>正确！+1 pts</b></span></div>
                            ","","learn","0","0","0","learn","0","0","[0, 1, 2]","56","5","setsize","10S3A","sports","1","4","0","1",""
"null","null","fixation","html-keyboard-response","225","589928","0.0-1.0-7.0-3.0-0.57","13:10:30","2","","","","","","","fixation","","","","","","","","","","","","","","","","","","",""
"2367","3","pic_response","html-keyboard-response","226","592296","0.0-1.0-7.0-3.0-1.57","13:10:30","2","","","","","","","<div>
            <img class='stim' src=""pictures/sports/4.jpg""></div><div class=""button_prompt"">
                        <b>请用数字键1-3回答</b>
                        </div>","","","","","","","","","","","","","","","","","","",""
"2367","null","sub_response","html-keyboard-response","227","593297","0.0-1.0-7.0-3.0-2.57","13:10:30","2","","","","","","","<div style='text-align: center;'>
                            <span style=""color: red; font-size: 40px""><b>错误！+0 pts</b></span></div>
                            ","","learn","4","4","4","learn","1","1","[0, 1, 2]","57","5","setsize","10S3A","sports","1","0","2","0",""
"null","null","fixation","html-keyboard-response","228","593798","0.0-1.0-7.0-3.0-0.58","13:10:30","2","","","","","","","fixation","","","","","","","","","","","","","","","","","","",""
"1687","2","pic_response","html-keyboard-response","229","595486","0.0-1.0-7.0-3.0-1.58","13:10:30","2","","","","","","","<div>
            <img class='stim' src=""pictures/sports/3.jpg""></div><div class=""button_prompt"">
                        <b>请用数字键1-3回答</b>
                        </div>","","","","","","","","","","","","","","","","","","",""
"1687","null","sub_response","html-keyboard-response","230","596487","0.0-1.0-7.0-3.0-2.58","13:10:30","2","","","","","","","<div style='text-align: center;'>
                            <span style=""color: green; font-size: 40px""><b>正确！+1 pts</b></span></div>
                            ","","learn","3","3","3","learn","1","1","[0, 1, 2]","58","5","setsize","10S3A","sports","1","1","1","1",""
"null","null","fixation","html-keyboard-response","231","596989","0.0-1.0-7.0-3.0-0.59","13:10:30","2","","","","","","","fixation","","","","","","","","","","","","","","","","","","",""
"481","1","pic_response","html-keyboard-response","232","597471","0.0-1.0-7.0-3.0-1.59","13:10:30","2","","","","","","","<div>
            <img class='stim' src=""pictures/sports/2.jpg""></div><div class=""button_prompt"">
                        <b>请用数字键1-3回答</b>
                        </div>","","","","","","","","","","","","","","","","","","",""
"481","null","sub_response","html-keyboard-response","233","598472","0.0-1.0-7.0-3.0-2.59","13:10:30","2","","","","","","","<div style='text-align: center;'>
                            <span style=""color: green; font-size: 40px""><b>正确！+1 pts</b></span></div>
                            ","","learn","2","2","2","learn","0","0","[0, 1, 2]","59","5","setsize","10S3A","sports","1","2","0","1",""
"null","null","fixation","html-keyboard-response","234","598974","0.0-1.0-7.0-3.0-0.60","13:10:30","2","","","","","","","fixation","","","","","","","","","","","","","","","","","","",""
"408","3","pic_response","html-keyboard-response","235","599382","0.0-1.0-7.0-3.0-1.60","13:10:30","2","","","","","","","<div>
            <img class='stim' src=""pictures/sports/1.jpg""></div><div class=""button_prompt"">
                        <b>请用数字键1-3回答</b>
                        </div>","","","","","","","","","","","","","","","","","","",""
"408","null","sub_response","html-keyboard-response","236","600384","0.0-1.0-7.0-3.0-2.60","13:10:30","2","","","","","","","<div style='text-align: center;'>
                            <span style=""color: red; font-size: 40px""><b>错误！+0 pts</b></span></div>
                            ","","learn","1","1","1","learn","0","0","[0, 1, 2]","60","6","setsize","10S3A","sports","1","0","2","0",""
"null","null","fixation","html-keyboard-response","237","600885","0.0-1.0-7.0-3.0-0.61","13:10:30","2","","","","","","","fixation","","","","","","","","","","","","","","","","","","",""
"228","2","pic_response","html-keyboard-response","238","601113","0.0-1.0-7.0-3.0-1.61","13:10:30","2","","","","","","","<div>
            <img class='stim' src=""pictures/sports/5.jpg""></div><div class=""button_prompt"">
                        <b>请用数字键1-3回答</b>
                        </div>","","","","","","","","","","","","","","","","","","",""
"228","null","sub_response","html-keyboard-response","239","602114","0.0-1.0-7.0-3.0-2.61","13:10:30","2","","","","","","","<div style='text-align: center;'>
                            <span style=""color: green; font-size: 40px""><b>正确！+1 pts</b></span></div>
                            ","","learn","5","5","5","learn","1","1","[0, 1, 2]","61","6","setsize","10S3A","sports","1","1","1","1",""
"null","null","fixation","html-keyboard-response","240","602615","0.0-1.0-7.0-3.0-0.62","13:10:30","2","","","","","","","fixation","","","","","","","","","","","","","","","","","","",""
"519","2","pic_response","html-keyboard-response","241","603135","0.0-1.0-7.0-3.0-1.62","13:10:30","2","","","","","","","<div>
            <img class='stim' src=""pictures/sports/2.jpg""></div><div class=""button_prompt"">
                        <b>请用数字键1-3回答</b>
                        </div>","","","","","","","","","","","","","","","","","","",""
"519","null","sub_response","html-keyboard-response","242","604136","0.0-1.0-7.0-3.0-2.62","13:10:30","2","","","","","","","<div style='text-align: center;'>
                            <span style=""color: red; font-size: 40px""><b>错误！+0 pts</b></span></div>
                            ","","learn","2","2","2","learn","0","0","[0, 1, 2]","62","6","setsize","10S3A","sports","1","0","1","0",""
"null","null","fixation","html-keyboard-response","243","604637","0.0-1.0-7.0-3.0-0.63","13:10:30","2","","","","","","","fixation","","","","","","","","","","","","","","","","","","",""
"828","3","pic_response","html-keyboard-response","244","605466","0.0-1.0-7.0-3.0-1.63","13:10:30","2","","","","","","","<div>
            <img class='stim' src=""pictures/sports/7.jpg""></div><div class=""button_prompt"">
                        <b>请用数字键1-3回答</b>
                        </div>","","","","","","","","","","","","","","","","","","",""
"828","null","sub_response","html-keyboard-response","245","606468","0.0-1.0-7.0-3.0-2.63","13:10:30","2","","","","","","","<div style='text-align: center;'>
                            <span style=""color: green; font-size: 40px""><b>正确！+1 pts</b></span></div>
                            ","","learn","7","7","7","learn","2","2","[0, 1, 2]","63","6","setsize","10S3A","sports","1","1","2","1",""
"null","null","fixation","html-keyboard-response","246","606970","0.0-1.0-7.0-3.0-0.64","13:10:30","2","","","","","","","fixation","","","","","","","","","","","","","","","","","","",""
"614","1","pic_response","html-keyboard-response","247","607585","0.0-1.0-7.0-3.0-1.64","13:10:30","2","","","","","","","<div>
            <img class='stim' src=""pictures/sports/0.jpg""></div><div class=""button_prompt"">
                        <b>请用数字键1-3回答</b>
                        </div>","","","","","","","","","","","","","","","","","","",""
"614","null","sub_response","html-keyboard-response","248","608586","0.0-1.0-7.0-3.0-2.64","13:10:30","2","","","","","","","<div style='text-align: center;'>
                            <span style=""color: green; font-size: 40px""><b>正确！+1 pts</b></span></div>
                            ","","learn","0","0","0","learn","0","0","[0, 1, 2]","64","6","setsize","10S3A","sports","1","2","0","1",""
"null","null","fixation","html-keyboard-response","249","609088","0.0-1.0-7.0-3.0-0.65","13:10:30","2","","","","","","","fixation","","","","","","","","","","","","","","","","","","",""
"766","3","pic_response","html-keyboard-response","250","609855","0.0-1.0-7.0-3.0-1.65","13:10:30","2","","","","","","","<div>
            <img class='stim' src=""pictures/sports/9.jpg""></div><div class=""button_prompt"">
                        <b>请用数字键1-3回答</b>
                        </div>","","","","","","","","","","","","","","","","","","",""
"766","null","sub_response","html-keyboard-response","251","610857","0.0-1.0-7.0-3.0-2.65","13:10:30","2","","","","","","","<div style='text-align: center;'>
                            <span style=""color: green; font-size: 40px""><b>正确！+1 pts</b></span></div>
                            ","","learn","9","9","9","learn","2","2","[0, 1, 2]","65","6","setsize","10S3A","sports","1","3","2","1",""
"null","null","fixation","html-keyboard-response","252","611358","0.0-1.0-7.0-3.0-0.66","13:10:30","2","","","","","","","fixation","","","","","","","","","","","","","","","","","","",""
"791","2","pic_response","html-keyboard-response","253","612150","0.0-1.0-7.0-3.0-1.66","13:10:30","2","","","","","","","<div>
            <img class='stim' src=""pictures/sports/4.jpg""></div><div class=""button_prompt"">
                        <b>请用数字键1-3回答</b>
                        </div>","","","","","","","","","","","","","","","","","","",""
"791","null","sub_response","html-keyboard-response","254","613152","0.0-1.0-7.0-3.0-2.66","13:10:30","2","","","","","","","<div style='text-align: center;'>
                            <span style=""color: green; font-size: 40px""><b>正确！+1 pts</b></span></div>
                            ","","learn","4","4","4","learn","1","1","[0, 1, 2]","66","6","setsize","10S3A","sports","1","4","1","1",""
"null","null","fixation","html-keyboard-response","255","613654","0.0-1.0-7.0-3.0-0.67","13:10:30","2","","","","","","","fixation","","","","","","","","","","","","","","","","","","",""
"544","2","pic_response","html-keyboard-response","256","614198","0.0-1.0-7.0-3.0-1.67","13:10:30","2","","","","","","","<div>
            <img class='stim' src=""pictures/sports/3.jpg""></div><div class=""button_prompt"">
                        <b>请用数字键1-3回答</b>
                        </div>","","","","","","","","","","","","","","","","","","",""
"544","null","sub_response","html-keyboard-response","257","615201","0.0-1.0-7.0-3.0-2.67","13:10:30","2","","","","","","","<div style='text-align: center;'>
                            <span style=""color: green; font-size: 40px""><b>正确！+1 pts</b></span></div>
                            ","","learn","3","3","3","learn","1","1","[0, 1, 2]","67","6","setsize","10S3A","sports","1","5","1","1",""
"null","null","fixation","html-keyboard-response","258","615702","0.0-1.0-7.0-3.0-0.68","13:10:30","2","","","","","","","fixation","","","","","","","","","","","","","","","","","","",""
"576","2","pic_response","html-keyboard-response","259","616278","0.0-1.0-7.0-3.0-1.68","13:10:30","2","","","","","","","<div>
            <img class='stim' src=""pictures/sports/8.jpg""></div><div class=""button_prompt"">
                        <b>请用数字键1-3回答</b>
                        </div>","","","","","","","","","","","","","","","","","","",""
"576","null","sub_response","html-keyboard-response","260","617279","0.0-1.0-7.0-3.0-2.68","13:10:30","2","","","","","","","<div style='text-align: center;'>
                            <span style=""color: red; font-size: 40px""><b>错误！+0 pts</b></span></div>
                            ","","learn","8","8","8","learn","2","2","[0, 1, 2]","68","6","setsize","10S3A","sports","1","0","1","0",""
"null","null","fixation","html-keyboard-response","261","617781","0.0-1.0-7.0-3.0-0.69","13:10:30","2","","","","","","","fixation","","","","","","","","","","","","","","","","","","",""
"1577","3","pic_response","html-keyboard-response","262","619358","0.0-1.0-7.0-3.0-1.69","13:10:30","2","","","","","","","<div>
            <img class='stim' src=""pictures/sports/6.jpg""></div><div class=""button_prompt"">
                        <b>请用数字键1-3回答</b>
                        </div>","","","","","","","","","","","","","","","","","","",""
"1577","null","sub_response","html-keyboard-response","263","620359","0.0-1.0-7.0-3.0-2.69","13:10:30","2","","","","","","","<div style='text-align: center;'>
                            <span style=""color: green; font-size: 40px""><b>正确！+1 pts</b></span></div>
                            ","","learn","6","6","6","learn","2","2","[0, 1, 2]","69","6","setsize","10S3A","sports","1","1","2","1",""
"null","null","fixation","html-keyboard-response","264","620861","0.0-1.0-7.0-3.0-0.70","13:10:30","2","","","","","","","fixation","","","","","","","","","","","","","","","","","","",""
"514","3","pic_response","html-keyboard-response","265","621376","0.0-1.0-7.0-3.0-1.70","13:10:30","2","","","","","","","<div>
            <img class='stim' src=""pictures/sports/7.jpg""></div><div class=""button_prompt"">
                        <b>请用数字键1-3回答</b>
                        </div>","","","","","","","","","","","","","","","","","","",""
"514","null","sub_response","html-keyboard-response","266","622377","0.0-1.0-7.0-3.0-2.70","13:10:30","2","","","","","","","<div style='text-align: center;'>
                            <span style=""color: green; font-size: 40px""><b>正确！+1 pts</b></span></div>
                            ","","learn","7","7","7","learn","2","2","[0, 1, 2]","70","7","setsize","10S3A","sports","1","2","2","1",""
"null","null","fixation","html-keyboard-response","267","622878","0.0-1.0-7.0-3.0-0.71","13:10:30","2","","","","","","","fixation","","","","","","","","","","","","","","","","","","",""
"698","1","pic_response","html-keyboard-response","268","623577","0.0-1.0-7.0-3.0-1.71","13:10:30","2","","","","","","","<div>
            <img class='stim' src=""pictures/sports/2.jpg""></div><div class=""button_prompt"">
                        <b>请用数字键1-3回答</b>
                        </div>","","","","","","","","","","","","","","","","","","",""
"698","null","sub_response","html-keyboard-response","269","624579","0.0-1.0-7.0-3.0-2.71","13:10:30","2","","","","","","","<div style='text-align: center;'>
                            <span style=""color: green; font-size: 40px""><b>正确！+1 pts</b></span></div>
                            ","","learn","2","2","2","learn","0","0","[0, 1, 2]","71","7","setsize","10S3A","sports","1","3","0","1",""
"null","null","fixation","html-keyboard-response","270","625081","0.0-1.0-7.0-3.0-0.72","13:10:30","2","","","","","","","fixation","","","","","","","","","","","","","","","","","","",""
"509","2","pic_response","html-keyboard-response","271","625591","0.0-1.0-7.0-3.0-1.72","13:10:30","2","","","","","","","<div>
            <img class='stim' src=""pictures/sports/5.jpg""></div><div class=""button_prompt"">
                        <b>请用数字键1-3回答</b>
                        </div>","","","","","","","","","","","","","","","","","","",""
"509","null","sub_response","html-keyboard-response","272","626592","0.0-1.0-7.0-3.0-2.72","13:10:30","2","","","","","","","<div style='text-align: center;'>
                            <span style=""color: green; font-size: 40px""><b>正确！+1 pts</b></span></div>
                            ","","learn","5","5","5","learn","1","1","[0, 1, 2]","72","7","setsize","10S3A","sports","1","4","1","1",""
"null","null","fixation","html-keyboard-response","273","627094","0.0-1.0-7.0-3.0-0.73","13:10:30","2","","","","","","","fixation","","","","","","","","","","","","","","","","","","",""
"211","3","pic_response","html-keyboard-response","274","627305","0.0-1.0-7.0-3.0-1.73","13:10:30","2","","","","","","","<div>
            <img class='stim' src=""pictures/sports/4.jpg""></div><div class=""button_prompt"">
                        <b>请用数字键1-3回答</b>
                        </div>","","","","","","","","","","","","","","","","","","",""
"211","null","sub_response","html-keyboard-response","275","628308","0.0-1.0-7.0-3.0-2.73","13:10:30","2","","","","","","","<div style='text-align: center;'>
                            <span style=""color: red; font-size: 40px""><b>错误！+0 pts</b></span></div>
                            ","","learn","4","4","4","learn","1","1","[0, 1, 2]","73","7","setsize","10S3A","sports","1","0","2","0",""
"null","null","fixation","html-keyboard-response","276","628808","0.0-1.0-7.0-3.0-0.74","13:10:30","2","","","","","","","fixation","","","","","","","","","","","","","","","","","","",""
"230","2","pic_response","html-keyboard-response","277","629039","0.0-1.0-7.0-3.0-1.74","13:10:30","2","","","","","","","<div>
            <img class='stim' src=""pictures/sports/0.jpg""></div><div class=""button_prompt"">
                        <b>请用数字键1-3回答</b>
                        </div>","","","","","","","","","","","","","","","","","","",""
"230","null","sub_response","html-keyboard-response","278","630041","0.0-1.0-7.0-3.0-2.74","13:10:30","2","","","","","","","<div style='text-align: center;'>
                            <span style=""color: red; font-size: 40px""><b>错误！+0 pts</b></span></div>
                            ","","learn","0","0","0","learn","0","0","[0, 1, 2]","74","7","setsize","10S3A","sports","1","0","1","0",""
"null","null","fixation","html-keyboard-response","279","630543","0.0-1.0-7.0-3.0-0.75","13:10:30","2","","","","","","","fixation","","","","","","","","","","","","","","","","","","",""
"319","2","pic_response","html-keyboard-response","280","630863","0.0-1.0-7.0-3.0-1.75","13:10:30","2","","","","","","","<div>
            <img class='stim' src=""pictures/sports/8.jpg""></div><div class=""button_prompt"">
                        <b>请用数字键1-3回答</b>
                        </div>","","","","","","","","","","","","","","","","","","",""
"319","null","sub_response","html-keyboard-response","281","631864","0.0-1.0-7.0-3.0-2.75","13:10:30","2","","","","","","","<div style='text-align: center;'>
                            <span style=""color: red; font-size: 40px""><b>错误！+0 pts</b></span></div>
                            ","","learn","8","8","8","learn","2","2","[0, 1, 2]","75","7","setsize","10S3A","sports","1","0","1","0",""
"null","null","fixation","html-keyboard-response","282","632365","0.0-1.0-7.0-3.0-0.76","13:10:30","2","","","","","","","fixation","","","","","","","","","","","","","","","","","","",""
"155","1","pic_response","html-keyboard-response","283","632521","0.0-1.0-7.0-3.0-1.76","13:10:30","2","","","","","","","<div>
            <img class='stim' src=""pictures/sports/6.jpg""></div><div class=""button_prompt"">
                        <b>请用数字键1-3回答</b>
                        </div>","","","","","","","","","","","","","","","","","","",""
"155","null","sub_response","html-keyboard-response","284","633522","0.0-1.0-7.0-3.0-2.76","13:10:30","2","","","","","","","<div style='text-align: center;'>
                            <span style=""color: red; font-size: 40px""><b>错误！+0 pts</b></span></div>
                            ","","learn","6","6","6","learn","2","2","[0, 1, 2]","76","7","setsize","10S3A","sports","1","0","0","0",""
"null","null","fixation","html-keyboard-response","285","634022","0.0-1.0-7.0-3.0-0.77","13:10:30","2","","","","","","","fixation","","","","","","","","","","","","","","","","","","",""
"151","3","pic_response","html-keyboard-response","286","634174","0.0-1.0-7.0-3.0-1.77","13:10:30","2","","","","","","","<div>
            <img class='stim' src=""pictures/sports/9.jpg""></div><div class=""button_prompt"">
                        <b>请用数字键1-3回答</b>
                        </div>","","","","","","","","","","","","","","","","","","",""
"151","null","sub_response","html-keyboard-response","287","635175","0.0-1.0-7.0-3.0-2.77","13:10:30","2","","","","","","","<div style='text-align: center;'>
                            <span style=""color: green; font-size: 40px""><b>正确！+1 pts</b></span></div>
                            ","","learn","9","9","9","learn","2","2","[0, 1, 2]","77","7","setsize","10S3A","sports","1","1","2","1",""
"null","null","fixation","html-keyboard-response","288","635684","0.0-1.0-7.0-3.0-0.78","13:10:30","2","","","","","","","fixation","","","","","","","","","","","","","","","","","","",""
"221","2","pic_response","html-keyboard-response","289","635906","0.0-1.0-7.0-3.0-1.78","13:10:30","2","","","","","","","<div>
            <img class='stim' src=""pictures/sports/3.jpg""></div><div class=""button_prompt"">
                        <b>请用数字键1-3回答</b>
                        </div>","","","","","","","","","","","","","","","","","","",""
"221","null","sub_response","html-keyboard-response","290","636907","0.0-1.0-7.0-3.0-2.78","13:10:30","2","","","","","","","<div style='text-align: center;'>
                            <span style=""color: green; font-size: 40px""><b>正确！+1 pts</b></span></div>
                            ","","learn","3","3","3","learn","1","1","[0, 1, 2]","78","7","setsize","10S3A","sports","1","2","1","1",""
"null","null","fixation","html-keyboard-response","291","637409","0.0-1.0-7.0-3.0-0.79","13:10:30","2","","","","","","","fixation","","","","","","","","","","","","","","","","","","",""
"942","3","pic_response","html-keyboard-response","292","638352","0.0-1.0-7.0-3.0-1.79","13:10:30","2","","","","","","","<div>
            <img class='stim' src=""pictures/sports/1.jpg""></div><div class=""button_prompt"">
                        <b>请用数字键1-3回答</b>
                        </div>","","","","","","","","","","","","","","","","","","",""
"942","null","sub_response","html-keyboard-response","293","639353","0.0-1.0-7.0-3.0-2.79","13:10:30","2","","","","","","","<div style='text-align: center;'>
                            <span style=""color: red; font-size: 40px""><b>错误！+0 pts</b></span></div>
                            ","","learn","1","1","1","learn","0","0","[0, 1, 2]","79","7","setsize","10S3A","sports","1","0","2","0",""
"null","null","fixation","html-keyboard-response","294","639855","0.0-1.0-7.0-3.0-0.80","13:10:30","2","","","","","","","fixation","","","","","","","","","","","","","","","","","","",""
"2608","1","pic_response","html-keyboard-response","295","642465","0.0-1.0-7.0-3.0-1.80","13:10:30","2","","","","","","","<div>
            <img class='stim' src=""pictures/sports/2.jpg""></div><div class=""button_prompt"">
                        <b>请用数字键1-3回答</b>
                        </div>","","","","","","","","","","","","","","","","","","",""
"2608","null","sub_response","html-keyboard-response","296","643466","0.0-1.0-7.0-3.0-2.80","13:10:30","2","","","","","","","<div style='text-align: center;'>
                            <span style=""color: green; font-size: 40px""><b>正确！+1 pts</b></span></div>
                            ","","learn","2","2","2","learn","0","0","[0, 1, 2]","80","8","setsize","10S3A","sports","1","1","0","1",""
"null","null","fixation","html-keyboard-response","297","643968","0.0-1.0-7.0-3.0-0.81","13:10:30","2","","","","","","","fixation","","","","","","","","","","","","","","","","","","",""
"703","1","pic_response","html-keyboard-response","298","644671","0.0-1.0-7.0-3.0-1.81","13:10:30","2","","","","","","","<div>
            <img class='stim' src=""pictures/sports/1.jpg""></div><div class=""button_prompt"">
                        <b>请用数字键1-3回答</b>
                        </div>","","","","","","","","","","","","","","","","","","",""
"703","null","sub_response","html-keyboard-response","299","645673","0.0-1.0-7.0-3.0-2.81","13:10:30","2","","","","","","","<div style='text-align: center;'>
                            <span style=""color: green; font-size: 40px""><b>正确！+1 pts</b></span></div>
                            ","","learn","1","1","1","learn","0","0","[0, 1, 2]","81","8","setsize","10S3A","sports","1","2","0","1",""
"null","null","fixation","html-keyboard-response","300","646174","0.0-1.0-7.0-3.0-0.82","13:10:30","2","","","","","","","fixation","","","","","","","","","","","","","","","","","","",""
"724","3","pic_response","html-keyboard-response","301","646899","0.0-1.0-7.0-3.0-1.82","13:10:30","2","","","","","","","<div>
            <img class='stim' src=""pictures/sports/4.jpg""></div><div class=""button_prompt"">
                        <b>请用数字键1-3回答</b>
                        </div>","","","","","","","","","","","","","","","","","","",""
"724","null","sub_response","html-keyboard-response","302","647900","0.0-1.0-7.0-3.0-2.82","13:10:30","2","","","","","","","<div style='text-align: center;'>
                            <span style=""color: red; font-size: 40px""><b>错误！+0 pts</b></span></div>
                            ","","learn","4","4","4","learn","1","1","[0, 1, 2]","82","8","setsize","10S3A","sports","1","0","2","0",""
"null","null","fixation","html-keyboard-response","303","648403","0.0-1.0-7.0-3.0-0.83","13:10:30","2","","","","","","","fixation","","","","","","","","","","","","","","","","","","",""
"530","2","pic_response","html-keyboard-response","304","648933","0.0-1.0-7.0-3.0-1.83","13:10:30","2","","","","","","","<div>
            <img class='stim' src=""pictures/sports/8.jpg""></div><div class=""button_prompt"">
                        <b>请用数字键1-3回答</b>
                        </div>","","","","","","","","","","","","","","","","","","",""
"530","null","sub_response","html-keyboard-response","305","649934","0.0-1.0-7.0-3.0-2.83","13:10:30","2","","","","","","","<div style='text-align: center;'>
                            <span style=""color: red; font-size: 40px""><b>错误！+0 pts</b></span></div>
                            ","","learn","8","8","8","learn","2","2","[0, 1, 2]","83","8","setsize","10S3A","sports","1","0","1","0",""
"null","null","fixation","html-keyboard-response","306","650436","0.0-1.0-7.0-3.0-0.84","13:10:30","2","","","","","","","fixation","","","","","","","","","","","","","","","","","","",""
"219","3","pic_response","html-keyboard-response","307","650655","0.0-1.0-7.0-3.0-1.84","13:10:30","2","","","","","","","<div>
            <img class='stim' src=""pictures/sports/7.jpg""></div><div class=""button_prompt"">
                        <b>请用数字键1-3回答</b>
                        </div>","","","","","","","","","","","","","","","","","","",""
"219","null","sub_response","html-keyboard-response","308","651656","0.0-1.0-7.0-3.0-2.84","13:10:30","2","","","","","","","<div style='text-align: center;'>
                            <span style=""color: green; font-size: 40px""><b>正确！+1 pts</b></span></div>
                            ","","learn","7","7","7","learn","2","2","[0, 1, 2]","84","8","setsize","10S3A","sports","1","1","2","1",""
"null","null","fixation","html-keyboard-response","309","652157","0.0-1.0-7.0-3.0-0.85","13:10:30","2","","","","","","","fixation","","","","","","","","","","","","","","","","","","",""
"611","3","pic_response","html-keyboard-response","310","652768","0.0-1.0-7.0-3.0-1.85","13:10:30","2","","","","","","","<div>
            <img class='stim' src=""pictures/sports/6.jpg""></div><div class=""button_prompt"">
                        <b>请用数字键1-3回答</b>
                        </div>","","","","","","","","","","","","","","","","","","",""
"611","null","sub_response","html-keyboard-response","311","653770","0.0-1.0-7.0-3.0-2.85","13:10:30","2","","","","","","","<div style='text-align: center;'>
                            <span style=""color: green; font-size: 40px""><b>正确！+1 pts</b></span></div>
                            ","","learn","6","6","6","learn","2","2","[0, 1, 2]","85","8","setsize","10S3A","sports","1","2","2","1",""
"null","null","fixation","html-keyboard-response","312","654271","0.0-1.0-7.0-3.0-0.86","13:10:30","2","","","","","","","fixation","","","","","","","","","","","","","","","","","","",""
"1632","2","pic_response","html-keyboard-response","313","655904","0.0-1.0-7.0-3.0-1.86","13:10:30","2","","","","","","","<div>
            <img class='stim' src=""pictures/sports/3.jpg""></div><div class=""button_prompt"">
                        <b>请用数字键1-3回答</b>
                        </div>","","","","","","","","","","","","","","","","","","",""
"1632","null","sub_response","html-keyboard-response","314","656905","0.0-1.0-7.0-3.0-2.86","13:10:30","2","","","","","","","<div style='text-align: center;'>
                            <span style=""color: green; font-size: 40px""><b>正确！+1 pts</b></span></div>
                            ","","learn","3","3","3","learn","1","1","[0, 1, 2]","86","8","setsize","10S3A","sports","1","3","1","1",""
"null","null","fixation","html-keyboard-response","315","657406","0.0-1.0-7.0-3.0-0.87","13:10:30","2","","","","","","","fixation","","","","","","","","","","","","","","","","","","",""
"687","3","pic_response","html-keyboard-response","316","658094","0.0-1.0-7.0-3.0-1.87","13:10:30","2","","","","","","","<div>
            <img class='stim' src=""pictures/sports/9.jpg""></div><div class=""button_prompt"">
                        <b>请用数字键1-3回答</b>
                        </div>","","","","","","","","","","","","","","","","","","",""
"687","null","sub_response","html-keyboard-response","317","659095","0.0-1.0-7.0-3.0-2.87","13:10:30","2","","","","","","","<div style='text-align: center;'>
                            <span style=""color: green; font-size: 40px""><b>正确！+1 pts</b></span></div>
                            ","","learn","9","9","9","learn","2","2","[0, 1, 2]","87","8","setsize","10S3A","sports","1","4","2","1",""
"null","null","fixation","html-keyboard-response","318","659596","0.0-1.0-7.0-3.0-0.88","13:10:30","2","","","","","","","fixation","","","","","","","","","","","","","","","","","","",""
"665","2","pic_response","html-keyboard-response","319","660262","0.0-1.0-7.0-3.0-1.88","13:10:30","2","","","","","","","<div>
            <img class='stim' src=""pictures/sports/5.jpg""></div><div class=""button_prompt"">
                        <b>请用数字键1-3回答</b>
                        </div>","","","","","","","","","","","","","","","","","","",""
"665","null","sub_response","html-keyboard-response","320","661264","0.0-1.0-7.0-3.0-2.88","13:10:30","2","","","","","","","<div style='text-align: center;'>
