"rt","response","screen_id","trial_type","trial_index","time_elapsed","internal_node_id","start_time","n_Prac","success","timeout","failed_images","failed_audio","failed_video","view_history","stimulus","question_order","stage","s","word","word_id","phase","a_cor","a_real","a_ava","trial","tps","task_type","block_typ","pic_typ","block_id","cum_r","a","r","plugin_name"
"26028","{""sub_id"":""17501478825"",""task_type"":""task1"",""name"":""凯子"",""gender"":""F""}","basic_info","survey-html-form","0","26033","0.0-0.0","10:26:17","2","","","","","","","","","","","","","","","","","","","","","","","","","",""
"","","","preload","1","28220","0.0-1.0-0.0","10:26:17","2","true","false","[]","[]","[]","","","","","","","","","","","","","","","","","","","","",""
"","","","preload","2","28482","0.0-1.0-1.0","10:26:17","2","true","false","[]","[]","[]","","","","","","","","","","","","","","","","","","","","",""
"","","","fullscreen","3","57884","0.0-1.0-2.0","10:26:17","2","true","","","","","","","","","","","","","","","","","","","","","","","","",""
"41031","","instruct","instructions","4","98917","0.0-1.0-3.0-0.0","10:26:17","2","","","","","","[{""page_index"":0,""viewing_time"":17631},{""page_index"":1,""viewing_time"":4463},{""page_index"":2,""viewing_time"":18936}]","","","","","","","","","","","","","","","","","","","",""
"11959","{""Q0"":"""",""task1"":""<span style='font-size: 24px'>学习图片和数字的对应关系</span>"",""task2"":""<span style='font-size: 24px'> 图片下方标注为可用的数字键（数字键1-3或0-9） </span>"",""task3"":""<span style='font-size: 24px'> 看到图片选出正确对应的数字 </span>""}","question","survey-multi-choice","5","110878","0.0-1.0-3.0-1.0","10:26:17","2","","","","","","","","[0,1,2,3]","","","","","","","","","","","","","","","","","",""
"4967"," ","inst_q","html-keyboard-response","6","115846","0.0-1.0-3.0-2.0","10:26:17","2","","","","","","","inst","","1","","","","","","","","","","","","","","","","",""
"","","","preload","7","116395","0.0-1.0-4.0-0.0","10:26:17","2","true","false","[]","[]","[]","","","","","","","","","","","","","","","","","","","","",""
"28065"," ","","html-keyboard-response","8","144461","0.0-1.0-4.0-1.0","10:26:17","2","","","","","","","<div style='font-size: 32px; text-align: center;'
                    <p>请学习图片和数字之间的对应关系</p>
                    <p>我们将<span style='color: blue'><b> 告诉 </b></span>您选择的对错。请根据反馈学习。</p>
                    <p>请按""空格""继续实验。</p></div>","","","","","","","","","","","","","","","","","","",""
"3710"," ","inst","html-keyboard-response","9","148173","0.0-1.0-4.0-2.0","10:26:17","2","","","","","","","<img class='instruct_stim' src=""instruction/prac3.PNG""></div>","","","","","","","","","","","","","","","","","","",""
"null","null","fixation","html-keyboard-response","10","148679","0.0-1.0-4.0-3.0-0.0","10:26:17","2","","","","","","","fixation","","","","","","","","","","","","","","","","","","",""
"1100","1","pic_response","html-keyboard-response","11","149781","0.0-1.0-4.0-3.0-1.0","10:26:17","2","","","","","","","<div>
            <img class='stim' src=""pictures/prac/0.jpg""></div><div class=""button_prompt"">
                        <b>请用数字键1-3回答</b>
                        </div>","","","","","","","","","","","","","","","","","","",""
"1100","null","sub_response","html-keyboard-response","12","150784","0.0-1.0-4.0-3.0-2.0","10:26:17","2","","","","","","","<div style='text-align: center;'>
                            <span style=""color: green; font-size: 40px""><b>正确！+1 pts</b></span></div>
                            ","","learn","0","0","0","learn","0","0","[0, 1, 2]","0","0","setsize","99","prac","0","1","0","1",""
"null","null","fixation","html-keyboard-response","13","151286","0.0-1.0-4.0-3.0-0.1","10:26:17","2","","","","","","","fixation","","","","","","","","","","","","","","","","","","",""
"1982","2","pic_response","html-keyboard-response","14","153270","0.0-1.0-4.0-3.0-1.1","10:26:17","2","","","","","","","<div>
            <img class='stim' src=""pictures/prac/2.jpg""></div><div class=""button_prompt"">
                        <b>请用数字键1-3回答</b>
                        </div>","","","","","","","","","","","","","","","","","","",""
"1982","null","sub_response","html-keyboard-response","15","154271","0.0-1.0-4.0-3.0-2.1","10:26:17","2","","","","","","","<div style='text-align: center;'>
                            <span style=""color: red; font-size: 40px""><b>错误！+0 pts</b></span></div>
                            ","","learn","2","2","2","learn","2","2","[0, 1, 2]","1","0","setsize","99","prac","0","0","1","0",""
"null","null","fixation","html-keyboard-response","16","154772","0.0-1.0-4.0-3.0-0.2","10:26:17","2","","","","","","","fixation","","","","","","","","","","","","","","","","","","",""
"2176","3","pic_response","html-keyboard-response","17","156950","0.0-1.0-4.0-3.0-1.2","10:26:17","2","","","","","","","<div>
            <img class='stim' src=""pictures/prac/1.jpg""></div><div class=""button_prompt"">
                        <b>请用数字键1-3回答</b>
                        </div>","","","","","","","","","","","","","","","","","","",""
"2176","null","sub_response","html-keyboard-response","18","157951","0.0-1.0-4.0-3.0-2.2","10:26:17","2","","","","","","","<div style='text-align: center;'>
                            <span style=""color: red; font-size: 40px""><b>错误！+0 pts</b></span></div>
                            ","","learn","1","1","1","learn","0","0","[0, 1, 2]","2","0","setsize","99","prac","0","0","2","0",""
"null","null","fixation","html-keyboard-response","19","158452","0.0-1.0-4.0-3.0-0.3","10:26:17","2","","","","","","","fixation","","","","","","","","","","","","","","","","","","",""
"1088","1","pic_response","html-keyboard-response","20","159541","0.0-1.0-4.0-3.0-1.3","10:26:17","2","","","","","","","<div>
            <img class='stim' src=""pictures/prac/1.jpg""></div><div class=""button_prompt"">
                        <b>请用数字键1-3回答</b>
                        </div>","","","","","","","","","","","","","","","","","","",""
"1088","null","sub_response","html-keyboard-response","21","160543","0.0-1.0-4.0-3.0-2.3","10:26:17","2","","","","","","","<div style='text-align: center;'>
                            <span style=""color: green; font-size: 40px""><b>正确！+1 pts</b></span></div>
                            ","","learn","1","1","1","learn","0","0","[0, 1, 2]","3","1","setsize","99","prac","0","1","0","1",""
"null","null","fixation","html-keyboard-response","22","161044","0.0-1.0-4.0-3.0-0.4","10:26:17","2","","","","","","","fixation","","","","","","","","","","","","","","","","","","",""
"784","1","pic_response","html-keyboard-response","23","161829","0.0-1.0-4.0-3.0-1.4","10:26:17","2","","","","","","","<div>
            <img class='stim' src=""pictures/prac/0.jpg""></div><div class=""button_prompt"">
                        <b>请用数字键1-3回答</b>
                        </div>","","","","","","","","","","","","","","","","","","",""
"784","null","sub_response","html-keyboard-response","24","162831","0.0-1.0-4.0-3.0-2.4","10:26:17","2","","","","","","","<div style='text-align: center;'>
                            <span style=""color: green; font-size: 40px""><b>正确！+1 pts</b></span></div>
                            ","","learn","0","0","0","learn","0","0","[0, 1, 2]","4","1","setsize","99","prac","0","2","0","1",""
"null","null","fixation","html-keyboard-response","25","163332","0.0-1.0-4.0-3.0-0.5","10:26:17","2","","","","","","","fixation","","","","","","","","","","","","","","","","","","",""
"568","3","pic_response","html-keyboard-response","26","163901","0.0-1.0-4.0-3.0-1.5","10:26:17","2","","","","","","","<div>
            <img class='stim' src=""pictures/prac/2.jpg""></div><div class=""button_prompt"">
                        <b>请用数字键1-3回答</b>
                        </div>","","","","","","","","","","","","","","","","","","",""
"568","null","sub_response","html-keyboard-response","27","164903","0.0-1.0-4.0-3.0-2.5","10:26:17","2","","","","","","","<div style='text-align: center;'>
                            <span style=""color: green; font-size: 40px""><b>正确！+1 pts</b></span></div>
                            ","","learn","2","2","2","learn","2","2","[0, 1, 2]","5","1","setsize","99","prac","0","3","2","1",""
"","","","preload","28","164908","0.0-1.0-4.1-0.1","10:26:17","2","true","false","[]","[]","[]","","","","","","","","","","","","","","","","","","","","",""
"1090"," ","","html-keyboard-response","29","165999","0.0-1.0-4.1-1.1","10:26:17","2","","","","","","","<div style='font-size: 32px; text-align: center;'
                    <p>请学习图片和数字之间的对应关系</p>
                    <p>我们将<span style='color: blue'><b> 告诉 </b></span>您选择的对错。请根据反馈学习。</p>
                    <p>请按""空格""继续实验。</p></div>","","","","","","","","","","","","","","","","","","",""
"2118"," ","inst","html-keyboard-response","30","168118","0.0-1.0-4.1-2.1","10:26:17","2","","","","","","","<img class='instruct_stim' src=""instruction/prac3.PNG""></div>","","","","","","","","","","","","","","","","","","",""
"null","null","fixation","html-keyboard-response","31","168619","0.0-1.0-4.1-3.1-0.6","10:26:17","2","","","","","","","fixation","","","","","","","","","","","","","","","","","","",""
"705","1","pic_response","html-keyboard-response","32","169325","0.0-1.0-4.1-3.1-1.6","10:26:17","2","","","","","","","<div>
            <img class='stim' src=""pictures/prac/0.jpg""></div><div class=""button_prompt"">
                        <b>请用数字键1-3回答</b>
                        </div>","","","","","","","","","","","","","","","","","","",""
"705","null","sub_response","html-keyboard-response","33","170327","0.0-1.0-4.1-3.1-2.6","10:26:17","2","","","","","","","<div style='text-align: center;'>
                            <span style=""color: green; font-size: 40px""><b>正确！+1 pts</b></span></div>
                            ","","learn","0","0","0","learn","0","0","[0, 1, 2]","0","0","setsize","99","prac","0","4","0","1",""
"null","null","fixation","html-keyboard-response","34","170828","0.0-1.0-4.1-3.1-0.7","10:26:17","2","","","","","","","fixation","","","","","","","","","","","","","","","","","","",""
"664","3","pic_response","html-keyboard-response","35","171494","0.0-1.0-4.1-3.1-1.7","10:26:17","2","","","","","","","<div>
            <img class='stim' src=""pictures/prac/2.jpg""></div><div class=""button_prompt"">
                        <b>请用数字键1-3回答</b>
                        </div>","","","","","","","","","","","","","","","","","","",""
"664","null","sub_response","html-keyboard-response","36","172497","0.0-1.0-4.1-3.1-2.7","10:26:17","2","","","","","","","<div style='text-align: center;'>
                            <span style=""color: green; font-size: 40px""><b>正确！+1 pts</b></span></div>
                            ","","learn","2","2","2","learn","2","2","[0, 1, 2]","1","0","setsize","99","prac","0","5","2","1",""
"null","null","fixation","html-keyboard-response","37","172998","0.0-1.0-4.1-3.1-0.8","10:26:17","2","","","","","","","fixation","","","","","","","","","","","","","","","","","","",""
"670","1","pic_response","html-keyboard-response","38","173669","0.0-1.0-4.1-3.1-1.8","10:26:17","2","","","","","","","<div>
            <img class='stim' src=""pictures/prac/1.jpg""></div><div class=""button_prompt"">
                        <b>请用数字键1-3回答</b>
                        </div>","","","","","","","","","","","","","","","","","","",""
"670","null","sub_response","html-keyboard-response","39","174671","0.0-1.0-4.1-3.1-2.8","10:26:17","2","","","","","","","<div style='text-align: center;'>
                            <span style=""color: green; font-size: 40px""><b>正确！+1 pts</b></span></div>
                            ","","learn","1","1","1","learn","0","0","[0, 1, 2]","2","0","setsize","99","prac","0","6","0","1",""
"null","null","fixation","html-keyboard-response","40","175173","0.0-1.0-4.1-3.1-0.9","10:26:17","2","","","","","","","fixation","","","","","","","","","","","","","","","","","","",""
"983","1","pic_response","html-keyboard-response","41","176157","0.0-1.0-4.1-3.1-1.9","10:26:17","2","","","","","","","<div>
            <img class='stim' src=""pictures/prac/1.jpg""></div><div class=""button_prompt"">
                        <b>请用数字键1-3回答</b>
                        </div>","","","","","","","","","","","","","","","","","","",""
"983","null","sub_response","html-keyboard-response","42","177158","0.0-1.0-4.1-3.1-2.9","10:26:17","2","","","","","","","<div style='text-align: center;'>
                            <span style=""color: green; font-size: 40px""><b>正确！+1 pts</b></span></div>
                            ","","learn","1","1","1","learn","0","0","[0, 1, 2]","3","1","setsize","99","prac","0","7","0","1",""
"null","null","fixation","html-keyboard-response","43","177659","0.0-1.0-4.1-3.1-0.10","10:26:17","2","","","","","","","fixation","","","","","","","","","","","","","","","","","","",""
"577","1","pic_response","html-keyboard-response","44","178238","0.0-1.0-4.1-3.1-1.10","10:26:17","2","","","","","","","<div>
            <img class='stim' src=""pictures/prac/0.jpg""></div><div class=""button_prompt"">
                        <b>请用数字键1-3回答</b>
                        </div>","","","","","","","","","","","","","","","","","","",""
"577","null","sub_response","html-keyboard-response","45","179239","0.0-1.0-4.1-3.1-2.10","10:26:17","2","","","","","","","<div style='text-align: center;'>
                            <span style=""color: green; font-size: 40px""><b>正确！+1 pts</b></span></div>
                            ","","learn","0","0","0","learn","0","0","[0, 1, 2]","4","1","setsize","99","prac","0","8","0","1",""
"null","null","fixation","html-keyboard-response","46","179741","0.0-1.0-4.1-3.1-0.11","10:26:17","2","","","","","","","fixation","","","","","","","","","","","","","","","","","","",""
"944","3","pic_response","html-keyboard-response","47","180686","0.0-1.0-4.1-3.1-1.11","10:26:17","2","","","","","","","<div>
            <img class='stim' src=""pictures/prac/2.jpg""></div><div class=""button_prompt"">
                        <b>请用数字键1-3回答</b>
                        </div>","","","","","","","","","","","","","","","","","","",""
"944","null","sub_response","html-keyboard-response","48","181687","0.0-1.0-4.1-3.1-2.11","10:26:17","2","","","","","","","<div style='text-align: center;'>
                            <span style=""color: green; font-size: 40px""><b>正确！+1 pts</b></span></div>
                            ","","learn","2","2","2","learn","2","2","[0, 1, 2]","5","1","setsize","99","prac","0","9","2","1",""
"1677"," ","","html-keyboard-response","49","183366","0.0-1.0-5.0","10:26:17","2","","","","","","","<div style=""font-size: 25px""><p>距下一个实验开始还有</p><div style=""font-size: 50px; color: blue""><p><span id=""clock"">1:00</span></div></p><p>按""空格""跳过休息</p></div>","","","","","","","","","","","","","","","","","","",""
"1591"," ","","html-keyboard-response","50","184958","0.0-1.0-6.0","10:26:17","2","","","","","","","<div style='font-size: 32px; text-align: center;'
                    <p>请按""空格""继续正式实验。</p></div>","","","","","","","","","","","","","","","","","","",""
"","","","preload","51","185555","0.0-1.0-7.0-0.0","10:26:17","2","true","false","[]","[]","[]","","","","","","","","","","","","","","","","","","","","",""
"11314"," ","","html-keyboard-response","52","196870","0.0-1.0-7.0-1.0","10:26:17","2","","","","","","","<div style='font-size: 32px; text-align: center;'
                    <p>请学习图片和数字之间的对应关系</p>
                    <p>我们将<span style='color: blue'><b> 告诉 </b></span>您选择的对错。请根据反馈学习。</p>
                    <p>请按""空格""继续实验。</p></div>","","","","","","","","","","","","","","","","","","",""
"4534"," ","inst","html-keyboard-response","53","201405","0.0-1.0-7.0-2.0","10:26:17","2","","","","","","","<img class='instruct_stim' src=""instruction/sports10.PNG""></div>","","","","","","","","","","","","","","","","","","",""
"null","null","fixation","html-keyboard-response","54","201908","0.0-1.0-7.0-3.0-0.0","10:26:17","2","","","","","","","fixation","","","","","","","","","","","","","","","","","","",""
"2192","1","pic_response","html-keyboard-response","55","204101","0.0-1.0-7.0-3.0-1.0","10:26:17","2","","","","","","","<div>
            <img class='stim' src=""pictures/sports/0.jpg""></div><div class=""button_prompt"">
                        <b>请用数字键1-3回答</b>
                        </div>","","","","","","","","","","","","","","","","","","",""
"2192","null","sub_response","html-keyboard-response","56","205102","0.0-1.0-7.0-3.0-2.0","10:26:17","2","","","","","","","<div style='text-align: center;'>
                            <span style=""color: green; font-size: 40px""><b>正确！+1 pts</b></span></div>
                            ","","learn","0","0","0","learn","0","0","[0, 1, 2]","0","0","setsize","10S3A","sports","1","10","0","1",""
"null","null","fixation","html-keyboard-response","57","205604","0.0-1.0-7.0-3.0-0.1","10:26:17","2","","","","","","","fixation","","","","","","","","","","","","","","","","","","",""
"640","2","pic_response","html-keyboard-response","58","206245","0.0-1.0-7.0-3.0-1.1","10:26:17","2","","","","","","","<div>
            <img class='stim' src=""pictures/sports/5.jpg""></div><div class=""button_prompt"">
                        <b>请用数字键1-3回答</b>
                        </div>","","","","","","","","","","","","","","","","","","",""
"640","null","sub_response","html-keyboard-response","59","207247","0.0-1.0-7.0-3.0-2.1","10:26:17","2","","","","","","","<div style='text-align: center;'>
                            <span style=""color: green; font-size: 40px""><b>正确！+1 pts</b></span></div>
                            ","","learn","5","5","5","learn","1","1","[0, 1, 2]","1","0","setsize","10S3A","sports","1","11","1","1",""
"null","null","fixation","html-keyboard-response","60","207748","0.0-1.0-7.0-3.0-0.2","10:26:17","2","","","","","","","fixation","","","","","","","","","","","","","","","","","","",""
"696","3","pic_response","html-keyboard-response","61","208445","0.0-1.0-7.0-3.0-1.2","10:26:17","2","","","","","","","<div>
            <img class='stim' src=""pictures/sports/3.jpg""></div><div class=""button_prompt"">
                        <b>请用数字键1-3回答</b>
                        </div>","","","","","","","","","","","","","","","","","","",""
"696","null","sub_response","html-keyboard-response","62","209447","0.0-1.0-7.0-3.0-2.2","10:26:17","2","","","","","","","<div style='text-align: center;'>
                            <span style=""color: red; font-size: 40px""><b>错误！+0 pts</b></span></div>
                            ","","learn","3","3","3","learn","1","1","[0, 1, 2]","2","0","setsize","10S3A","sports","1","0","2","0",""
"null","null","fixation","html-keyboard-response","63","209948","0.0-1.0-7.0-3.0-0.3","10:26:17","2","","","","","","","fixation","","","","","","","","","","","","","","","","","","",""
"1408","1","pic_response","html-keyboard-response","64","211357","0.0-1.0-7.0-3.0-1.3","10:26:17","2","","","","","","","<div>
            <img class='stim' src=""pictures/sports/4.jpg""></div><div class=""button_prompt"">
                        <b>请用数字键1-3回答</b>
                        </div>","","","","","","","","","","","","","","","","","","",""
"1408","null","sub_response","html-keyboard-response","65","212359","0.0-1.0-7.0-3.0-2.3","10:26:17","2","","","","","","","<div style='text-align: center;'>
                            <span style=""color: red; font-size: 40px""><b>错误！+0 pts</b></span></div>
                            ","","learn","4","4","4","learn","1","1","[0, 1, 2]","3","0","setsize","10S3A","sports","1","0","0","0",""
"null","null","fixation","html-keyboard-response","66","212860","0.0-1.0-7.0-3.0-0.4","10:26:17","2","","","","","","","fixation","","","","","","","","","","","","","","","","","","",""
"776","1","pic_response","html-keyboard-response","67","213637","0.0-1.0-7.0-3.0-1.4","10:26:17","2","","","","","","","<div>
            <img class='stim' src=""pictures/sports/2.jpg""></div><div class=""button_prompt"">
                        <b>请用数字键1-3回答</b>
                        </div>","","","","","","","","","","","","","","","","","","",""
"776","null","sub_response","html-keyboard-response","68","214640","0.0-1.0-7.0-3.0-2.4","10:26:17","2","","","","","","","<div style='text-align: center;'>
                            <span style=""color: green; font-size: 40px""><b>正确！+1 pts</b></span></div>
                            ","","learn","2","2","2","learn","0","0","[0, 1, 2]","4","0","setsize","10S3A","sports","1","1","0","1",""
"null","null","fixation","html-keyboard-response","69","215141","0.0-1.0-7.0-3.0-0.5","10:26:17","2","","","","","","","fixation","","","","","","","","","","","","","","","","","","",""
"720","1","pic_response","html-keyboard-response","70","215861","0.0-1.0-7.0-3.0-1.5","10:26:17","2","","","","","","","<div>
            <img class='stim' src=""pictures/sports/1.jpg""></div><div class=""button_prompt"">
                        <b>请用数字键1-3回答</b>
                        </div>","","","","","","","","","","","","","","","","","","",""
"720","null","sub_response","html-keyboard-response","71","216863","0.0-1.0-7.0-3.0-2.5","10:26:17","2","","","","","","","<div style='text-align: center;'>
                            <span style=""color: green; font-size: 40px""><b>正确！+1 pts</b></span></div>
                            ","","learn","1","1","1","learn","0","0","[0, 1, 2]","5","0","setsize","10S3A","sports","1","2","0","1",""
"null","null","fixation","html-keyboard-response","72","217364","0.0-1.0-7.0-3.0-0.6","10:26:17","2","","","","","","","fixation","","","","","","","","","","","","","","","","","","",""
"664","1","pic_response","html-keyboard-response","73","218030","0.0-1.0-7.0-3.0-1.6","10:26:17","2","","","","","","","<div>
            <img class='stim' src=""pictures/sports/6.jpg""></div><div class=""button_prompt"">
                        <b>请用数字键1-3回答</b>
                        </div>","","","","","","","","","","","","","","","","","","",""
"664","null","sub_response","html-keyboard-response","74","219031","0.0-1.0-7.0-3.0-2.6","10:26:17","2","","","","","","","<div style='text-align: center;'>
                            <span style=""color: red; font-size: 40px""><b>错误！+0 pts</b></span></div>
                            ","","learn","6","6","6","learn","2","2","[0, 1, 2]","6","0","setsize","10S3A","sports","1","0","0","0",""
"null","null","fixation","html-keyboard-response","75","219533","0.0-1.0-7.0-3.0-0.7","10:26:17","2","","","","","","","fixation","","","","","","","","","","","","","","","","","","",""
"2192","1","pic_response","html-keyboard-response","76","221726","0.0-1.0-7.0-3.0-1.7","10:26:17","2","","","","","","","<div>
            <img class='stim' src=""pictures/sports/8.jpg""></div><div class=""button_prompt"">
                        <b>请用数字键1-3回答</b>
                        </div>","","","","","","","","","","","","","","","","","","",""
"2192","null","sub_response","html-keyboard-response","77","222727","0.0-1.0-7.0-3.0-2.7","10:26:17","2","","","","","","","<div style='text-align: center;'>
                            <span style=""color: red; font-size: 40px""><b>错误！+0 pts</b></span></div>
                            ","","learn","8","8","8","learn","2","2","[0, 1, 2]","7","0","setsize","10S3A","sports","1","0","0","0",""
"null","null","fixation","html-keyboard-response","78","223228","0.0-1.0-7.0-3.0-0.8","10:26:17","2","","","","","","","fixation","","","","","","","","","","","","","","","","","","",""
"1248","1","pic_response","html-keyboard-response","79","224476","0.0-1.0-7.0-3.0-1.8","10:26:17","2","","","","","","","<div>
            <img class='stim' src=""pictures/sports/7.jpg""></div><div class=""button_prompt"">
                        <b>请用数字键1-3回答</b>
                        </div>","","","","","","","","","","","","","","","","","","",""
"1248","null","sub_response","html-keyboard-response","80","225479","0.0-1.0-7.0-3.0-2.8","10:26:17","2","","","","","","","<div style='text-align: center;'>
                            <span style=""color: red; font-size: 40px""><b>错误！+0 pts</b></span></div>
                            ","","learn","7","7","7","learn","2","2","[0, 1, 2]","8","0","setsize","10S3A","sports","1","0","0","0",""
"null","null","fixation","html-keyboard-response","81","225980","0.0-1.0-7.0-3.0-0.9","10:26:17","2","","","","","","","fixation","","","","","","","","","","","","","","","","","","",""
"2239","3","pic_response","html-keyboard-response","82","228220","0.0-1.0-7.0-3.0-1.9","10:26:17","2","","","","","","","<div>
            <img class='stim' src=""pictures/sports/9.jpg""></div><div class=""button_prompt"">
                        <b>请用数字键1-3回答</b>
                        </div>","","","","","","","","","","","","","","","","","","",""
"2239","null","sub_response","html-keyboard-response","83","229221","0.0-1.0-7.0-3.0-2.9","10:26:17","2","","","","","","","<div style='text-align: center;'>
                            <span style=""color: green; font-size: 40px""><b>正确！+1 pts</b></span></div>
                            ","","learn","9","9","9","learn","2","2","[0, 1, 2]","9","0","setsize","10S3A","sports","1","1","2","1",""
"null","null","fixation","html-keyboard-response","84","229723","0.0-1.0-7.0-3.0-0.10","10:26:17","2","","","","","","","fixation","","","","","","","","","","","","","","","","","","",""
"593","3","pic_response","html-keyboard-response","85","230318","0.0-1.0-7.0-3.0-1.10","10:26:17","2","","","","","","","<div>
            <img class='stim' src=""pictures/sports/8.jpg""></div><div class=""button_prompt"">
                        <b>请用数字键1-3回答</b>
                        </div>","","","","","","","","","","","","","","","","","","",""
"593","null","sub_response","html-keyboard-response","86","231319","0.0-1.0-7.0-3.0-2.10","10:26:17","2","","","","","","","<div style='text-align: center;'>
                            <span style=""color: green; font-size: 40px""><b>正确！+1 pts</b></span></div>
                            ","","learn","8","8","8","learn","2","2","[0, 1, 2]","10","1","setsize","10S3A","sports","1","2","2","1",""
"null","null","fixation","html-keyboard-response","87","231820","0.0-1.0-7.0-3.0-0.11","10:26:17","2","","","","","","","fixation","","","","","","","","","","","","","","","","","","",""
"880","3","pic_response","html-keyboard-response","88","232701","0.0-1.0-7.0-3.0-1.11","10:26:17","2","","","","","","","<div>
            <img class='stim' src=""pictures/sports/6.jpg""></div><div class=""button_prompt"">
                        <b>请用数字键1-3回答</b>
                        </div>","","","","","","","","","","","","","","","","","","",""
"880","null","sub_response","html-keyboard-response","89","233702","0.0-1.0-7.0-3.0-2.11","10:26:17","2","","","","","","","<div style='text-align: center;'>
                            <span style=""color: green; font-size: 40px""><b>正确！+1 pts</b></span></div>
                            ","","learn","6","6","6","learn","2","2","[0, 1, 2]","11","1","setsize","10S3A","sports","1","3","2","1",""
"null","null","fixation","html-keyboard-response","90","234204","0.0-1.0-7.0-3.0-0.12","10:26:17","2","","","","","","","fixation","","","","","","","","","","","","","","","","","","",""
"912","2","pic_response","html-keyboard-response","91","235117","0.0-1.0-7.0-3.0-1.12","10:26:17","2","","","","","","","<div>
            <img class='stim' src=""pictures/sports/5.jpg""></div><div class=""button_prompt"">
                        <b>请用数字键1-3回答</b>
                        </div>","","","","","","","","","","","","","","","","","","",""
"912","null","sub_response","html-keyboard-response","92","236119","0.0-1.0-7.0-3.0-2.12","10:26:17","2","","","","","","","<div style='text-align: center;'>
                            <span style=""color: green; font-size: 40px""><b>正确！+1 pts</b></span></div>
                            ","","learn","5","5","5","learn","1","1","[0, 1, 2]","12","1","setsize","10S3A","sports","1","4","1","1",""
"null","null","fixation","html-keyboard-response","93","236623","0.0-1.0-7.0-3.0-0.13","10:26:17","2","","","","","","","fixation","","","","","","","","","","","","","","","","","","",""
"661","2","pic_response","html-keyboard-response","94","237285","0.0-1.0-7.0-3.0-1.13","10:26:17","2","","","","","","","<div>
            <img class='stim' src=""pictures/sports/4.jpg""></div><div class=""button_prompt"">
                        <b>请用数字键1-3回答</b>
                        </div>","","","","","","","","","","","","","","","","","","",""
"661","null","sub_response","html-keyboard-response","95","238290","0.0-1.0-7.0-3.0-2.13","10:26:17","2","","","","","","","<div style='text-align: center;'>
                            <span style=""color: green; font-size: 40px""><b>正确！+1 pts</b></span></div>
                            ","","learn","4","4","4","learn","1","1","[0, 1, 2]","13","1","setsize","10S3A","sports","1","5","1","1",""
"null","null","fixation","html-keyboard-response","96","238791","0.0-1.0-7.0-3.0-0.14","10:26:17","2","","","","","","","fixation","","","","","","","","","","","","","","","","","","",""
"589","1","pic_response","html-keyboard-response","97","239380","0.0-1.0-7.0-3.0-1.14","10:26:17","2","","","","","","","<div>
            <img class='stim' src=""pictures/sports/0.jpg""></div><div class=""button_prompt"">
                        <b>请用数字键1-3回答</b>
                        </div>","","","","","","","","","","","","","","","","","","",""
"589","null","sub_response","html-keyboard-response","98","240382","0.0-1.0-7.0-3.0-2.14","10:26:17","2","","","","","","","<div style='text-align: center;'>
                            <span style=""color: green; font-size: 40px""><b>正确！+1 pts</b></span></div>
                            ","","learn","0","0","0","learn","0","0","[0, 1, 2]","14","1","setsize","10S3A","sports","1","6","0","1",""
"null","null","fixation","html-keyboard-response","99","240883","0.0-1.0-7.0-3.0-0.15","10:26:17","2","","","","","","","fixation","","","","","","","","","","","","","","","","","","",""
"1177","2","pic_response","html-keyboard-response","100","242062","0.0-1.0-7.0-3.0-1.15","10:26:17","2","","","","","","","<div>
            <img class='stim' src=""pictures/sports/7.jpg""></div><div class=""button_prompt"">
                        <b>请用数字键1-3回答</b>
                        </div>","","","","","","","","","","","","","","","","","","",""
"1177","null","sub_response","html-keyboard-response","101","243063","0.0-1.0-7.0-3.0-2.15","10:26:17","2","","","","","","","<div style='text-align: center;'>
                            <span style=""color: red; font-size: 40px""><b>错误！+0 pts</b></span></div>
                            ","","learn","7","7","7","learn","2","2","[0, 1, 2]","15","1","setsize","10S3A","sports","1","0","1","0",""
"null","null","fixation","html-keyboard-response","102","243565","0.0-1.0-7.0-3.0-0.16","10:26:17","2","","","","","","","fixation","","","","","","","","","","","","","","","","","","",""
"1248","3","pic_response","html-keyboard-response","103","244813","0.0-1.0-7.0-3.0-1.16","10:26:17","2","","","","","","","<div>
            <img class='stim' src=""pictures/sports/9.jpg""></div><div class=""button_prompt"">
                        <b>请用数字键1-3回答</b>
                        </div>","","","","","","","","","","","","","","","","","","",""
"1248","null","sub_response","html-keyboard-response","104","245815","0.0-1.0-7.0-3.0-2.16","10:26:17","2","","","","","","","<div style='text-align: center;'>
                            <span style=""color: green; font-size: 40px""><b>正确！+1 pts</b></span></div>
                            ","","learn","9","9","9","learn","2","2","[0, 1, 2]","16","1","setsize","10S3A","sports","1","1","2","1",""
"null","null","fixation","html-keyboard-response","105","246316","0.0-1.0-7.0-3.0-0.17","10:26:17","2","","","","","","","fixation","","","","","","","","","","","","","","","","","","",""
"728","1","pic_response","html-keyboard-response","106","247044","0.0-1.0-7.0-3.0-1.17","10:26:17","2","","","","","","","<div>
            <img class='stim' src=""pictures/sports/1.jpg""></div><div class=""button_prompt"">
                        <b>请用数字键1-3回答</b>
                        </div>","","","","","","","","","","","","","","","","","","",""
"728","null","sub_response","html-keyboard-response","107","248045","0.0-1.0-7.0-3.0-2.17","10:26:17","2","","","","","","","<div style='text-align: center;'>
                            <span style=""color: green; font-size: 40px""><b>正确！+1 pts</b></span></div>
                            ","","learn","1","1","1","learn","0","0","[0, 1, 2]","17","1","setsize","10S3A","sports","1","2","0","1",""
"null","null","fixation","html-keyboard-response","108","248547","0.0-1.0-7.0-3.0-0.18","10:26:17","2","","","","","","","fixation","","","","","","","","","","","","","","","","","","",""
"689","2","pic_response","html-keyboard-response","109","249236","0.0-1.0-7.0-3.0-1.18","10:26:17","2","","","","","","","<div>
            <img class='stim' src=""pictures/sports/3.jpg""></div><div class=""button_prompt"">
                        <b>请用数字键1-3回答</b>
                        </div>","","","","","","","","","","","","","","","","","","",""
"689","null","sub_response","html-keyboard-response","110","250237","0.0-1.0-7.0-3.0-2.18","10:26:17","2","","","","","","","<div style='text-align: center;'>
                            <span style=""color: green; font-size: 40px""><b>正确！+1 pts</b></span></div>
                            ","","learn","3","3","3","learn","1","1","[0, 1, 2]","18","1","setsize","10S3A","sports","1","3","1","1",""
"null","null","fixation","html-keyboard-response","111","250738","0.0-1.0-7.0-3.0-0.19","10:26:17","2","","","","","","","fixation","","","","","","","","","","","","","","","","","","",""
"1122","1","pic_response","html-keyboard-response","112","251860","0.0-1.0-7.0-3.0-1.19","10:26:17","2","","","","","","","<div>
            <img class='stim' src=""pictures/sports/2.jpg""></div><div class=""button_prompt"">
                        <b>请用数字键1-3回答</b>
                        </div>","","","","","","","","","","","","","","","","","","",""
"1122","null","sub_response","html-keyboard-response","113","252861","0.0-1.0-7.0-3.0-2.19","10:26:17","2","","","","","","","<div style='text-align: center;'>
                            <span style=""color: green; font-size: 40px""><b>正确！+1 pts</b></span></div>
                            ","","learn","2","2","2","learn","0","0","[0, 1, 2]","19","1","setsize","10S3A","sports","1","4","0","1",""
"null","null","fixation","html-keyboard-response","114","253363","0.0-1.0-7.0-3.0-0.20","10:26:17","2","","","","","","","fixation","","","","","","","","","","","","","","","","","","",""
"698","1","pic_response","html-keyboard-response","115","254060","0.0-1.0-7.0-3.0-1.20","10:26:17","2","","","","","","","<div>
            <img class='stim' src=""pictures/sports/2.jpg""></div><div class=""button_prompt"">
                        <b>请用数字键1-3回答</b>
                        </div>","","","","","","","","","","","","","","","","","","",""
"698","null","sub_response","html-keyboard-response","116","255062","0.0-1.0-7.0-3.0-2.20","10:26:17","2","","","","","","","<div style='text-align: center;'>
                            <span style=""color: green; font-size: 40px""><b>正确！+1 pts</b></span></div>
                            ","","learn","2","2","2","learn","0","0","[0, 1, 2]","20","2","setsize","10S3A","sports","1","5","0","1",""
"null","null","fixation","html-keyboard-response","117","255563","0.0-1.0-7.0-3.0-0.21","10:26:17","2","","","","","","","fixation","","","","","","","","","","","","","","","","","","",""
"1177","2","pic_response","html-keyboard-response","118","256741","0.0-1.0-7.0-3.0-1.21","10:26:17","2","","","","","","","<div>
            <img class='stim' src=""pictures/sports/3.jpg""></div><div class=""button_prompt"">
                        <b>请用数字键1-3回答</b>
                        </div>","","","","","","","","","","","","","","","","","","",""
"1177","null","sub_response","html-keyboard-response","119","257742","0.0-1.0-7.0-3.0-2.21","10:26:17","2","","","","","","","<div style='text-align: center;'>
                            <span style=""color: green; font-size: 40px""><b>正确！+1 pts</b></span></div>
                            ","","learn","3","3","3","learn","1","1","[0, 1, 2]","21","2","setsize","10S3A","sports","1","6","1","1",""
"null","null","fixation","html-keyboard-response","120","258244","0.0-1.0-7.0-3.0-0.22","10:26:17","2","","","","","","","fixation","","","","","","","","","","","","","","","","","","",""
"null","null","pic_response","html-keyboard-response","121","261245","0.0-1.0-7.0-3.0-1.22","10:26:17","2","","","","","","","<div>
            <img class='stim' src=""pictures/sports/4.jpg""></div><div class=""button_prompt"">
                        <b>请用数字键1-3回答</b>
                        </div>","","","","","","","","","","","","","","","","","","",""
"null","null","sub_response","html-keyboard-response","122","262246","0.0-1.0-7.0-3.0-2.22","10:26:17","2","","","","","","","<div style='text-align: center;'>
                            <span style=""color: red; font-size: 40px""><b>错误！+0 pts</b></span></div>
                            ","","learn","4","4","4","learn","1","1","[0, 1, 2]","22","2","setsize","10S3A","sports","1","0","999","0",""
"null","null","fixation","html-keyboard-response","123","262748","0.0-1.0-7.0-3.0-0.23","10:26:17","2","","","","","","","fixation","","","","","","","","","","","","","","","","","","",""
"768","1","pic_response","html-keyboard-response","124","263517","0.0-1.0-7.0-3.0-1.23","10:26:17","2","","","","","","","<div>
            <img class='stim' src=""pictures/sports/1.jpg""></div><div class=""button_prompt"">
                        <b>请用数字键1-3回答</b>
                        </div>","","","","","","","","","","","","","","","","","","",""
"768","null","sub_response","html-keyboard-response","125","264518","0.0-1.0-7.0-3.0-2.23","10:26:17","2","","","","","","","<div style='text-align: center;'>
                            <span style=""color: green; font-size: 40px""><b>正确！+1 pts</b></span></div>
                            ","","learn","1","1","1","learn","0","0","[0, 1, 2]","23","2","setsize","10S3A","sports","1","1","0","1",""
"null","null","fixation","html-keyboard-response","126","265020","0.0-1.0-7.0-3.0-0.24","10:26:17","2","","","","","","","fixation","","","","","","","","","","","","","","","","","","",""
"2033","1","pic_response","html-keyboard-response","127","267055","0.0-1.0-7.0-3.0-1.24","10:26:17","2","","","","","","","<div>
            <img class='stim' src=""pictures/sports/0.jpg""></div><div class=""button_prompt"">
                        <b>请用数字键1-3回答</b>
                        </div>","","","","","","","","","","","","","","","","","","",""
"2033","null","sub_response","html-keyboard-response","128","268057","0.0-1.0-7.0-3.0-2.24","10:26:17","2","","","","","","","<div style='text-align: center;'>
                            <span style=""color: green; font-size: 40px""><b>正确！+1 pts</b></span></div>
                            ","","learn","0","0","0","learn","0","0","[0, 1, 2]","24","2","setsize","10S3A","sports","1","2","0","1",""
"null","null","fixation","html-keyboard-response","129","268558","0.0-1.0-7.0-3.0-0.25","10:26:17","2","","","","","","","fixation","","","","","","","","","","","","","","","","","","",""
"1590","3","pic_response","html-keyboard-response","130","270150","0.0-1.0-7.0-3.0-1.25","10:26:17","2","","","","","","","<div>
            <img class='stim' src=""pictures/sports/8.jpg""></div><div class=""button_prompt"">
                        <b>请用数字键1-3回答</b>
                        </div>","","","","","","","","","","","","","","","","","","",""
"1590","null","sub_response","html-keyboard-response","131","271151","0.0-1.0-7.0-3.0-2.25","10:26:17","2","","","","","","","<div style='text-align: center;'>
                            <span style=""color: green; font-size: 40px""><b>正确！+1 pts</b></span></div>
                            ","","learn","8","8","8","learn","2","2","[0, 1, 2]","25","2","setsize","10S3A","sports","1","3","2","1",""
"null","null","fixation","html-keyboard-response","132","271653","0.0-1.0-7.0-3.0-0.26","10:26:17","2","","","","","","","fixation","","","","","","","","","","","","","","","","","","",""
"848","3","pic_response","html-keyboard-response","133","272501","0.0-1.0-7.0-3.0-1.26","10:26:17","2","","","","","","","<div>
            <img class='stim' src=""pictures/sports/9.jpg""></div><div class=""button_prompt"">
                        <b>请用数字键1-3回答</b>
                        </div>","","","","","","","","","","","","","","","","","","",""
"848","null","sub_response","html-keyboard-response","134","273503","0.0-1.0-7.0-3.0-2.26","10:26:17","2","","","","","","","<div style='text-align: center;'>
                            <span style=""color: green; font-size: 40px""><b>正确！+1 pts</b></span></div>
                            ","","learn","9","9","9","learn","2","2","[0, 1, 2]","26","2","setsize","10S3A","sports","1","4","2","1",""
"null","null","fixation","html-keyboard-response","135","274005","0.0-1.0-7.0-3.0-0.27","10:26:17","2","","","","","","","fixation","","","","","","","","","","","","","","","","","","",""
"1097","3","pic_response","html-keyboard-response","136","275102","0.0-1.0-7.0-3.0-1.27","10:26:17","2","","","","","","","<div>
            <img class='stim' src=""pictures/sports/6.jpg""></div><div class=""button_prompt"">
                        <b>请用数字键1-3回答</b>
                        </div>","","","","","","","","","","","","","","","","","","",""
"1097","null","sub_response","html-keyboard-response","137","276104","0.0-1.0-7.0-3.0-2.27","10:26:17","2","","","","","","","<div style='text-align: center;'>
                            <span style=""color: green; font-size: 40px""><b>正确！+1 pts</b></span></div>
                            ","","learn","6","6","6","learn","2","2","[0, 1, 2]","27","2","setsize","10S3A","sports","1","5","2","1",""
"null","null","fixation","html-keyboard-response","138","276606","0.0-1.0-7.0-3.0-0.28","10:26:17","2","","","","","","","fixation","","","","","","","","","","","","","","","","","","",""
"1384","3","pic_response","html-keyboard-response","139","277991","0.0-1.0-7.0-3.0-1.28","10:26:17","2","","","","","","","<div>
            <img class='stim' src=""pictures/sports/7.jpg""></div><div class=""button_prompt"">
                        <b>请用数字键1-3回答</b>
                        </div>","","","","","","","","","","","","","","","","","","",""
"1384","null","sub_response","html-keyboard-response","140","278994","0.0-1.0-7.0-3.0-2.28","10:26:17","2","","","","","","","<div style='text-align: center;'>
                            <span style=""color: green; font-size: 40px""><b>正确！+1 pts</b></span></div>
                            ","","learn","7","7","7","learn","2","2","[0, 1, 2]","28","2","setsize","10S3A","sports","1","6","2","1",""
"null","null","fixation","html-keyboard-response","141","279495","0.0-1.0-7.0-3.0-0.29","10:26:17","2","","","","","","","fixation","","","","","","","","","","","","","","","","","","",""
"645","2","pic_response","html-keyboard-response","142","280141","0.0-1.0-7.0-3.0-1.29","10:26:17","2","","","","","","","<div>
            <img class='stim' src=""pictures/sports/5.jpg""></div><div class=""button_prompt"">
                        <b>请用数字键1-3回答</b>
                        </div>","","","","","","","","","","","","","","","","","","",""
"645","null","sub_response","html-keyboard-response","143","281144","0.0-1.0-7.0-3.0-2.29","10:26:17","2","","","","","","","<div style='text-align: center;'>
                            <span style=""color: green; font-size: 40px""><b>正确！+1 pts</b></span></div>
                            ","","learn","5","5","5","learn","1","1","[0, 1, 2]","29","2","setsize","10S3A","sports","1","7","1","1",""
"null","null","fixation","html-keyboard-response","144","281645","0.0-1.0-7.0-3.0-0.30","10:26:17","2","","","","","","","fixation","","","","","","","","","","","","","","","","","","",""
"551","1","pic_response","html-keyboard-response","145","282197","0.0-1.0-7.0-3.0-1.30","10:26:17","2","","","","","","","<div>
            <img class='stim' src=""pictures/sports/0.jpg""></div><div class=""button_prompt"">
                        <b>请用数字键1-3回答</b>
                        </div>","","","","","","","","","","","","","","","","","","",""
"551","null","sub_response","html-keyboard-response","146","283199","0.0-1.0-7.0-3.0-2.30","10:26:17","2","","","","","","","<div style='text-align: center;'>
                            <span style=""color: green; font-size: 40px""><b>正确！+1 pts</b></span></div>
                            ","","learn","0","0","0","learn","0","0","[0, 1, 2]","30","3","setsize","10S3A","sports","1","8","0","1",""
"null","null","fixation","html-keyboard-response","147","283700","0.0-1.0-7.0-3.0-0.31","10:26:17","2","","","","","","","fixation","","","","","","","","","","","","","","","","","","",""
"744","3","pic_response","html-keyboard-response","148","284446","0.0-1.0-7.0-3.0-1.31","10:26:17","2","","","","","","","<div>
            <img class='stim' src=""pictures/sports/6.jpg""></div><div class=""button_prompt"">
                        <b>请用数字键1-3回答</b>
                        </div>","","","","","","","","","","","","","","","","","","",""
"744","null","sub_response","html-keyboard-response","149","285448","0.0-1.0-7.0-3.0-2.31","10:26:17","2","","","","","","","<div style='text-align: center;'>
                            <span style=""color: green; font-size: 40px""><b>正确！+1 pts</b></span></div>
                            ","","learn","6","6","6","learn","2","2","[0, 1, 2]","31","3","setsize","10S3A","sports","1","9","2","1",""
"null","null","fixation","html-keyboard-response","150","285949","0.0-1.0-7.0-3.0-0.32","10:26:17","2","","","","","","","fixation","","","","","","","","","","","","","","","","","","",""
"1671","3","pic_response","html-keyboard-response","151","287621","0.0-1.0-7.0-3.0-1.32","10:26:17","2","","","","","","","<div>
            <img class='stim' src=""pictures/sports/7.jpg""></div><div class=""button_prompt"">
                        <b>请用数字键1-3回答</b>
                        </div>","","","","","","","","","","","","","","","","","","",""
"1671","null","sub_response","html-keyboard-response","152","288624","0.0-1.0-7.0-3.0-2.32","10:26:17","2","","","","","","","<div style='text-align: center;'>
                            <span style=""color: green; font-size: 40px""><b>正确！+1 pts</b></span></div>
                            ","","learn","7","7","7","learn","2","2","[0, 1, 2]","32","3","setsize","10S3A","sports","1","10","2","1",""
"null","null","fixation","html-keyboard-response","153","289125","0.0-1.0-7.0-3.0-0.33","10:26:17","2","","","","","","","fixation","","","","","","","","","","","","","","","","","","",""
"1064","1","pic_response","html-keyboard-response","154","290190","0.0-1.0-7.0-3.0-1.33","10:26:17","2","","","","","","","<div>
            <img class='stim' src=""pictures/sports/2.jpg""></div><div class=""button_prompt"">
                        <b>请用数字键1-3回答</b>
                        </div>","","","","","","","","","","","","","","","","","","",""
"1064","null","sub_response","html-keyboard-response","155","291191","0.0-1.0-7.0-3.0-2.33","10:26:17","2","","","","","","","<div style='text-align: center;'>
                            <span style=""color: green; font-size: 40px""><b>正确！+1 pts</b></span></div>
                            ","","learn","2","2","2","learn","0","0","[0, 1, 2]","33","3","setsize","10S3A","sports","1","11","0","1",""
"null","null","fixation","html-keyboard-response","156","291693","0.0-1.0-7.0-3.0-0.34","10:26:17","2","","","","","","","fixation","","","","","","","","","","","","","","","","","","",""
"487","1","pic_response","html-keyboard-response","157","292181","0.0-1.0-7.0-3.0-1.34","10:26:17","2","","","","","","","<div>
            <img class='stim' src=""pictures/sports/1.jpg""></div><div class=""button_prompt"">
                        <b>请用数字键1-3回答</b>
                        </div>","","","","","","","","","","","","","","","","","","",""
"487","null","sub_response","html-keyboard-response","158","293184","0.0-1.0-7.0-3.0-2.34","10:26:17","2","","","","","","","<div style='text-align: center;'>
                            <span style=""color: green; font-size: 40px""><b>正确！+1 pts</b></span></div>
                            ","","learn","1","1","1","learn","0","0","[0, 1, 2]","34","3","setsize","10S3A","sports","1","12","0","1",""
"null","null","fixation","html-keyboard-response","159","293685","0.0-1.0-7.0-3.0-0.35","10:26:17","2","","","","","","","fixation","","","","","","","","","","","","","","","","","","",""
"951","3","pic_response","html-keyboard-response","160","294637","0.0-1.0-7.0-3.0-1.35","10:26:17","2","","","","","","","<div>
            <img class='stim' src=""pictures/sports/9.jpg""></div><div class=""button_prompt"">
                        <b>请用数字键1-3回答</b>
                        </div>","","","","","","","","","","","","","","","","","","",""
"951","null","sub_response","html-keyboard-response","161","295639","0.0-1.0-7.0-3.0-2.35","10:26:17","2","","","","","","","<div style='text-align: center;'>
                            <span style=""color: green; font-size: 40px""><b>正确！+1 pts</b></span></div>
                            ","","learn","9","9","9","learn","2","2","[0, 1, 2]","35","3","setsize","10S3A","sports","1","13","2","1",""
"null","null","fixation","html-keyboard-response","162","296141","0.0-1.0-7.0-3.0-0.36","10:26:17","2","","","","","","","fixation","","","","","","","","","","","","","","","","","","",""
"656","3","pic_response","html-keyboard-response","163","296798","0.0-1.0-7.0-3.0-1.36","10:26:17","2","","","","","","","<div>
            <img class='stim' src=""pictures/sports/8.jpg""></div><div class=""button_prompt"">
                        <b>请用数字键1-3回答</b>
                        </div>","","","","","","","","","","","","","","","","","","",""
"656","null","sub_response","html-keyboard-response","164","297799","0.0-1.0-7.0-3.0-2.36","10:26:17","2","","","","","","","<div style='text-align: center;'>
                            <span style=""color: green; font-size: 40px""><b>正确！+1 pts</b></span></div>
                            ","","learn","8","8","8","learn","2","2","[0, 1, 2]","36","3","setsize","10S3A","sports","1","14","2","1",""
"null","null","fixation","html-keyboard-response","165","298300","0.0-1.0-7.0-3.0-0.37","10:26:17","2","","","","","","","fixation","","","","","","","","","","","","","","","","","","",""
"512","2","pic_response","html-keyboard-response","166","298814","0.0-1.0-7.0-3.0-1.37","10:26:17","2","","","","","","","<div>
            <img class='stim' src=""pictures/sports/4.jpg""></div><div class=""button_prompt"">
                        <b>请用数字键1-3回答</b>
                        </div>","","","","","","","","","","","","","","","","","","",""
"512","null","sub_response","html-keyboard-response","167","299815","0.0-1.0-7.0-3.0-2.37","10:26:17","2","","","","","","","<div style='text-align: center;'>
                            <span style=""color: green; font-size: 40px""><b>正确！+1 pts</b></span></div>
                            ","","learn","4","4","4","learn","1","1","[0, 1, 2]","37","3","setsize","10S3A","sports","1","15","1","1",""
"null","null","fixation","html-keyboard-response","168","300317","0.0-1.0-7.0-3.0-0.38","10:26:17","2","","","","","","","fixation","","","","","","","","","","","","","","","","","","",""
"584","2","pic_response","html-keyboard-response","169","300902","0.0-1.0-7.0-3.0-1.38","10:26:17","2","","","","","","","<div>
            <img class='stim' src=""pictures/sports/5.jpg""></div><div class=""button_prompt"">
                        <b>请用数字键1-3回答</b>
                        </div>","","","","","","","","","","","","","","","","","","",""
"584","null","sub_response","html-keyboard-response","170","301903","0.0-1.0-7.0-3.0-2.38","10:26:17","2","","","","","","","<div style='text-align: center;'>
                            <span style=""color: green; font-size: 40px""><b>正确！+1 pts</b></span></div>
                            ","","learn","5","5","5","learn","1","1","[0, 1, 2]","38","3","setsize","10S3A","sports","1","16","1","1",""
"null","null","fixation","html-keyboard-response","171","302404","0.0-1.0-7.0-3.0-0.39","10:26:17","2","","","","","","","fixation","","","","","","","","","","","","","","","","","","",""
"544","2","pic_response","html-keyboard-response","172","302950","0.0-1.0-7.0-3.0-1.39","10:26:17","2","","","","","","","<div>
            <img class='stim' src=""pictures/sports/3.jpg""></div><div class=""button_prompt"">
                        <b>请用数字键1-3回答</b>
                        </div>","","","","","","","","","","","","","","","","","","",""
"544","null","sub_response","html-keyboard-response","173","303951","0.0-1.0-7.0-3.0-2.39","10:26:17","2","","","","","","","<div style='text-align: center;'>
                            <span style=""color: green; font-size: 40px""><b>正确！+1 pts</b></span></div>
                            ","","learn","3","3","3","learn","1","1","[0, 1, 2]","39","3","setsize","10S3A","sports","1","17","1","1",""
"null","null","fixation","html-keyboard-response","174","304453","0.0-1.0-7.0-3.0-0.40","10:26:17","2","","","","","","","fixation","","","","","","","","","","","","","","","","","","",""
"560","2","pic_response","html-keyboard-response","175","305014","0.0-1.0-7.0-3.0-1.40","10:26:17","2","","","","","","","<div>
            <img class='stim' src=""pictures/sports/4.jpg""></div><div class=""button_prompt"">
                        <b>请用数字键1-3回答</b>
                        </div>","","","","","","","","","","","","","","","","","","",""
"560","null","sub_response","html-keyboard-response","176","306015","0.0-1.0-7.0-3.0-2.40","10:26:17","2","","","","","","","<div style='text-align: center;'>
                            <span style=""color: green; font-size: 40px""><b>正确！+1 pts</b></span></div>
                            ","","learn","4","4","4","learn","1","1","[0, 1, 2]","40","4","setsize","10S3A","sports","1","18","1","1",""
"null","null","fixation","html-keyboard-response","177","306518","0.0-1.0-7.0-3.0-0.41","10:26:17","2","","","","","","","fixation","","","","","","","","","","","","","","","","","","",""
"520","2","pic_response","html-keyboard-response","178","307038","0.0-1.0-7.0-3.0-1.41","10:26:17","2","","","","","","","<div>
            <img class='stim' src=""pictures/sports/3.jpg""></div><div class=""button_prompt"">
                        <b>请用数字键1-3回答</b>
                        </div>","","","","","","","","","","","","","","","","","","",""
"520","null","sub_response","html-keyboard-response","179","308041","0.0-1.0-7.0-3.0-2.41","10:26:17","2","","","","","","","<div style='text-align: center;'>
                            <span style=""color: green; font-size: 40px""><b>正确！+1 pts</b></span></div>
                            ","","learn","3","3","3","learn","1","1","[0, 1, 2]","41","4","setsize","10S3A","sports","1","19","1","1",""
"null","null","fixation","html-keyboard-response","180","308542","0.0-1.0-7.0-3.0-0.42","10:26:17","2","","","","","","","fixation","","","","","","","","","","","","","","","","","","",""
"558","3","pic_response","html-keyboard-response","181","309100","0.0-1.0-7.0-3.0-1.42","10:26:17","2","","","","","","","<div>
            <img class='stim' src=""pictures/sports/7.jpg""></div><div class=""button_prompt"">
                        <b>请用数字键1-3回答</b>
                        </div>","","","","","","","","","","","","","","","","","","",""
"558","null","sub_response","html-keyboard-response","182","310102","0.0-1.0-7.0-3.0-2.42","10:26:17","2","","","","","","","<div style='text-align: center;'>
                            <span style=""color: green; font-size: 40px""><b>正确！+1 pts</b></span></div>
                            ","","learn","7","7","7","learn","2","2","[0, 1, 2]","42","4","setsize","10S3A","sports","1","20","2","1",""
"null","null","fixation","html-keyboard-response","183","310603","0.0-1.0-7.0-3.0-0.43","10:26:17","2","","","","","","","fixation","","","","","","","","","","","","","","","","","","",""
"514","1","pic_response","html-keyboard-response","184","311118","0.0-1.0-7.0-3.0-1.43","10:26:17","2","","","","","","","<div>
            <img class='stim' src=""pictures/sports/2.jpg""></div><div class=""button_prompt"">
                        <b>请用数字键1-3回答</b>
                        </div>","","","","","","","","","","","","","","","","","","",""
"514","null","sub_response","html-keyboard-response","185","312120","0.0-1.0-7.0-3.0-2.43","10:26:17","2","","","","","","","<div style='text-align: center;'>
                            <span style=""color: green; font-size: 40px""><b>正确！+1 pts</b></span></div>
                            ","","learn","2","2","2","learn","0","0","[0, 1, 2]","43","4","setsize","10S3A","sports","1","21","0","1",""
"null","null","fixation","html-keyboard-response","186","312621","0.0-1.0-7.0-3.0-0.44","10:26:17","2","","","","","","","fixation","","","","","","","","","","","","","","","","","","",""
"599","2","pic_response","html-keyboard-response","187","313222","0.0-1.0-7.0-3.0-1.44","10:26:17","2","","","","","","","<div>
            <img class='stim' src=""pictures/sports/5.jpg""></div><div class=""button_prompt"">
                        <b>请用数字键1-3回答</b>
                        </div>","","","","","","","","","","","","","","","","","","",""
"599","null","sub_response","html-keyboard-response","188","314223","0.0-1.0-7.0-3.0-2.44","10:26:17","2","","","","","","","<div style='text-align: center;'>
                            <span style=""color: green; font-size: 40px""><b>正确！+1 pts</b></span></div>
                            ","","learn","5","5","5","learn","1","1","[0, 1, 2]","44","4","setsize","10S3A","sports","1","22","1","1",""
"null","null","fixation","html-keyboard-response","189","314724","0.0-1.0-7.0-3.0-0.45","10:26:17","2","","","","","","","fixation","","","","","","","","","","","","","","","","","","",""
"576","3","pic_response","html-keyboard-response","190","315302","0.0-1.0-7.0-3.0-1.45","10:26:17","2","","","","","","","<div>
            <img class='stim' src=""pictures/sports/8.jpg""></div><div class=""button_prompt"">
                        <b>请用数字键1-3回答</b>
                        </div>","","","","","","","","","","","","","","","","","","",""
"576","null","sub_response","html-keyboard-response","191","316304","0.0-1.0-7.0-3.0-2.45","10:26:17","2","","","","","","","<div style='text-align: center;'>
                            <span style=""color: green; font-size: 40px""><b>正确！+1 pts</b></span></div>
                            ","","learn","8","8","8","learn","2","2","[0, 1, 2]","45","4","setsize","10S3A","sports","1","23","2","1",""
"null","null","fixation","html-keyboard-response","192","316806","0.0-1.0-7.0-3.0-0.46","10:26:17","2","","","","","","","fixation","","","","","","","","","","","","","","","","","","",""
"855","1","pic_response","html-keyboard-response","193","317661","0.0-1.0-7.0-3.0-1.46","10:26:17","2","","","","","","","<div>
            <img class='stim' src=""pictures/sports/1.jpg""></div><div class=""button_prompt"">
                        <b>请用数字键1-3回答</b>
                        </div>","","","","","","","","","","","","","","","","","","",""
"855","null","sub_response","html-keyboard-response","194","318663","0.0-1.0-7.0-3.0-2.46","10:26:17","2","","","","","","","<div style='text-align: center;'>
                            <span style=""color: green; font-size: 40px""><b>正确！+1 pts</b></span></div>
                            ","","learn","1","1","1","learn","0","0","[0, 1, 2]","46","4","setsize","10S3A","sports","1","24","0","1",""
"null","null","fixation","html-keyboard-response","195","319164","0.0-1.0-7.0-3.0-0.47","10:26:17","2","","","","","","","fixation","","","","","","","","","","","","","","","","","","",""
"768","3","pic_response","html-keyboard-response","196","319933","0.0-1.0-7.0-3.0-1.47","10:26:17","2","","","","","","","<div>
            <img class='stim' src=""pictures/sports/9.jpg""></div><div class=""button_prompt"">
                        <b>请用数字键1-3回答</b>
                        </div>","","","","","","","","","","","","","","","","","","",""
"768","null","sub_response","html-keyboard-response","197","320935","0.0-1.0-7.0-3.0-2.47","10:26:17","2","","","","","","","<div style='text-align: center;'>
                            <span style=""color: green; font-size: 40px""><b>正确！+1 pts</b></span></div>
                            ","","learn","9","9","9","learn","2","2","[0, 1, 2]","47","4","setsize","10S3A","sports","1","25","2","1",""
"null","null","fixation","html-keyboard-response","198","321436","0.0-1.0-7.0-3.0-0.48","10:26:17","2","","","","","","","fixation","","","","","","","","","","","","","","","","","","",""
"569","1","pic_response","html-keyboard-response","199","322006","0.0-1.0-7.0-3.0-1.48","10:26:17","2","","","","","","","<div>
            <img class='stim' src=""pictures/sports/0.jpg""></div><div class=""button_prompt"">
                        <b>请用数字键1-3回答</b>
                        </div>","","","","","","","","","","","","","","","","","","",""
"569","null","sub_response","html-keyboard-response","200","323007","0.0-1.0-7.0-3.0-2.48","10:26:17","2","","","","","","","<div style='text-align: center;'>
                            <span style=""color: green; font-size: 40px""><b>正确！+1 pts</b></span></div>
                            ","","learn","0","0","0","learn","0","0","[0, 1, 2]","48","4","setsize","10S3A","sports","1","26","0","1",""
"null","null","fixation","html-keyboard-response","201","323509","0.0-1.0-7.0-3.0-0.49","10:26:17","2","","","","","","","fixation","","","","","","","","","","","","","","","","","","",""
"1000","3","pic_response","html-keyboard-response","202","324511","0.0-1.0-7.0-3.0-1.49","10:26:17","2","","","","","","","<div>
            <img class='stim' src=""pictures/sports/6.jpg""></div><div class=""button_prompt"">
                        <b>请用数字键1-3回答</b>
                        </div>","","","","","","","","","","","","","","","","","","",""
"1000","null","sub_response","html-keyboard-response","203","325513","0.0-1.0-7.0-3.0-2.49","10:26:17","2","","","","","","","<div style='text-align: center;'>
                            <span style=""color: green; font-size: 40px""><b>正确！+1 pts</b></span></div>
                            ","","learn","6","6","6","learn","2","2","[0, 1, 2]","49","4","setsize","10S3A","sports","1","27","2","1",""
"null","null","fixation","html-keyboard-response","204","326014","0.0-1.0-7.0-3.0-0.50","10:26:17","2","","","","","","","fixation","","","","","","","","","","","","","","","","","","",""
"542","1","pic_response","html-keyboard-response","205","326558","0.0-1.0-7.0-3.0-1.50","10:26:17","2","","","","","","","<div>
            <img class='stim' src=""pictures/sports/0.jpg""></div><div class=""button_prompt"">
                        <b>请用数字键1-3回答</b>
                        </div>","","","","","","","","","","","","","","","","","","",""
"542","null","sub_response","html-keyboard-response","206","327559","0.0-1.0-7.0-3.0-2.50","10:26:17","2","","","","","","","<div style='text-align: center;'>
                            <span style=""color: green; font-size: 40px""><b>正确！+1 pts</b></span></div>
                            ","","learn","0","0","0","learn","0","0","[0, 1, 2]","50","5","setsize","10S3A","sports","1","28","0","1",""
"null","null","fixation","html-keyboard-response","207","328060","0.0-1.0-7.0-3.0-0.51","10:26:17","2","","","","","","","fixation","","","","","","","","","","","","","","","","","","",""
"704","3","pic_response","html-keyboard-response","208","328766","0.0-1.0-7.0-3.0-1.51","10:26:17","2","","","","","","","<div>
            <img class='stim' src=""pictures/sports/6.jpg""></div><div class=""button_prompt"">
                        <b>请用数字键1-3回答</b>
                        </div>","","","","","","","","","","","","","","","","","","",""
"704","null","sub_response","html-keyboard-response","209","329767","0.0-1.0-7.0-3.0-2.51","10:26:17","2","","","","","","","<div style='text-align: center;'>
                            <span style=""color: green; font-size: 40px""><b>正确！+1 pts</b></span></div>
                            ","","learn","6","6","6","learn","2","2","[0, 1, 2]","51","5","setsize","10S3A","sports","1","29","2","1",""
"null","null","fixation","html-keyboard-response","210","330268","0.0-1.0-7.0-3.0-0.52","10:26:17","2","","","","","","","fixation","","","","","","","","","","","","","","","","","","",""
"624","2","pic_response","html-keyboard-response","211","330894","0.0-1.0-7.0-3.0-1.52","10:26:17","2","","","","","","","<div>
            <img class='stim' src=""pictures/sports/3.jpg""></div><div class=""button_prompt"">
                        <b>请用数字键1-3回答</b>
                        </div>","","","","","","","","","","","","","","","","","","",""
"624","null","sub_response","html-keyboard-response","212","331895","0.0-1.0-7.0-3.0-2.52","10:26:17","2","","","","","","","<div style='text-align: center;'>
                            <span style=""color: green; font-size: 40px""><b>正确！+1 pts</b></span></div>
                            ","","learn","3","3","3","learn","1","1","[0, 1, 2]","52","5","setsize","10S3A","sports","1","30","1","1",""
"null","null","fixation","html-keyboard-response","213","332397","0.0-1.0-7.0-3.0-0.53","10:26:17","2","","","","","","","fixation","","","","","","","","","","","","","","","","","","",""
"657","1","pic_response","html-keyboard-response","214","333055","0.0-1.0-7.0-3.0-1.53","10:26:17","2","","","","","","","<div>
            <img class='stim' src=""pictures/sports/1.jpg""></div><div class=""button_prompt"">
                        <b>请用数字键1-3回答</b>
                        </div>","","","","","","","","","","","","","","","","","","",""
"657","null","sub_response","html-keyboard-response","215","334057","0.0-1.0-7.0-3.0-2.53","10:26:17","2","","","","","","","<div style='text-align: center;'>
                            <span style=""color: green; font-size: 40px""><b>正确！+1 pts</b></span></div>
                            ","","learn","1","1","1","learn","0","0","[0, 1, 2]","53","5","setsize","10S3A","sports","1","31","0","1",""
"null","null","fixation","html-keyboard-response","216","334559","0.0-1.0-7.0-3.0-0.54","10:26:17","2","","","","","","","fixation","","","","","","","","","","","","","","","","","","",""
"590","2","pic_response","html-keyboard-response","217","335150","0.0-1.0-7.0-3.0-1.54","10:26:17","2","","","","","","","<div>
            <img class='stim' src=""pictures/sports/4.jpg""></div><div class=""button_prompt"">
                        <b>请用数字键1-3回答</b>
                        </div>","","","","","","","","","","","","","","","","","","",""
"590","null","sub_response","html-keyboard-response","218","336152","0.0-1.0-7.0-3.0-2.54","10:26:17","2","","","","","","","<div style='text-align: center;'>
                            <span style=""color: green; font-size: 40px""><b>正确！+1 pts</b></span></div>
                            ","","learn","4","4","4","learn","1","1","[0, 1, 2]","54","5","setsize","10S3A","sports","1","32","1","1",""
"null","null","fixation","html-keyboard-response","219","336653","0.0-1.0-7.0-3.0-0.55","10:26:17","2","","","","","","","fixation","","","","","","","","","","","","","","","","","","",""
"535","3","pic_response","html-keyboard-response","220","337189","0.0-1.0-7.0-3.0-1.55","10:26:17","2","","","","","","","<div>
            <img class='stim' src=""pictures/sports/8.jpg""></div><div class=""button_prompt"">
                        <b>请用数字键1-3回答</b>
                        </div>","","","","","","","","","","","","","","","","","","",""
"535","null","sub_response","html-keyboard-response","221","338191","0.0-1.0-7.0-3.0-2.55","10:26:17","2","","","","","","","<div style='text-align: center;'>
                            <span style=""color: green; font-size: 40px""><b>正确！+1 pts</b></span></div>
                            ","","learn","8","8","8","learn","2","2","[0, 1, 2]","55","5","setsize","10S3A","sports","1","33","2","1",""
"null","null","fixation","html-keyboard-response","222","338693","0.0-1.0-7.0-3.0-0.56","10:26:17","2","","","","","","","fixation","","","","","","","","","","","","","","","","","","",""
"487","2","pic_response","html-keyboard-response","223","339182","0.0-1.0-7.0-3.0-1.56","10:26:17","2","","","","","","","<div>
            <img class='stim' src=""pictures/sports/5.jpg""></div><div class=""button_prompt"">
                        <b>请用数字键1-3回答</b>
                        </div>","","","","","","","","","","","","","","","","","","",""
"487","null","sub_response","html-keyboard-response","224","340184","0.0-1.0-7.0-3.0-2.56","10:26:17","2","","","","","","","<div style='text-align: center;'>
                            <span style=""color: green; font-size: 40px""><b>正确！+1 pts</b></span></div>
                            ","","learn","5","5","5","learn","1","1","[0, 1, 2]","56","5","setsize","10S3A","sports","1","34","1","1",""
"null","null","fixation","html-keyboard-response","225","340685","0.0-1.0-7.0-3.0-0.57","10:26:17","2","","","","","","","fixation","","","","","","","","","","","","","","","","","","",""
"711","3","pic_response","html-keyboard-response","226","341397","0.0-1.0-7.0-3.0-1.57","10:26:17","2","","","","","","","<div>
            <img class='stim' src=""pictures/sports/7.jpg""></div><div class=""button_prompt"">
                        <b>请用数字键1-3回答</b>
                        </div>","","","","","","","","","","","","","","","","","","",""
"711","null","sub_response","html-keyboard-response","227","342399","0.0-1.0-7.0-3.0-2.57","10:26:17","2","","","","","","","<div style='text-align: center;'>
                            <span style=""color: green; font-size: 40px""><b>正确！+1 pts</b></span></div>
                            ","","learn","7","7","7","learn","2","2","[0, 1, 2]","57","5","setsize","10S3A","sports","1","35","2","1",""
"null","null","fixation","html-keyboard-response","228","342900","0.0-1.0-7.0-3.0-0.58","10:26:17","2","","","","","","","fixation","","","","","","","","","","","","","","","","","","",""
"641","1","pic_response","html-keyboard-response","229","343542","0.0-1.0-7.0-3.0-1.58","10:26:17","2","","","","","","","<div>
            <img class='stim' src=""pictures/sports/2.jpg""></div><div class=""button_prompt"">
                        <b>请用数字键1-3回答</b>
                        </div>","","","","","","","","","","","","","","","","","","",""
"641","null","sub_response","html-keyboard-response","230","344543","0.0-1.0-7.0-3.0-2.58","10:26:17","2","","","","","","","<div style='text-align: center;'>
                            <span style=""color: green; font-size: 40px""><b>正确！+1 pts</b></span></div>
                            ","","learn","2","2","2","learn","0","0","[0, 1, 2]","58","5","setsize","10S3A","sports","1","36","0","1",""
"null","null","fixation","html-keyboard-response","231","345045","0.0-1.0-7.0-3.0-0.59","10:26:17","2","","","","","","","fixation","","","","","","","","","","","","","","","","","","",""
"576","3","pic_response","html-keyboard-response","232","345621","0.0-1.0-7.0-3.0-1.59","10:26:17","2","","","","","","","<div>
            <img class='stim' src=""pictures/sports/9.jpg""></div><div class=""button_prompt"">
                        <b>请用数字键1-3回答</b>
                        </div>","","","","","","","","","","","","","","","","","","",""
"576","null","sub_response","html-keyboard-response","233","346623","0.0-1.0-7.0-3.0-2.59","10:26:17","2","","","","","","","<div style='text-align: center;'>
                            <span style=""color: green; font-size: 40px""><b>正确！+1 pts</b></span></div>
                            ","","learn","9","9","9","learn","2","2","[0, 1, 2]","59","5","setsize","10S3A","sports","1","37","2","1",""
"null","null","fixation","html-keyboard-response","234","347124","0.0-1.0-7.0-3.0-0.60","10:26:17","2","","","","","","","fixation","","","","","","","","","","","","","","","","","","",""
"592","1","pic_response","html-keyboard-response","235","347718","0.0-1.0-7.0-3.0-1.60","10:26:17","2","","","","","","","<div>
            <img class='stim' src=""pictures/sports/0.jpg""></div><div class=""button_prompt"">
                        <b>请用数字键1-3回答</b>
                        </div>","","","","","","","","","","","","","","","","","","",""
"592","null","sub_response","html-keyboard-response","236","348718","0.0-1.0-7.0-3.0-2.60","10:26:17","2","","","","","","","<div style='text-align: center;'>
                            <span style=""color: green; font-size: 40px""><b>正确！+1 pts</b></span></div>
                            ","","learn","0","0","0","learn","0","0","[0, 1, 2]","60","6","setsize","10S3A","sports","1","38","0","1",""
"null","null","fixation","html-keyboard-response","237","349220","0.0-1.0-7.0-3.0-0.61","10:26:17","2","","","","","","","fixation","","","","","","","","","","","","","","","","","","",""
"608","1","pic_response","html-keyboard-response","238","349829","0.0-1.0-7.0-3.0-1.61","10:26:17","2","","","","","","","<div>
            <img class='stim' src=""pictures/sports/1.jpg""></div><div class=""button_prompt"">
                        <b>请用数字键1-3回答</b>
                        </div>","","","","","","","","","","","","","","","","","","",""
"608","null","sub_response","html-keyboard-response","239","350831","0.0-1.0-7.0-3.0-2.61","10:26:17","2","","","","","","","<div style='text-align: center;'>
                            <span style=""color: green; font-size: 40px""><b>正确！+1 pts</b></span></div>
                            ","","learn","1","1","1","learn","0","0","[0, 1, 2]","61","6","setsize","10S3A","sports","1","39","0","1",""
"null","null","fixation","html-keyboard-response","240","351333","0.0-1.0-7.0-3.0-0.62","10:26:17","2","","","","","","","fixation","","","","","","","","","","","","","","","","","","",""
"472","3","pic_response","html-keyboard-response","241","351805","0.0-1.0-7.0-3.0-1.62","10:26:17","2","","","","","","","<div>
            <img class='stim' src=""pictures/sports/8.jpg""></div><div class=""button_prompt"">
                        <b>请用数字键1-3回答</b>
                        </div>","","","","","","","","","","","","","","","","","","",""
"472","null","sub_response","html-keyboard-response","242","352807","0.0-1.0-7.0-3.0-2.62","10:26:17","2","","","","","","","<div style='text-align: center;'>
                            <span style=""color: green; font-size: 40px""><b>正确！+1 pts</b></span></div>
                            ","","learn","8","8","8","learn","2","2","[0, 1, 2]","62","6","setsize","10S3A","sports","1","40","2","1",""
"null","null","fixation","html-keyboard-response","243","353309","0.0-1.0-7.0-3.0-0.63","10:26:17","2","","","","","","","fixation","","","","","","","","","","","","","","","","","","",""
"904","3","pic_response","html-keyboard-response","244","354214","0.0-1.0-7.0-3.0-1.63","10:26:17","2","","","","","","","<div>
            <img class='stim' src=""pictures/sports/7.jpg""></div><div class=""button_prompt"">
                        <b>请用数字键1-3回答</b>
                        </div>","","","","","","","","","","","","","","","","","","",""
"904","null","sub_response","html-keyboard-response","245","355216","0.0-1.0-7.0-3.0-2.63","10:26:17","2","","","","","","","<div style='text-align: center;'>
                            <span style=""color: green; font-size: 40px""><b>正确！+1 pts</b></span></div>
                            ","","learn","7","7","7","learn","2","2","[0, 1, 2]","63","6","setsize","10S3A","sports","1","41","2","1",""
"null","null","fixation","html-keyboard-response","246","355717","0.0-1.0-7.0-3.0-0.64","10:26:17","2","","","","","","","fixation","","","","","","","","","","","","","","","","","","",""
"616","1","pic_response","html-keyboard-response","247","356334","0.0-1.0-7.0-3.0-1.64","10:26:17","2","","","","","","","<div>
            <img class='stim' src=""pictures/sports/2.jpg""></div><div class=""button_prompt"">
                        <b>请用数字键1-3回答</b>
                        </div>","","","","","","","","","","","","","","","","","","",""
"616","null","sub_response","html-keyboard-response","248","357336","0.0-1.0-7.0-3.0-2.64","10:26:17","2","","","","","","","<div style='text-align: center;'>
                            <span style=""color: green; font-size: 40px""><b>正确！+1 pts</b></span></div>
                            ","","learn","2","2","2","learn","0","0","[0, 1, 2]","64","6","setsize","10S3A","sports","1","42","0","1",""
"null","null","fixation","html-keyboard-response","249","357838","0.0-1.0-7.0-3.0-0.65","10:26:17","2","","","","","","","fixation","","","","","","","","","","","","","","","","","","",""
"831","2","pic_response","html-keyboard-response","250","358670","0.0-1.0-7.0-3.0-1.65","10:26:17","2","","","","","","","<div>
            <img class='stim' src=""pictures/sports/4.jpg""></div><div class=""button_prompt"">
                        <b>请用数字键1-3回答</b>
                        </div>","","","","","","","","","","","","","","","","","","",""
"831","null","sub_response","html-keyboard-response","251","359672","0.0-1.0-7.0-3.0-2.65","10:26:17","2","","","","","","","<div style='text-align: center;'>
                            <span style=""color: green; font-size: 40px""><b>正确！+1 pts</b></span></div>
                            ","","learn","4","4","4","learn","1","1","[0, 1, 2]","65","6","setsize","10S3A","sports","1","43","1","1",""
"null","null","fixation","html-keyboard-response","252","360173","0.0-1.0-7.0-3.0-0.66","10:26:17","2","","","","","","","fixation","","","","","","","","","","","","","","","","","","",""
"631","3","pic_response","html-keyboard-response","253","360806","0.0-1.0-7.0-3.0-1.66","10:26:17","2","","","","","","","<div>
            <img class='stim' src=""pictures/sports/9.jpg""></div><div class=""button_prompt"">
                        <b>请用数字键1-3回答</b>
                        </div>","","","","","","","","","","","","","","","","","","",""
"631","null","sub_response","html-keyboard-response","254","361807","0.0-1.0-7.0-3.0-2.66","10:26:17","2","","","","","","","<div style='text-align: center;'>
                            <span style=""color: green; font-size: 40px""><b>正确！+1 pts</b></span></div>
                            ","","learn","9","9","9","learn","2","2","[0, 1, 2]","66","6","setsize","10S3A","sports","1","44","2","1",""
"null","null","fixation","html-keyboard-response","255","362309","0.0-1.0-7.0-3.0-0.67","10:26:17","2","","","","","","","fixation","","","","","","","","","","","","","","","","","","",""
"840","2","pic_response","html-keyboard-response","256","363149","0.0-1.0-7.0-3.0-1.67","10:26:17","2","","","","","","","<div>
            <img class='stim' src=""pictures/sports/5.jpg""></div><div class=""button_prompt"">
                        <b>请用数字键1-3回答</b>
                        </div>","","","","","","","","","","","","","","","","","","",""
"840","null","sub_response","html-keyboard-response","257","364152","0.0-1.0-7.0-3.0-2.67","10:26:17","2","","","","","","","<div style='text-align: center;'>
                            <span style=""color: green; font-size: 40px""><b>正确！+1 pts</b></span></div>
                            ","","learn","5","5","5","learn","1","1","[0, 1, 2]","67","6","setsize","10S3A","sports","1","45","1","1",""
"null","null","fixation","html-keyboard-response","258","364653","0.0-1.0-7.0-3.0-0.68","10:26:17","2","","","","","","","fixation","","","","","","","","","","","","","","","","","","",""
"1400","3","pic_response","html-keyboard-response","259","366054","0.0-1.0-7.0-3.0-1.68","10:26:17","2","","","","","","","<div>
            <img class='stim' src=""pictures/sports/6.jpg""></div><div class=""button_prompt"">
                        <b>请用数字键1-3回答</b>
                        </div>","","","","","","","","","","","","","","","","","","",""
"1400","null","sub_response","html-keyboard-response","260","367055","0.0-1.0-7.0-3.0-2.68","10:26:17","2","","","","","","","<div style='text-align: center;'>
                            <span style=""color: green; font-size: 40px""><b>正确！+1 pts</b></span></div>
                            ","","learn","6","6","6","learn","2","2","[0, 1, 2]","68","6","setsize","10S3A","sports","1","46","2","1",""
"null","null","fixation","html-keyboard-response","261","367557","0.0-1.0-7.0-3.0-0.69","10:26:17","2","","","","","","","fixation","","","","","","","","","","","","","","","","","","",""
"912","2","pic_response","html-keyboard-response","262","368470","0.0-1.0-7.0-3.0-1.69","10:26:17","2","","","","","","","<div>
            <img class='stim' src=""pictures/sports/3.jpg""></div><div class=""button_prompt"">
                        <b>请用数字键1-3回答</b>
                        </div>","","","","","","","","","","","","","","","","","","",""
"912","null","sub_response","html-keyboard-response","263","369471","0.0-1.0-7.0-3.0-2.69","10:26:17","2","","","","","","","<div style='text-align: center;'>
                            <span style=""color: green; font-size: 40px""><b>正确！+1 pts</b></span></div>
                            ","","learn","3","3","3","learn","1","1","[0, 1, 2]","69","6","setsize","10S3A","sports","1","47","1","1",""
"null","null","fixation","html-keyboard-response","264","369972","0.0-1.0-7.0-3.0-0.70","10:26:17","2","","","","","","","fixation","","","","","","","","","","","","","","","","","","",""
"1425","3","pic_response","html-keyboard-response","265","371398","0.0-1.0-7.0-3.0-1.70","10:26:17","2","","","","","","","<div>
            <img class='stim' src=""pictures/sports/8.jpg""></div><div class=""button_prompt"">
                        <b>请用数字键1-3回答</b>
                        </div>","","","","","","","","","","","","","","","","","","",""
"1425","null","sub_response","html-keyboard-response","266","372400","0.0-1.0-7.0-3.0-2.70","10:26:17","2","","","","","","","<div style='text-align: center;'>
                            <span style=""color: green; font-size: 40px""><b>正确！+1 pts</b></span></div>
                            ","","learn","8","8","8","learn","2","2","[0, 1, 2]","70","7","setsize","10S3A","sports","1","48","2","1",""
"null","null","fixation","html-keyboard-response","267","372901","0.0-1.0-7.0-3.0-0.71","10:26:17","2","","","","","","","fixation","","","","","","","","","","","","","","","","","","",""
"1247","2","pic_response","html-keyboard-response","268","374150","0.0-1.0-7.0-3.0-1.71","10:26:17","2","","","","","","","<div>
            <img class='stim' src=""pictures/sports/4.jpg""></div><div class=""button_prompt"">
                        <b>请用数字键1-3回答</b>
                        </div>","","","","","","","","","","","","","","","","","","",""
"1247","null","sub_response","html-keyboard-response","269","375152","0.0-1.0-7.0-3.0-2.71","10:26:17","2","","","","","","","<div style='text-align: center;'>
                            <span style=""color: green; font-size: 40px""><b>正确！+1 pts</b></span></div>
                            ","","learn","4","4","4","learn","1","1","[0, 1, 2]","71","7","setsize","10S3A","sports","1","49","1","1",""
"null","null","fixation","html-keyboard-response","270","375653","0.0-1.0-7.0-3.0-0.72","10:26:17","2","","","","","","","fixation","","","","","","","","","","","","","","","","","","",""
"703","2","pic_response","html-keyboard-response","271","376358","0.0-1.0-7.0-3.0-1.72","10:26:17","2","","","","","","","<div>
            <img class='stim' src=""pictures/sports/3.jpg""></div><div class=""button_prompt"">
                        <b>请用数字键1-3回答</b>
                        </div>","","","","","","","","","","","","","","","","","","",""
"703","null","sub_response","html-keyboard-response","272","377360","0.0-1.0-7.0-3.0-2.72","10:26:17","2","","","","","","","<div style='text-align: center;'>
                            <span style=""color: green; font-size: 40px""><b>正确！+1 pts</b></span></div>
                            ","","learn","3","3","3","learn","1","1","[0, 1, 2]","72","7","setsize","10S3A","sports","1","50","1","1",""
"null","null","fixation","html-keyboard-response","273","377861","0.0-1.0-7.0-3.0-0.73","10:26:17","2","","","","","","","fixation","","","","","","","","","","","","","","","","","","",""
"871","3","pic_response","html-keyboard-response","274","378734","0.0-1.0-7.0-3.0-1.73","10:26:17","2","","","","","","","<div>
            <img class='stim' src=""pictures/sports/9.jpg""></div><div class=""button_prompt"">
                        <b>请用数字键1-3回答</b>
                        </div>","","","","","","","","","","","","","","","","","","",""
"871","null","sub_response","html-keyboard-response","275","379736","0.0-1.0-7.0-3.0-2.73","10:26:17","2","","","","","","","<div style='text-align: center;'>
                            <span style=""color: green; font-size: 40px""><b>正确！+1 pts</b></span></div>
                            ","","learn","9","9","9","learn","2","2","[0, 1, 2]","73","7","setsize","10S3A","sports","1","51","2","1",""
"null","null","fixation","html-keyboard-response","276","380237","0.0-1.0-7.0-3.0-0.74","10:26:17","2","","","","","","","fixation","","","","","","","","","","","","","","","","","","",""
"615","3","pic_response","html-keyboard-response","277","380854","0.0-1.0-7.0-3.0-1.74","10:26:17","2","","","","","","","<div>
            <img class='stim' src=""pictures/sports/7.jpg""></div><div class=""button_prompt"">
                        <b>请用数字键1-3回答</b>
                        </div>","","","","","","","","","","","","","","","","","","",""
"615","null","sub_response","html-keyboard-response","278","381855","0.0-1.0-7.0-3.0-2.74","10:26:17","2","","","","","","","<div style='text-align: center;'>
                            <span style=""color: green; font-size: 40px""><b>正确！+1 pts</b></span></div>
                            ","","learn","7","7","7","learn","2","2","[0, 1, 2]","74","7","setsize","10S3A","sports","1","52","2","1",""
"null","null","fixation","html-keyboard-response","279","382356","0.0-1.0-7.0-3.0-0.75","10:26:17","2","","","","","","","fixation","","","","","","","","","","","","","","","","","","",""
"992","3","pic_response","html-keyboard-response","280","383350","0.0-1.0-7.0-3.0-1.75","10:26:17","2","","","","","","","<div>
            <img class='stim' src=""pictures/sports/6.jpg""></div><div class=""button_prompt"">
                        <b>请用数字键1-3回答</b>
                        </div>","","","","","","","","","","","","","","","","","","",""
"992","null","sub_response","html-keyboard-response","281","384352","0.0-1.0-7.0-3.0-2.75","10:26:17","2","","","","","","","<div style='text-align: center;'>
                            <span style=""color: green; font-size: 40px""><b>正确！+1 pts</b></span></div>
                            ","","learn","6","6","6","learn","2","2","[0, 1, 2]","75","7","setsize","10S3A","sports","1","53","2","1",""
"null","null","fixation","html-keyboard-response","282","384853","0.0-1.0-7.0-3.0-0.76","10:26:17","2","","","","","","","fixation","","","","","","","","","","","","","","","","","","",""
"728","2","pic_response","html-keyboard-response","283","385582","0.0-1.0-7.0-3.0-1.76","10:26:17","2","","","","","","","<div>
            <img class='stim' src=""pictures/sports/5.jpg""></div><div class=""button_prompt"">
                        <b>请用数字键1-3回答</b>
                        </div>","","","","","","","","","","","","","","","","","","",""
"728","null","sub_response","html-keyboard-response","284","386583","0.0-1.0-7.0-3.0-2.76","10:26:17","2","","","","","","","<div style='text-align: center;'>
                            <span style=""color: green; font-size: 40px""><b>正确！+1 pts</b></span></div>
                            ","","learn","5","5","5","learn","1","1","[0, 1, 2]","76","7","setsize","10S3A","sports","1","54","1","1",""
"null","null","fixation","html-keyboard-response","285","387085","0.0-1.0-7.0-3.0-0.77","10:26:17","2","","","","","","","fixation","","","","","","","","","","","","","","","","","","",""
"448","3","pic_response","html-keyboard-response","286","387534","0.0-1.0-7.0-3.0-1.77","10:26:17","2","","","","","","","<div>
            <img class='stim' src=""pictures/sports/0.jpg""></div><div class=""button_prompt"">
                        <b>请用数字键1-3回答</b>
                        </div>","","","","","","","","","","","","","","","","","","",""
"448","null","sub_response","html-keyboard-response","287","388536","0.0-1.0-7.0-3.0-2.77","10:26:17","2","","","","","","","<div style='text-align: center;'>
                            <span style=""color: red; font-size: 40px""><b>错误！+0 pts</b></span></div>
                            ","","learn","0","0","0","learn","0","0","[0, 1, 2]","77","7","setsize","10S3A","sports","1","0","2","0",""
"null","null","fixation","html-keyboard-response","288","389037","0.0-1.0-7.0-3.0-0.78","10:26:17","2","","","","","","","fixation","","","","","","","","","","","","","","","","","","",""
"559","1","pic_response","html-keyboard-response","289","389597","0.0-1.0-7.0-3.0-1.78","10:26:17","2","","","","","","","<div>
            <img class='stim' src=""pictures/sports/1.jpg""></div><div class=""button_prompt"">
                        <b>请用数字键1-3回答</b>
                        </div>","","","","","","","","","","","","","","","","","","",""
"559","null","sub_response","html-keyboard-response","290","390599","0.0-1.0-7.0-3.0-2.78","10:26:17","2","","","","","","","<div style='text-align: center;'>
                            <span style=""color: green; font-size: 40px""><b>正确！+1 pts</b></span></div>
                            ","","learn","1","1","1","learn","0","0","[0, 1, 2]","78","7","setsize","10S3A","sports","1","1","0","1",""
"null","null","fixation","html-keyboard-response","291","391100","0.0-1.0-7.0-3.0-0.79","10:26:17","2","","","","","","","fixation","","","","","","","","","","","","","","","","","","",""
"1237","1","pic_response","html-keyboard-response","292","392341","0.0-1.0-7.0-3.0-1.79","10:26:17","2","","","","","","","<div>
            <img class='stim' src=""pictures/sports/2.jpg""></div><div class=""button_prompt"">
                        <b>请用数字键1-3回答</b>
                        </div>","","","","","","","","","","","","","","","","","","",""
"1237","null","sub_response","html-keyboard-response","293","393342","0.0-1.0-7.0-3.0-2.79","10:26:17","2","","","","","","","<div style='text-align: center;'>
                            <span style=""color: green; font-size: 40px""><b>正确！+1 pts</b></span></div>
                            ","","learn","2","2","2","learn","0","0","[0, 1, 2]","79","7","setsize","10S3A","sports","1","2","0","1",""
"null","null","fixation","html-keyboard-response","294","393843","0.0-1.0-7.0-3.0-0.80","10:26:17","2","","","","","","","fixation","","","","","","","","","","","","","","","","","","",""
"1850","1","pic_response","html-keyboard-response","295","395694","0.0-1.0-7.0-3.0-1.80","10:26:17","2","","","","","","","<div>
            <img class='stim' src=""pictures/sports/2.jpg""></div><div class=""button_prompt"">
                        <b>请用数字键1-3回答</b>
                        </div>","","","","","","","","","","","","","","","","","","",""
"1850","null","sub_response","html-keyboard-response","296","396696","0.0-1.0-7.0-3.0-2.80","10:26:17","2","","","","","","","<div style='text-align: center;'>
                            <span style=""color: green; font-size: 40px""><b>正确！+1 pts</b></span></div>
                            ","","learn","2","2","2","learn","0","0","[0, 1, 2]","80","8","setsize","10S3A","sports","1","3","0","1",""
"null","null","fixation","html-keyboard-response","297","397198","0.0-1.0-7.0-3.0-0.81","10:26:17","2","","","","","","","fixation","","","","","","","","","","","","","","","","","","",""
"1222","1","pic_response","html-keyboard-response","298","398421","0.0-1.0-7.0-3.0-1.81","10:26:17","2","","","","","","","<div>
            <img class='stim' src=""pictures/sports/1.jpg""></div><div class=""button_prompt"">
                        <b>请用数字键1-3回答</b>
                        </div>","","","","","","","","","","","","","","","","","","",""
"1222","null","sub_response","html-keyboard-response","299","399422","0.0-1.0-7.0-3.0-2.81","10:26:17","2","","","","","","","<div style='text-align: center;'>
                            <span style=""color: green; font-size: 40px""><b>正确！+1 pts</b></span></div>
                            ","","learn","1","1","1","learn","0","0","[0, 1, 2]","81","8","setsize","10S3A","sports","1","4","0","1",""
"null","null","fixation","html-keyboard-response","300","399923","0.0-1.0-7.0-3.0-0.82","10:26:17","2","","","","","","","fixation","","","","","","","","","","","","","","","","","","",""
"1897","2","pic_response","html-keyboard-response","301","401821","0.0-1.0-7.0-3.0-1.82","10:26:17","2","","","","","","","<div>
            <img class='stim' src=""pictures/sports/4.jpg""></div><div class=""button_prompt"">
                        <b>请用数字键1-3回答</b>
                        </div>","","","","","","","","","","","","","","","","","","",""
"1897","null","sub_response","html-keyboard-response","302","402822","0.0-1.0-7.0-3.0-2.82","10:26:17","2","","","","","","","<div style='text-align: center;'>
                            <span style=""color: green; font-size: 40px""><b>正确！+1 pts</b></span></div>
                            ","","learn","4","4","4","learn","1","1","[0, 1, 2]","82","8","setsize","10S3A","sports","1","5","1","1",""
"null","null","fixation","html-keyboard-response","303","403324","0.0-1.0-7.0-3.0-0.83","10:26:17","2","","","","","","","fixation","","","","","","","","","","","","","","","","","","",""
"1219","1","pic_response","html-keyboard-response","304","404543","0.0-1.0-7.0-3.0-1.83","10:26:17","2","","","","","","","<div>
            <img class='stim' src=""pictures/sports/0.jpg""></div><div class=""button_prompt"">
                        <b>请用数字键1-3回答</b>
                        </div>","","","","","","","","","","","","","","","","","","",""
"1219","null","sub_response","html-keyboard-response","305","405544","0.0-1.0-7.0-3.0-2.83","10:26:17","2","","","","","","","<div style='text-align: center;'>
                            <span style=""color: green; font-size: 40px""><b>正确！+1 pts</b></span></div>
                            ","","learn","0","0","0","learn","0","0","[0, 1, 2]","83","8","setsize","10S3A","sports","1","6","0","1",""
"null","null","fixation","html-keyboard-response","306","406046","0.0-1.0-7.0-3.0-0.84","10:26:17","2","","","","","","","fixation","","","","","","","","","","","","","","","","","","",""
"2399","3","pic_response","html-keyboard-response","307","408446","0.0-1.0-7.0-3.0-1.84","10:26:17","2","","","","","","","<div>
            <img class='stim' src=""pictures/sports/6.jpg""></div><div class=""button_prompt"">
                        <b>请用数字键1-3回答</b>
                        </div>","","","","","","","","","","","","","","","","","","",""
"2399","null","sub_response","html-keyboard-response","308","409446","0.0-1.0-7.0-3.0-2.84","10:26:17","2","","","","","","","<div style='text-align: center;'>
                            <span style=""color: green; font-size: 40px""><b>正确！+1 pts</b></span></div>
                            ","","learn","6","6","6","learn","2","2","[0, 1, 2]","84","8","setsize","10S3A","sports","1","7","2","1",""
"null","null","fixation","html-keyboard-response","309","409947","0.0-1.0-7.0-3.0-0.85","10:26:17","2","","","","","","","fixation","","","","","","","","","","","","","","","","","","",""
"801","3","pic_response","html-keyboard-response","310","410749","0.0-1.0-7.0-3.0-1.85","10:26:17","2","","","","","","","<div>
            <img class='stim' src=""pictures/sports/9.jpg""></div><div class=""button_prompt"">
                        <b>请用数字键1-3回答</b>
                        </div>","","","","","","","","","","","","","","","","","","",""
"801","null","sub_response","html-keyboard-response","311","411753","0.0-1.0-7.0-3.0-2.85","10:26:17","2","","","","","","","<div style='text-align: center;'>
                            <span style=""color: green; font-size: 40px""><b>正确！+1 pts</b></span></div>
                            ","","learn","9","9","9","learn","2","2","[0, 1, 2]","85","8","setsize","10S3A","sports","1","8","2","1",""
"null","null","fixation","html-keyboard-response","312","412255","0.0-1.0-7.0-3.0-0.86","10:26:17","2","","","","","","","fixation","","","","","","","","","","","","","","","","","","",""
"1023","1","pic_response","html-keyboard-response","313","413278","0.0-1.0-7.0-3.0-1.86","10:26:17","2","","","","","","","<div>
            <img class='stim' src=""pictures/sports/3.jpg""></div><div class=""button_prompt"">
                        <b>请用数字键1-3回答</b>
                        </div>","","","","","","","","","","","","","","","","","","",""
"1023","null","sub_response","html-keyboard-response","314","414280","0.0-1.0-7.0-3.0-2.86","10:26:17","2","","","","","","","<div style='text-align: center;'>
                            <span style=""color: red; font-size: 40px""><b>错误！+0 pts</b></span></div>
                            ","","learn","3","3","3","learn","1","1","[0, 1, 2]","86","8","setsize","10S3A","sports","1","0","0","0",""
"null","null","fixation","html-keyboard-response","315","414782","0.0-1.0-7.0-3.0-0.87","10:26:17","2","","","","","","","fixation","","","","","","","","","","","","","","","","","","",""
"775","3","pic_response","html-keyboard-response","316","415557","0.0-1.0-7.0-3.0-1.87","10:26:17","2","","","","","","","<div>
            <img class='stim' src=""pictures/sports/8.jpg""></div><div class=""button_prompt"">
                        <b>请用数字键1-3回答</b>
                        </div>","","","","","","","","","","","","","","","","","","",""
"775","null","sub_response","html-keyboard-response","317","416558","0.0-1.0-7.0-3.0-2.87","10:26:17","2","","","","","","","<div style='text-align: center;'>
                            <span style=""color: green; font-size: 40px""><b>正确！+1 pts</b></span></div>
                            ","","learn","8","8","8","learn","2","2","[0, 1, 2]","87","8","setsize","10S3A","sports","1","1","2","1",""
"null","null","fixation","html-keyboard-response","318","417060","0.0-1.0-7.0-3.0-0.88","10:26:17","2","","","","","","","fixation","","","","","","","","","","","","","","","","","","",""
"1881","2","pic_response","html-keyboard-response","319","418942","0.0-1.0-7.0-3.0-1.88","10:26:17","2","","","","","","","<div>
            <img class='stim' src=""pictures/sports/5.jpg""></div><div class=""button_prompt"">
                        <b>请用数字键1-3回答</b>
                        </div>","","","","","","","","","","","","","","","","","","",""
