"rt","response","screen_id","trial_type","trial_index","time_elapsed","internal_node_id","start_time","n_Prac","success","timeout","failed_images","failed_audio","failed_video","view_history","stimulus","question_order","stage","s","word","word_id","phase","a_cor","a_real","a_ava","trial","tps","task_type","block_typ","pic_typ","block_id","cum_r","a","r","plugin_name"
"32233","{""sub_id"":""1"",""task_type"":""task1"",""name"":""许愿"",""gender"":""F""}","basic_info","survey-html-form","0","32235","0.0-0.0","17:40:56","1","","","","","","","","","","","","","","","","","","","","","","","","","",""
"","","","preload","1","32946","0.0-1.0-0.0","17:40:56","1","true","false","[]","[]","[]","","","","","","","","","","","","","","","","","","","","",""
"","","","preload","2","33105","0.0-1.0-1.0","17:40:56","1","true","false","[]","[]","[]","","","","","","","","","","","","","","","","","","","","",""
"","","","fullscreen","3","35160","0.0-1.0-2.0","17:40:56","1","true","","","","","","","","","","","","","","","","","","","","","","","","",""
"4435","","instruct","instructions","4","39595","0.0-1.0-3.0-0.0","17:40:56","1","","","","","","[{""page_index"":0,""viewing_time"":2722},{""page_index"":1,""viewing_time"":721},{""page_index"":2,""viewing_time"":992}]","","","","","","","","","","","","","","","","","","","",""
"7543","{""Q0"":"""",""task1"":""<span style='font-size: 24px'>学习图片和数字的对应关系</span>"",""task2"":""<span style='font-size: 24px'> 图片下方标注为可用的数字键（数字键1-3或0-9） </span>"",""task3"":""<span style='font-size: 24px'> 看到图片选出正确对应的数字 </span>""}","question","survey-multi-choice","5","47140","0.0-1.0-3.0-1.0","17:40:56","1","","","","","","","","[0,1,2,3]","","","","","","","","","","","","","","","","","",""
"2460"," ","inst_q","html-keyboard-response","6","49601","0.0-1.0-3.0-2.0","17:40:56","1","","","","","","","inst","","1","","","","","","","","","","","","","","","","",""
"","","","preload","7","49681","0.0-1.0-4.0-0.0","17:40:56","1","true","false","[]","[]","[]","","","","","","","","","","","","","","","","","","","","",""
"3571"," ","","html-keyboard-response","8","53253","0.0-1.0-4.0-1.0","17:40:56","1","","","","","","","<div style='font-size: 32px; text-align: center;'
                    <p>请学习图片和数字之间的对应关系</p>
                    <p>我们将<span style='color: blue'><b> 告诉 </b></span>您选择的对错。请根据反馈学习。</p>
                    <p>请按""空格""继续实验。</p></div>","","","","","","","","","","","","","","","","","","",""
"1200"," ","inst","html-keyboard-response","9","54453","0.0-1.0-4.0-2.0","17:40:56","1","","","","","","","<img class='instruct_stim' src=""instruction/prac3.PNG""></div>","","","","","","","","","","","","","","","","","","",""
"null","null","fixation","html-keyboard-response","10","54961","0.0-1.0-4.0-3.0-0.0","17:40:56","1","","","","","","","fixation","","","","","","","","","","","","","","","","","","",""
"827","2","pic_response","html-keyboard-response","11","55790","0.0-1.0-4.0-3.0-1.0","17:40:56","1","","","","","","","<div>
            <img class='stim' src=""pictures/prac/2.jpg""></div><div class=""button_prompt"">
                        <b>请用数字键1-3回答</b>
                        </div>","","","","","","","","","","","","","","","","","","",""
"827","null","sub_response","html-keyboard-response","12","56791","0.0-1.0-4.0-3.0-2.0","17:40:56","1","","","","","","","<div style='text-align: center;'>
                            <span style=""color: red; font-size: 40px""><b>错误！+0 pts</b></span></div>
                            ","","learn","2","2","2","learn","2","2","[0, 1, 2]","0","0","setsize","99","prac","0","0","1","0",""
"null","null","fixation","html-keyboard-response","13","57293","0.0-1.0-4.0-3.0-0.1","17:40:56","1","","","","","","","fixation","","","","","","","","","","","","","","","","","","",""
"538","1","pic_response","html-keyboard-response","14","57831","0.0-1.0-4.0-3.0-1.1","17:40:56","1","","","","","","","<div>
            <img class='stim' src=""pictures/prac/0.jpg""></div><div class=""button_prompt"">
                        <b>请用数字键1-3回答</b>
                        </div>","","","","","","","","","","","","","","","","","","",""
"538","null","sub_response","html-keyboard-response","15","58833","0.0-1.0-4.0-3.0-2.1","17:40:56","1","","","","","","","<div style='text-align: center;'>
                            <span style=""color: green; font-size: 40px""><b>正确！+1 pts</b></span></div>
                            ","","learn","0","0","0","learn","0","0","[0, 1, 2]","1","0","setsize","99","prac","0","1","0","1",""
"null","null","fixation","html-keyboard-response","16","59335","0.0-1.0-4.0-3.0-0.2","17:40:56","1","","","","","","","fixation","","","","","","","","","","","","","","","","","","",""
"410","1","pic_response","html-keyboard-response","17","59746","0.0-1.0-4.0-3.0-1.2","17:40:56","1","","","","","","","<div>
            <img class='stim' src=""pictures/prac/1.jpg""></div><div class=""button_prompt"">
                        <b>请用数字键1-3回答</b>
                        </div>","","","","","","","","","","","","","","","","","","",""
"410","null","sub_response","html-keyboard-response","18","60747","0.0-1.0-4.0-3.0-2.2","17:40:56","1","","","","","","","<div style='text-align: center;'>
                            <span style=""color: green; font-size: 40px""><b>正确！+1 pts</b></span></div>
                            ","","learn","1","1","1","learn","0","0","[0, 1, 2]","2","0","setsize","99","prac","0","2","0","1",""
"null","null","fixation","html-keyboard-response","19","61248","0.0-1.0-4.0-3.0-0.3","17:40:56","1","","","","","","","fixation","","","","","","","","","","","","","","","","","","",""
"518","1","pic_response","html-keyboard-response","20","61766","0.0-1.0-4.0-3.0-1.3","17:40:56","1","","","","","","","<div>
            <img class='stim' src=""pictures/prac/1.jpg""></div><div class=""button_prompt"">
                        <b>请用数字键1-3回答</b>
                        </div>","","","","","","","","","","","","","","","","","","",""
"518","null","sub_response","html-keyboard-response","21","62768","0.0-1.0-4.0-3.0-2.3","17:40:56","1","","","","","","","<div style='text-align: center;'>
                            <span style=""color: green; font-size: 40px""><b>正确！+1 pts</b></span></div>
                            ","","learn","1","1","1","learn","0","0","[0, 1, 2]","3","1","setsize","99","prac","0","3","0","1",""
"null","null","fixation","html-keyboard-response","22","63270","0.0-1.0-4.0-3.0-0.4","17:40:56","1","","","","","","","fixation","","","","","","","","","","","","","","","","","","",""
"632","3","pic_response","html-keyboard-response","23","63903","0.0-1.0-4.0-3.0-1.4","17:40:56","1","","","","","","","<div>
            <img class='stim' src=""pictures/prac/2.jpg""></div><div class=""button_prompt"">
                        <b>请用数字键1-3回答</b>
                        </div>","","","","","","","","","","","","","","","","","","",""
"632","null","sub_response","html-keyboard-response","24","64904","0.0-1.0-4.0-3.0-2.4","17:40:56","1","","","","","","","<div style='text-align: center;'>
                            <span style=""color: green; font-size: 40px""><b>正确！+1 pts</b></span></div>
                            ","","learn","2","2","2","learn","2","2","[0, 1, 2]","4","1","setsize","99","prac","0","4","2","1",""
"null","null","fixation","html-keyboard-response","25","65406","0.0-1.0-4.0-3.0-0.5","17:40:56","1","","","","","","","fixation","","","","","","","","","","","","","","","","","","",""
"624","1","pic_response","html-keyboard-response","26","66030","0.0-1.0-4.0-3.0-1.5","17:40:56","1","","","","","","","<div>
            <img class='stim' src=""pictures/prac/0.jpg""></div><div class=""button_prompt"">
                        <b>请用数字键1-3回答</b>
                        </div>","","","","","","","","","","","","","","","","","","",""
"624","null","sub_response","html-keyboard-response","27","67030","0.0-1.0-4.0-3.0-2.5","17:40:56","1","","","","","","","<div style='text-align: center;'>
                            <span style=""color: green; font-size: 40px""><b>正确！+1 pts</b></span></div>
                            ","","learn","0","0","0","learn","0","0","[0, 1, 2]","5","1","setsize","99","prac","0","5","0","1",""
"1983"," ","","html-keyboard-response","28","69014","0.0-1.0-5.0","17:40:56","1","","","","","","","<div style=""font-size: 25px""><p>距下一个实验开始还有</p><div style=""font-size: 50px; color: blue""><p><span id=""clock"">1:00</span></div></p><p>按""空格""跳过休息</p></div>","","","","","","","","","","","","","","","","","","",""
"1196"," ","","html-keyboard-response","29","70211","0.0-1.0-6.0","17:40:56","1","","","","","","","<div style='font-size: 32px; text-align: center;'
                    <p>请按""空格""继续正式实验。</p></div>","","","","","","","","","","","","","","","","","","",""
"","","","preload","30","70688","0.0-1.0-7.0-0.0","17:40:56","1","true","false","[]","[]","[]","","","","","","","","","","","","","","","","","","","","",""
"852"," ","","html-keyboard-response","31","71540","0.0-1.0-7.0-1.0","17:40:56","1","","","","","","","<div style='font-size: 32px; text-align: center;'
                    <p>请学习图片和数字之间的对应关系</p>
                    <p>我们将<span style='color: blue'><b> 告诉 </b></span>您选择的对错。请根据反馈学习。</p>
                    <p>请按""空格""继续实验。</p></div>","","","","","","","","","","","","","","","","","","",""
"2733"," ","inst","html-keyboard-response","32","74274","0.0-1.0-7.0-2.0","17:40:56","1","","","","","","","<img class='instruct_stim' src=""instruction/food3.PNG""></div>","","","","","","","","","","","","","","","","","","",""
"null","null","fixation","html-keyboard-response","33","74775","0.0-1.0-7.0-3.0-0.0","17:40:56","1","","","","","","","fixation","","","","","","","","","","","","","","","","","","",""
"691","1","pic_response","html-keyboard-response","34","75466","0.0-1.0-7.0-3.0-1.0","17:40:56","1","","","","","","","<div>
            <img class='stim' src=""pictures/food/0.jpg""></div><div class=""button_prompt"">
                    <b>请用数字键0-9回答</b>
                    </div>","","","","","","","","","","","","","","","","","","",""
"691","null","sub_response","html-keyboard-response","35","76468","0.0-1.0-7.0-3.0-2.0","17:40:56","1","","","","","","","<div style='text-align: center;'>
                            <span style=""color: red; font-size: 40px""><b>错误！+0 pts</b></span></div>
                            ","","learn","0","0","0","learn","2","2","[0, 1, 2, 3, 4, 5, 6, 7, 8, 9]","0","0","setsize","3S10A","food","1","0","0","0",""
"null","null","fixation","html-keyboard-response","36","76969","0.0-1.0-7.0-3.0-0.1","17:40:56","1","","","","","","","fixation","","","","","","","","","","","","","","","","","","",""
"808","1","pic_response","html-keyboard-response","37","77778","0.0-1.0-7.0-3.0-1.1","17:40:56","1","","","","","","","<div>
            <img class='stim' src=""pictures/food/2.jpg""></div><div class=""button_prompt"">
                    <b>请用数字键0-9回答</b>
                    </div>","","","","","","","","","","","","","","","","","","",""
"808","null","sub_response","html-keyboard-response","38","78779","0.0-1.0-7.0-3.0-2.1","17:40:56","1","","","","","","","<div style='text-align: center;'>
                            <span style=""color: red; font-size: 40px""><b>错误！+0 pts</b></span></div>
                            ","","learn","2","2","2","learn","9","9","[0, 1, 2, 3, 4, 5, 6, 7, 8, 9]","1","0","setsize","3S10A","food","1","0","0","0",""
"null","null","fixation","html-keyboard-response","39","79281","0.0-1.0-7.0-3.0-0.2","17:40:56","1","","","","","","","fixation","","","","","","","","","","","","","","","","","","",""
"1776","1","pic_response","html-keyboard-response","40","81057","0.0-1.0-7.0-3.0-1.2","17:40:56","1","","","","","","","<div>
            <img class='stim' src=""pictures/food/1.jpg""></div><div class=""button_prompt"">
                    <b>请用数字键0-9回答</b>
                    </div>","","","","","","","","","","","","","","","","","","",""
"1776","null","sub_response","html-keyboard-response","41","82058","0.0-1.0-7.0-3.0-2.2","17:40:56","1","","","","","","","<div style='text-align: center;'>
                            <span style=""color: red; font-size: 40px""><b>错误！+0 pts</b></span></div>
                            ","","learn","1","1","1","learn","6","6","[0, 1, 2, 3, 4, 5, 6, 7, 8, 9]","2","0","setsize","3S10A","food","1","0","0","0",""
"null","null","fixation","html-keyboard-response","42","82560","0.0-1.0-7.0-3.0-0.3","17:40:56","1","","","","","","","fixation","","","","","","","","","","","","","","","","","","",""
"493","2","pic_response","html-keyboard-response","43","83054","0.0-1.0-7.0-3.0-1.3","17:40:56","1","","","","","","","<div>
            <img class='stim' src=""pictures/food/0.jpg""></div><div class=""button_prompt"">
                    <b>请用数字键0-9回答</b>
                    </div>","","","","","","","","","","","","","","","","","","",""
"493","null","sub_response","html-keyboard-response","44","84055","0.0-1.0-7.0-3.0-2.3","17:40:56","1","","","","","","","<div style='text-align: center;'>
                            <span style=""color: red; font-size: 40px""><b>错误！+0 pts</b></span></div>
                            ","","learn","0","0","0","learn","2","2","[0, 1, 2, 3, 4, 5, 6, 7, 8, 9]","3","1","setsize","3S10A","food","1","0","1","0",""
"null","null","fixation","html-keyboard-response","45","84557","0.0-1.0-7.0-3.0-0.4","17:40:56","1","","","","","","","fixation","","","","","","","","","","","","","","","","","","",""
"877","2","pic_response","html-keyboard-response","46","85434","0.0-1.0-7.0-3.0-1.4","17:40:56","1","","","","","","","<div>
            <img class='stim' src=""pictures/food/1.jpg""></div><div class=""button_prompt"">
                    <b>请用数字键0-9回答</b>
                    </div>","","","","","","","","","","","","","","","","","","",""
"877","null","sub_response","html-keyboard-response","47","86435","0.0-1.0-7.0-3.0-2.4","17:40:56","1","","","","","","","<div style='text-align: center;'>
                            <span style=""color: red; font-size: 40px""><b>错误！+0 pts</b></span></div>
                            ","","learn","1","1","1","learn","6","6","[0, 1, 2, 3, 4, 5, 6, 7, 8, 9]","4","1","setsize","3S10A","food","1","0","1","0",""
"null","null","fixation","html-keyboard-response","48","86937","0.0-1.0-7.0-3.0-0.5","17:40:56","1","","","","","","","fixation","","","","","","","","","","","","","","","","","","",""
"623","2","pic_response","html-keyboard-response","49","87560","0.0-1.0-7.0-3.0-1.5","17:40:56","1","","","","","","","<div>
            <img class='stim' src=""pictures/food/2.jpg""></div><div class=""button_prompt"">
                    <b>请用数字键0-9回答</b>
                    </div>","","","","","","","","","","","","","","","","","","",""
"623","null","sub_response","html-keyboard-response","50","88562","0.0-1.0-7.0-3.0-2.5","17:40:56","1","","","","","","","<div style='text-align: center;'>
                            <span style=""color: red; font-size: 40px""><b>错误！+0 pts</b></span></div>
                            ","","learn","2","2","2","learn","9","9","[0, 1, 2, 3, 4, 5, 6, 7, 8, 9]","5","1","setsize","3S10A","food","1","0","1","0",""
"null","null","fixation","html-keyboard-response","51","89063","0.0-1.0-7.0-3.0-0.6","17:40:56","1","","","","","","","fixation","","","","","","","","","","","","","","","","","","",""
"344","3","pic_response","html-keyboard-response","52","89407","0.0-1.0-7.0-3.0-1.6","17:40:56","1","","","","","","","<div>
            <img class='stim' src=""pictures/food/0.jpg""></div><div class=""button_prompt"">
                    <b>请用数字键0-9回答</b>
                    </div>","","","","","","","","","","","","","","","","","","",""
"344","null","sub_response","html-keyboard-response","53","90408","0.0-1.0-7.0-3.0-2.6","17:40:56","1","","","","","","","<div style='text-align: center;'>
                            <span style=""color: green; font-size: 40px""><b>正确！+1 pts</b></span></div>
                            ","","learn","0","0","0","learn","2","2","[0, 1, 2, 3, 4, 5, 6, 7, 8, 9]","6","2","setsize","3S10A","food","1","1","2","1",""
"null","null","fixation","html-keyboard-response","54","90909","0.0-1.0-7.0-3.0-0.7","17:40:56","1","","","","","","","fixation","","","","","","","","","","","","","","","","","","",""
"582","4","pic_response","html-keyboard-response","55","91492","0.0-1.0-7.0-3.0-1.7","17:40:56","1","","","","","","","<div>
            <img class='stim' src=""pictures/food/1.jpg""></div><div class=""button_prompt"">
                    <b>请用数字键0-9回答</b>
                    </div>","","","","","","","","","","","","","","","","","","",""
"582","null","sub_response","html-keyboard-response","56","92493","0.0-1.0-7.0-3.0-2.7","17:40:56","1","","","","","","","<div style='text-align: center;'>
                            <span style=""color: red; font-size: 40px""><b>错误！+0 pts</b></span></div>
                            ","","learn","1","1","1","learn","6","6","[0, 1, 2, 3, 4, 5, 6, 7, 8, 9]","7","2","setsize","3S10A","food","1","0","3","0",""
"null","null","fixation","html-keyboard-response","57","92994","0.0-1.0-7.0-3.0-0.8","17:40:56","1","","","","","","","fixation","","","","","","","","","","","","","","","","","","",""
"270","3","pic_response","html-keyboard-response","58","93264","0.0-1.0-7.0-3.0-1.8","17:40:56","1","","","","","","","<div>
            <img class='stim' src=""pictures/food/2.jpg""></div><div class=""button_prompt"">
                    <b>请用数字键0-9回答</b>
                    </div>","","","","","","","","","","","","","","","","","","",""
"270","null","sub_response","html-keyboard-response","59","94267","0.0-1.0-7.0-3.0-2.8","17:40:56","1","","","","","","","<div style='text-align: center;'>
                            <span style=""color: red; font-size: 40px""><b>错误！+0 pts</b></span></div>
                            ","","learn","2","2","2","learn","9","9","[0, 1, 2, 3, 4, 5, 6, 7, 8, 9]","8","2","setsize","3S10A","food","1","0","2","0",""
"null","null","fixation","html-keyboard-response","60","94769","0.0-1.0-7.0-3.0-0.9","17:40:56","1","","","","","","","fixation","","","","","","","","","","","","","","","","","","",""
"1086","3","pic_response","html-keyboard-response","61","95855","0.0-1.0-7.0-3.0-1.9","17:40:56","1","","","","","","","<div>
            <img class='stim' src=""pictures/food/1.jpg""></div><div class=""button_prompt"">
                    <b>请用数字键0-9回答</b>
                    </div>","","","","","","","","","","","","","","","","","","",""
"1086","null","sub_response","html-keyboard-response","62","96857","0.0-1.0-7.0-3.0-2.9","17:40:56","1","","","","","","","<div style='text-align: center;'>
                            <span style=""color: red; font-size: 40px""><b>错误！+0 pts</b></span></div>
                            ","","learn","1","1","1","learn","6","6","[0, 1, 2, 3, 4, 5, 6, 7, 8, 9]","9","3","setsize","3S10A","food","1","0","2","0",""
"null","null","fixation","html-keyboard-response","63","97358","0.0-1.0-7.0-3.0-0.10","17:40:56","1","","","","","","","fixation","","","","","","","","","","","","","","","","","","",""
"658","3","pic_response","html-keyboard-response","64","98017","0.0-1.0-7.0-3.0-1.10","17:40:56","1","","","","","","","<div>
            <img class='stim' src=""pictures/food/0.jpg""></div><div class=""button_prompt"">
                    <b>请用数字键0-9回答</b>
                    </div>","","","","","","","","","","","","","","","","","","",""
"658","null","sub_response","html-keyboard-response","65","99018","0.0-1.0-7.0-3.0-2.10","17:40:56","1","","","","","","","<div style='text-align: center;'>
                            <span style=""color: green; font-size: 40px""><b>正确！+1 pts</b></span></div>
                            ","","learn","0","0","0","learn","2","2","[0, 1, 2, 3, 4, 5, 6, 7, 8, 9]","10","3","setsize","3S10A","food","1","1","2","1",""
"null","null","fixation","html-keyboard-response","66","99520","0.0-1.0-7.0-3.0-0.11","17:40:56","1","","","","","","","fixation","","","","","","","","","","","","","","","","","","",""
"426","4","pic_response","html-keyboard-response","67","99947","0.0-1.0-7.0-3.0-1.11","17:40:56","1","","","","","","","<div>
            <img class='stim' src=""pictures/food/2.jpg""></div><div class=""button_prompt"">
                    <b>请用数字键0-9回答</b>
                    </div>","","","","","","","","","","","","","","","","","","",""
"426","null","sub_response","html-keyboard-response","68","100948","0.0-1.0-7.0-3.0-2.11","17:40:56","1","","","","","","","<div style='text-align: center;'>
                            <span style=""color: red; font-size: 40px""><b>错误！+0 pts</b></span></div>
                            ","","learn","2","2","2","learn","9","9","[0, 1, 2, 3, 4, 5, 6, 7, 8, 9]","11","3","setsize","3S10A","food","1","0","3","0",""
"null","null","fixation","html-keyboard-response","69","101449","0.0-1.0-7.0-3.0-0.12","17:40:56","1","","","","","","","fixation","","","","","","","","","","","","","","","","","","",""
"448","4","pic_response","html-keyboard-response","70","101898","0.0-1.0-7.0-3.0-1.12","17:40:56","1","","","","","","","<div>
            <img class='stim' src=""pictures/food/1.jpg""></div><div class=""button_prompt"">
                    <b>请用数字键0-9回答</b>
                    </div>","","","","","","","","","","","","","","","","","","",""
"448","null","sub_response","html-keyboard-response","71","102899","0.0-1.0-7.0-3.0-2.12","17:40:56","1","","","","","","","<div style='text-align: center;'>
                            <span style=""color: red; font-size: 40px""><b>错误！+0 pts</b></span></div>
                            ","","learn","1","1","1","learn","6","6","[0, 1, 2, 3, 4, 5, 6, 7, 8, 9]","12","4","setsize","3S10A","food","1","0","3","0",""
"null","null","fixation","html-keyboard-response","72","103401","0.0-1.0-7.0-3.0-0.13","17:40:56","1","","","","","","","fixation","","","","","","","","","","","","","","","","","","",""
"503","3","pic_response","html-keyboard-response","73","103904","0.0-1.0-7.0-3.0-1.13","17:40:56","1","","","","","","","<div>
            <img class='stim' src=""pictures/food/0.jpg""></div><div class=""button_prompt"">
                    <b>请用数字键0-9回答</b>
                    </div>","","","","","","","","","","","","","","","","","","",""
"503","null","sub_response","html-keyboard-response","74","104906","0.0-1.0-7.0-3.0-2.13","17:40:56","1","","","","","","","<div style='text-align: center;'>
                            <span style=""color: green; font-size: 40px""><b>正确！+1 pts</b></span></div>
                            ","","learn","0","0","0","learn","2","2","[0, 1, 2, 3, 4, 5, 6, 7, 8, 9]","13","4","setsize","3S10A","food","1","1","2","1",""
"null","null","fixation","html-keyboard-response","75","105408","0.0-1.0-7.0-3.0-0.14","17:40:56","1","","","","","","","fixation","","","","","","","","","","","","","","","","","","",""
"266","5","pic_response","html-keyboard-response","76","105674","0.0-1.0-7.0-3.0-1.14","17:40:56","1","","","","","","","<div>
            <img class='stim' src=""pictures/food/2.jpg""></div><div class=""button_prompt"">
                    <b>请用数字键0-9回答</b>
                    </div>","","","","","","","","","","","","","","","","","","",""
"266","null","sub_response","html-keyboard-response","77","106675","0.0-1.0-7.0-3.0-2.14","17:40:56","1","","","","","","","<div style='text-align: center;'>
                            <span style=""color: red; font-size: 40px""><b>错误！+0 pts</b></span></div>
                            ","","learn","2","2","2","learn","9","9","[0, 1, 2, 3, 4, 5, 6, 7, 8, 9]","14","4","setsize","3S10A","food","1","0","4","0",""
"null","null","fixation","html-keyboard-response","78","107180","0.0-1.0-7.0-3.0-0.15","17:40:56","1","","","","","","","fixation","","","","","","","","","","","","","","","","","","",""
"555","3","pic_response","html-keyboard-response","79","107736","0.0-1.0-7.0-3.0-1.15","17:40:56","1","","","","","","","<div>
            <img class='stim' src=""pictures/food/0.jpg""></div><div class=""button_prompt"">
                    <b>请用数字键0-9回答</b>
                    </div>","","","","","","","","","","","","","","","","","","",""
"555","null","sub_response","html-keyboard-response","80","108737","0.0-1.0-7.0-3.0-2.15","17:40:56","1","","","","","","","<div style='text-align: center;'>
                            <span style=""color: green; font-size: 40px""><b>正确！+1 pts</b></span></div>
                            ","","learn","0","0","0","learn","2","2","[0, 1, 2, 3, 4, 5, 6, 7, 8, 9]","15","5","setsize","3S10A","food","1","1","2","1",""
"null","null","fixation","html-keyboard-response","81","109238","0.0-1.0-7.0-3.0-0.16","17:40:56","1","","","","","","","fixation","","","","","","","","","","","","","","","","","","",""
"986","5","pic_response","html-keyboard-response","82","110224","0.0-1.0-7.0-3.0-1.16","17:40:56","1","","","","","","","<div>
            <img class='stim' src=""pictures/food/2.jpg""></div><div class=""button_prompt"">
                    <b>请用数字键0-9回答</b>
                    </div>","","","","","","","","","","","","","","","","","","",""
"986","null","sub_response","html-keyboard-response","83","111226","0.0-1.0-7.0-3.0-2.16","17:40:56","1","","","","","","","<div style='text-align: center;'>
                            <span style=""color: red; font-size: 40px""><b>错误！+0 pts</b></span></div>
                            ","","learn","2","2","2","learn","9","9","[0, 1, 2, 3, 4, 5, 6, 7, 8, 9]","16","5","setsize","3S10A","food","1","0","4","0",""
"null","null","fixation","html-keyboard-response","84","111728","0.0-1.0-7.0-3.0-0.17","17:40:56","1","","","","","","","fixation","","","","","","","","","","","","","","","","","","",""
"405","6","pic_response","html-keyboard-response","85","112133","0.0-1.0-7.0-3.0-1.17","17:40:56","1","","","","","","","<div>
            <img class='stim' src=""pictures/food/1.jpg""></div><div class=""button_prompt"">
                    <b>请用数字键0-9回答</b>
                    </div>","","","","","","","","","","","","","","","","","","",""
"405","null","sub_response","html-keyboard-response","86","113134","0.0-1.0-7.0-3.0-2.17","17:40:56","1","","","","","","","<div style='text-align: center;'>
                            <span style=""color: red; font-size: 40px""><b>错误！+0 pts</b></span></div>
                            ","","learn","1","1","1","learn","6","6","[0, 1, 2, 3, 4, 5, 6, 7, 8, 9]","17","5","setsize","3S10A","food","1","0","5","0",""
"null","null","fixation","html-keyboard-response","87","113636","0.0-1.0-7.0-3.0-0.18","17:40:56","1","","","","","","","fixation","","","","","","","","","","","","","","","","","","",""
"1249","7","pic_response","html-keyboard-response","88","114885","0.0-1.0-7.0-3.0-1.18","17:40:56","1","","","","","","","<div>
            <img class='stim' src=""pictures/food/1.jpg""></div><div class=""button_prompt"">
                    <b>请用数字键0-9回答</b>
                    </div>","","","","","","","","","","","","","","","","","","",""
"1249","null","sub_response","html-keyboard-response","89","115886","0.0-1.0-7.0-3.0-2.18","17:40:56","1","","","","","","","<div style='text-align: center;'>
                            <span style=""color: green; font-size: 40px""><b>正确！+1 pts</b></span></div>
                            ","","learn","1","1","1","learn","6","6","[0, 1, 2, 3, 4, 5, 6, 7, 8, 9]","18","6","setsize","3S10A","food","1","1","6","1",""
"null","null","fixation","html-keyboard-response","90","116388","0.0-1.0-7.0-3.0-0.19","17:40:56","1","","","","","","","fixation","","","","","","","","","","","","","","","","","","",""
"925","7","pic_response","html-keyboard-response","91","117314","0.0-1.0-7.0-3.0-1.19","17:40:56","1","","","","","","","<div>
            <img class='stim' src=""pictures/food/2.jpg""></div><div class=""button_prompt"">
                    <b>请用数字键0-9回答</b>
                    </div>","","","","","","","","","","","","","","","","","","",""
"925","null","sub_response","html-keyboard-response","92","118315","0.0-1.0-7.0-3.0-2.19","17:40:56","1","","","","","","","<div style='text-align: center;'>
                            <span style=""color: red; font-size: 40px""><b>错误！+0 pts</b></span></div>
                            ","","learn","2","2","2","learn","9","9","[0, 1, 2, 3, 4, 5, 6, 7, 8, 9]","19","6","setsize","3S10A","food","1","0","6","0",""
"null","null","fixation","html-keyboard-response","93","118816","0.0-1.0-7.0-3.0-0.20","17:40:56","1","","","","","","","fixation","","","","","","","","","","","","","","","","","","",""
"415","3","pic_response","html-keyboard-response","94","119232","0.0-1.0-7.0-3.0-1.20","17:40:56","1","","","","","","","<div>
            <img class='stim' src=""pictures/food/0.jpg""></div><div class=""button_prompt"">
                    <b>请用数字键0-9回答</b>
                    </div>","","","","","","","","","","","","","","","","","","",""
"415","null","sub_response","html-keyboard-response","95","120238","0.0-1.0-7.0-3.0-2.20","17:40:56","1","","","","","","","<div style='text-align: center;'>
                            <span style=""color: green; font-size: 40px""><b>正确！+1 pts</b></span></div>
                            ","","learn","0","0","0","learn","2","2","[0, 1, 2, 3, 4, 5, 6, 7, 8, 9]","20","6","setsize","3S10A","food","1","1","2","1",""
"null","null","fixation","html-keyboard-response","96","120740","0.0-1.0-7.0-3.0-0.21","17:40:56","1","","","","","","","fixation","","","","","","","","","","","","","","","","","","",""
"599","7","pic_response","html-keyboard-response","97","121339","0.0-1.0-7.0-3.0-1.21","17:40:56","1","","","","","","","<div>
            <img class='stim' src=""pictures/food/1.jpg""></div><div class=""button_prompt"">
                    <b>请用数字键0-9回答</b>
                    </div>","","","","","","","","","","","","","","","","","","",""
"599","null","sub_response","html-keyboard-response","98","122341","0.0-1.0-7.0-3.0-2.21","17:40:56","1","","","","","","","<div style='text-align: center;'>
                            <span style=""color: green; font-size: 40px""><b>正确！+1 pts</b></span></div>
                            ","","learn","1","1","1","learn","6","6","[0, 1, 2, 3, 4, 5, 6, 7, 8, 9]","21","7","setsize","3S10A","food","1","2","6","1",""
"null","null","fixation","html-keyboard-response","99","122843","0.0-1.0-7.0-3.0-0.22","17:40:56","1","","","","","","","fixation","","","","","","","","","","","","","","","","","","",""
"467","8","pic_response","html-keyboard-response","100","123311","0.0-1.0-7.0-3.0-1.22","17:40:56","1","","","","","","","<div>
            <img class='stim' src=""pictures/food/2.jpg""></div><div class=""button_prompt"">
                    <b>请用数字键0-9回答</b>
                    </div>","","","","","","","","","","","","","","","","","","",""
"467","null","sub_response","html-keyboard-response","101","124312","0.0-1.0-7.0-3.0-2.22","17:40:56","1","","","","","","","<div style='text-align: center;'>
                            <span style=""color: red; font-size: 40px""><b>错误！+0 pts</b></span></div>
                            ","","learn","2","2","2","learn","9","9","[0, 1, 2, 3, 4, 5, 6, 7, 8, 9]","22","7","setsize","3S10A","food","1","0","7","0",""
"null","null","fixation","html-keyboard-response","102","124813","0.0-1.0-7.0-3.0-0.23","17:40:56","1","","","","","","","fixation","","","","","","","","","","","","","","","","","","",""
"500","3","pic_response","html-keyboard-response","103","125314","0.0-1.0-7.0-3.0-1.23","17:40:56","1","","","","","","","<div>
            <img class='stim' src=""pictures/food/0.jpg""></div><div class=""button_prompt"">
                    <b>请用数字键0-9回答</b>
                    </div>","","","","","","","","","","","","","","","","","","",""
"500","null","sub_response","html-keyboard-response","104","126316","0.0-1.0-7.0-3.0-2.23","17:40:56","1","","","","","","","<div style='text-align: center;'>
                            <span style=""color: green; font-size: 40px""><b>正确！+1 pts</b></span></div>
                            ","","learn","0","0","0","learn","2","2","[0, 1, 2, 3, 4, 5, 6, 7, 8, 9]","23","7","setsize","3S10A","food","1","1","2","1",""
"null","null","fixation","html-keyboard-response","105","126817","0.0-1.0-7.0-3.0-0.24","17:40:56","1","","","","","","","fixation","","","","","","","","","","","","","","","","","","",""
"677","8","pic_response","html-keyboard-response","106","127495","0.0-1.0-7.0-3.0-1.24","17:40:56","1","","","","","","","<div>
            <img class='stim' src=""pictures/food/2.jpg""></div><div class=""button_prompt"">
                    <b>请用数字键0-9回答</b>
                    </div>","","","","","","","","","","","","","","","","","","",""
"677","null","sub_response","html-keyboard-response","107","128496","0.0-1.0-7.0-3.0-2.24","17:40:56","1","","","","","","","<div style='text-align: center;'>
                            <span style=""color: red; font-size: 40px""><b>错误！+0 pts</b></span></div>
                            ","","learn","2","2","2","learn","9","9","[0, 1, 2, 3, 4, 5, 6, 7, 8, 9]","24","8","setsize","3S10A","food","1","0","7","0",""
"null","null","fixation","html-keyboard-response","108","128997","0.0-1.0-7.0-3.0-0.25","17:40:56","1","","","","","","","fixation","","","","","","","","","","","","","","","","","","",""
"408","7","pic_response","html-keyboard-response","109","129406","0.0-1.0-7.0-3.0-1.25","17:40:56","1","","","","","","","<div>
            <img class='stim' src=""pictures/food/1.jpg""></div><div class=""button_prompt"">
                    <b>请用数字键0-9回答</b>
                    </div>","","","","","","","","","","","","","","","","","","",""
"408","null","sub_response","html-keyboard-response","110","130407","0.0-1.0-7.0-3.0-2.25","17:40:56","1","","","","","","","<div style='text-align: center;'>
                            <span style=""color: green; font-size: 40px""><b>正确！+1 pts</b></span></div>
                            ","","learn","1","1","1","learn","6","6","[0, 1, 2, 3, 4, 5, 6, 7, 8, 9]","25","8","setsize","3S10A","food","1","1","6","1",""
"null","null","fixation","html-keyboard-response","111","130909","0.0-1.0-7.0-3.0-0.26","17:40:56","1","","","","","","","fixation","","","","","","","","","","","","","","","","","","",""
"569","3","pic_response","html-keyboard-response","112","131478","0.0-1.0-7.0-3.0-1.26","17:40:56","1","","","","","","","<div>
            <img class='stim' src=""pictures/food/0.jpg""></div><div class=""button_prompt"">
                    <b>请用数字键0-9回答</b>
                    </div>","","","","","","","","","","","","","","","","","","",""
"569","null","sub_response","html-keyboard-response","113","132479","0.0-1.0-7.0-3.0-2.26","17:40:56","1","","","","","","","<div style='text-align: center;'>
                            <span style=""color: green; font-size: 40px""><b>正确！+1 pts</b></span></div>
                            ","","learn","0","0","0","learn","2","2","[0, 1, 2, 3, 4, 5, 6, 7, 8, 9]","26","8","setsize","3S10A","food","1","2","2","1",""
"null","null","fixation","html-keyboard-response","114","132981","0.0-1.0-7.0-3.0-0.27","17:40:56","1","","","","","","","fixation","","","","","","","","","","","","","","","","","","",""
"553","9","pic_response","html-keyboard-response","115","133534","0.0-1.0-7.0-3.0-1.27","17:40:56","1","","","","","","","<div>
            <img class='stim' src=""pictures/food/2.jpg""></div><div class=""button_prompt"">
                    <b>请用数字键0-9回答</b>
                    </div>","","","","","","","","","","","","","","","","","","",""
"553","null","sub_response","html-keyboard-response","116","134535","0.0-1.0-7.0-3.0-2.27","17:40:56","1","","","","","","","<div style='text-align: center;'>
                            <span style=""color: red; font-size: 40px""><b>错误！+0 pts</b></span></div>
                            ","","learn","2","2","2","learn","9","9","[0, 1, 2, 3, 4, 5, 6, 7, 8, 9]","27","9","setsize","3S10A","food","1","0","8","0",""
"null","null","fixation","html-keyboard-response","117","135042","0.0-1.0-7.0-3.0-0.28","17:40:56","1","","","","","","","fixation","","","","","","","","","","","","","","","","","","",""
"520","3","pic_response","html-keyboard-response","118","135563","0.0-1.0-7.0-3.0-1.28","17:40:56","1","","","","","","","<div>
            <img class='stim' src=""pictures/food/0.jpg""></div><div class=""button_prompt"">
                    <b>请用数字键0-9回答</b>
                    </div>","","","","","","","","","","","","","","","","","","",""
"520","null","sub_response","html-keyboard-response","119","136564","0.0-1.0-7.0-3.0-2.28","17:40:56","1","","","","","","","<div style='text-align: center;'>
                            <span style=""color: green; font-size: 40px""><b>正确！+1 pts</b></span></div>
                            ","","learn","0","0","0","learn","2","2","[0, 1, 2, 3, 4, 5, 6, 7, 8, 9]","28","9","setsize","3S10A","food","1","1","2","1",""
"null","null","fixation","html-keyboard-response","120","137066","0.0-1.0-7.0-3.0-0.29","17:40:56","1","","","","","","","fixation","","","","","","","","","","","","","","","","","","",""
"530","7","pic_response","html-keyboard-response","121","137596","0.0-1.0-7.0-3.0-1.29","17:40:56","1","","","","","","","<div>
            <img class='stim' src=""pictures/food/1.jpg""></div><div class=""button_prompt"">
                    <b>请用数字键0-9回答</b>
                    </div>","","","","","","","","","","","","","","","","","","",""
"530","null","sub_response","html-keyboard-response","122","138598","0.0-1.0-7.0-3.0-2.29","17:40:56","1","","","","","","","<div style='text-align: center;'>
                            <span style=""color: green; font-size: 40px""><b>正确！+1 pts</b></span></div>
                            ","","learn","1","1","1","learn","6","6","[0, 1, 2, 3, 4, 5, 6, 7, 8, 9]","29","9","setsize","3S10A","food","1","2","6","1",""
"null","null","fixation","html-keyboard-response","123","139100","0.0-1.0-7.0-3.0-0.30","17:40:56","1","","","","","","","fixation","","","","","","","","","","","","","","","","","","",""
"390","6","pic_response","html-keyboard-response","124","139491","0.0-1.0-7.0-3.0-1.30","17:40:56","1","","","","","","","<div>
            <img class='stim' src=""pictures/food/2.jpg""></div><div class=""button_prompt"">
                    <b>请用数字键0-9回答</b>
                    </div>","","","","","","","","","","","","","","","","","","",""
"390","null","sub_response","html-keyboard-response","125","140492","0.0-1.0-7.0-3.0-2.30","17:40:56","1","","","","","","","<div style='text-align: center;'>
                            <span style=""color: red; font-size: 40px""><b>错误！+0 pts</b></span></div>
                            ","","learn","2","2","2","learn","9","9","[0, 1, 2, 3, 4, 5, 6, 7, 8, 9]","30","10","setsize","3S10A","food","1","0","5","0",""
"null","null","fixation","html-keyboard-response","126","140993","0.0-1.0-7.0-3.0-0.31","17:40:56","1","","","","","","","fixation","","","","","","","","","","","","","","","","","","",""
"702","3","pic_response","html-keyboard-response","127","141695","0.0-1.0-7.0-3.0-1.31","17:40:56","1","","","","","","","<div>
            <img class='stim' src=""pictures/food/0.jpg""></div><div class=""button_prompt"">
                    <b>请用数字键0-9回答</b>
                    </div>","","","","","","","","","","","","","","","","","","",""
"702","null","sub_response","html-keyboard-response","128","142696","0.0-1.0-7.0-3.0-2.31","17:40:56","1","","","","","","","<div style='text-align: center;'>
                            <span style=""color: green; font-size: 40px""><b>正确！+1 pts</b></span></div>
                            ","","learn","0","0","0","learn","2","2","[0, 1, 2, 3, 4, 5, 6, 7, 8, 9]","31","10","setsize","3S10A","food","1","1","2","1",""
"null","null","fixation","html-keyboard-response","129","143211","0.0-1.0-7.0-3.0-0.32","17:40:56","1","","","","","","","fixation","","","","","","","","","","","","","","","","","","",""
"736","7","pic_response","html-keyboard-response","130","143948","0.0-1.0-7.0-3.0-1.32","17:40:56","1","","","","","","","<div>
            <img class='stim' src=""pictures/food/1.jpg""></div><div class=""button_prompt"">
                    <b>请用数字键0-9回答</b>
                    </div>","","","","","","","","","","","","","","","","","","",""
"736","null","sub_response","html-keyboard-response","131","144949","0.0-1.0-7.0-3.0-2.32","17:40:56","1","","","","","","","<div style='text-align: center;'>
                            <span style=""color: green; font-size: 40px""><b>正确！+1 pts</b></span></div>
                            ","","learn","1","1","1","learn","6","6","[0, 1, 2, 3, 4, 5, 6, 7, 8, 9]","32","10","setsize","3S10A","food","1","2","6","1",""
"null","null","fixation","html-keyboard-response","132","145451","0.0-1.0-7.0-3.0-0.33","17:40:56","1","","","","","","","fixation","","","","","","","","","","","","","","","","","","",""
"1102","7","pic_response","html-keyboard-response","133","146554","0.0-1.0-7.0-3.0-1.33","17:40:56","1","","","","","","","<div>
            <img class='stim' src=""pictures/food/1.jpg""></div><div class=""button_prompt"">
                    <b>请用数字键0-9回答</b>
                    </div>","","","","","","","","","","","","","","","","","","",""
"1102","null","sub_response","html-keyboard-response","134","147555","0.0-1.0-7.0-3.0-2.33","17:40:56","1","","","","","","","<div style='text-align: center;'>
                            <span style=""color: green; font-size: 40px""><b>正确！+1 pts</b></span></div>
                            ","","learn","1","1","1","learn","6","6","[0, 1, 2, 3, 4, 5, 6, 7, 8, 9]","33","11","setsize","3S10A","food","1","3","6","1",""
"null","null","fixation","html-keyboard-response","135","148057","0.0-1.0-7.0-3.0-0.34","17:40:56","1","","","","","","","fixation","","","","","","","","","","","","","","","","","","",""
"1101","0","pic_response","html-keyboard-response","136","149158","0.0-1.0-7.0-3.0-1.34","17:40:56","1","","","","","","","<div>
            <img class='stim' src=""pictures/food/2.jpg""></div><div class=""button_prompt"">
                    <b>请用数字键0-9回答</b>
                    </div>","","","","","","","","","","","","","","","","","","",""
"1101","null","sub_response","html-keyboard-response","137","150160","0.0-1.0-7.0-3.0-2.34","17:40:56","1","","","","","","","<div style='text-align: center;'>
                            <span style=""color: green; font-size: 40px""><b>正确！+1 pts</b></span></div>
                            ","","learn","2","2","2","learn","9","9","[0, 1, 2, 3, 4, 5, 6, 7, 8, 9]","34","11","setsize","3S10A","food","1","4","9","1",""
"null","null","fixation","html-keyboard-response","138","150661","0.0-1.0-7.0-3.0-0.35","17:40:56","1","","","","","","","fixation","","","","","","","","","","","","","","","","","","",""
"420","3","pic_response","html-keyboard-response","139","151082","0.0-1.0-7.0-3.0-1.35","17:40:56","1","","","","","","","<div>
            <img class='stim' src=""pictures/food/0.jpg""></div><div class=""button_prompt"">
                    <b>请用数字键0-9回答</b>
                    </div>","","","","","","","","","","","","","","","","","","",""
"420","null","sub_response","html-keyboard-response","140","152083","0.0-1.0-7.0-3.0-2.35","17:40:56","1","","","","","","","<div style='text-align: center;'>
                            <span style=""color: green; font-size: 40px""><b>正确！+1 pts</b></span></div>
                            ","","learn","0","0","0","learn","2","2","[0, 1, 2, 3, 4, 5, 6, 7, 8, 9]","35","11","setsize","3S10A","food","1","5","2","1",""
"null","null","fixation","html-keyboard-response","141","152584","0.0-1.0-7.0-3.0-0.36","17:40:56","1","","","","","","","fixation","","","","","","","","","","","","","","","","","","",""
"1353","3","pic_response","html-keyboard-response","142","153937","0.0-1.0-7.0-3.0-1.36","17:40:56","1","","","","","","","<div>
            <img class='stim' src=""pictures/food/0.jpg""></div><div class=""button_prompt"">
                    <b>请用数字键0-9回答</b>
                    </div>","","","","","","","","","","","","","","","","","","",""
"1353","null","sub_response","html-keyboard-response","143","154939","0.0-1.0-7.0-3.0-2.36","17:40:56","1","","","","","","","<div style='text-align: center;'>
                            <span style=""color: green; font-size: 40px""><b>正确！+1 pts</b></span></div>
                            ","","learn","0","0","0","learn","2","2","[0, 1, 2, 3, 4, 5, 6, 7, 8, 9]","36","12","setsize","3S10A","food","1","6","2","1",""
"null","null","fixation","html-keyboard-response","144","155441","0.0-1.0-7.0-3.0-0.37","17:40:56","1","","","","","","","fixation","","","","","","","","","","","","","","","","","","",""
"488","7","pic_response","html-keyboard-response","145","155929","0.0-1.0-7.0-3.0-1.37","17:40:56","1","","","","","","","<div>
            <img class='stim' src=""pictures/food/1.jpg""></div><div class=""button_prompt"">
                    <b>请用数字键0-9回答</b>
                    </div>","","","","","","","","","","","","","","","","","","",""
"488","null","sub_response","html-keyboard-response","146","156930","0.0-1.0-7.0-3.0-2.37","17:40:56","1","","","","","","","<div style='text-align: center;'>
                            <span style=""color: green; font-size: 40px""><b>正确！+1 pts</b></span></div>
                            ","","learn","1","1","1","learn","6","6","[0, 1, 2, 3, 4, 5, 6, 7, 8, 9]","37","12","setsize","3S10A","food","1","7","6","1",""
"null","null","fixation","html-keyboard-response","147","157432","0.0-1.0-7.0-3.0-0.38","17:40:56","1","","","","","","","fixation","","","","","","","","","","","","","","","","","","",""
"761","0","pic_response","html-keyboard-response","148","158194","0.0-1.0-7.0-3.0-1.38","17:40:56","1","","","","","","","<div>
            <img class='stim' src=""pictures/food/2.jpg""></div><div class=""button_prompt"">
                    <b>请用数字键0-9回答</b>
                    </div>","","","","","","","","","","","","","","","","","","",""
"761","null","sub_response","html-keyboard-response","149","159196","0.0-1.0-7.0-3.0-2.38","17:40:56","1","","","","","","","<div style='text-align: center;'>
                            <span style=""color: green; font-size: 40px""><b>正确！+1 pts</b></span></div>
                            ","","learn","2","2","2","learn","9","9","[0, 1, 2, 3, 4, 5, 6, 7, 8, 9]","38","12","setsize","3S10A","food","1","8","9","1",""
"null","null","fixation","html-keyboard-response","150","159699","0.0-1.0-7.0-3.0-0.39","17:40:56","1","","","","","","","fixation","","","","","","","","","","","","","","","","","","",""
"1622","0","pic_response","html-keyboard-response","151","161321","0.0-1.0-7.0-3.0-1.39","17:40:56","1","","","","","","","<div>
            <img class='stim' src=""pictures/food/2.jpg""></div><div class=""button_prompt"">
                    <b>请用数字键0-9回答</b>
                    </div>","","","","","","","","","","","","","","","","","","",""
"1622","null","sub_response","html-keyboard-response","152","162323","0.0-1.0-7.0-3.0-2.39","17:40:56","1","","","","","","","<div style='text-align: center;'>
                            <span style=""color: green; font-size: 40px""><b>正确！+1 pts</b></span></div>
                            ","","learn","2","2","2","learn","9","9","[0, 1, 2, 3, 4, 5, 6, 7, 8, 9]","39","13","setsize","3S10A","food","1","9","9","1",""
"null","null","fixation","html-keyboard-response","153","162824","0.0-1.0-7.0-3.0-0.40","17:40:56","1","","","","","","","fixation","","","","","","","","","","","","","","","","","","",""
"2396","7","pic_response","html-keyboard-response","154","165220","0.0-1.0-7.0-3.0-1.40","17:40:56","1","","","","","","","<div>
            <img class='stim' src=""pictures/food/1.jpg""></div><div class=""button_prompt"">
                    <b>请用数字键0-9回答</b>
                    </div>","","","","","","","","","","","","","","","","","","",""
"2396","null","sub_response","html-keyboard-response","155","166221","0.0-1.0-7.0-3.0-2.40","17:40:56","1","","","","","","","<div style='text-align: center;'>
                            <span style=""color: green; font-size: 40px""><b>正确！+1 pts</b></span></div>
                            ","","learn","1","1","1","learn","6","6","[0, 1, 2, 3, 4, 5, 6, 7, 8, 9]","40","13","setsize","3S10A","food","1","10","6","1",""
"null","null","fixation","html-keyboard-response","156","166724","0.0-1.0-7.0-3.0-0.41","17:40:56","1","","","","","","","fixation","","","","","","","","","","","","","","","","","","",""
"699","3","pic_response","html-keyboard-response","157","167423","0.0-1.0-7.0-3.0-1.41","17:40:56","1","","","","","","","<div>
            <img class='stim' src=""pictures/food/0.jpg""></div><div class=""button_prompt"">
                    <b>请用数字键0-9回答</b>
                    </div>","","","","","","","","","","","","","","","","","","",""
"699","null","sub_response","html-keyboard-response","158","168425","0.0-1.0-7.0-3.0-2.41","17:40:56","1","","","","","","","<div style='text-align: center;'>
                            <span style=""color: green; font-size: 40px""><b>正确！+1 pts</b></span></div>
                            ","","learn","0","0","0","learn","2","2","[0, 1, 2, 3, 4, 5, 6, 7, 8, 9]","41","13","setsize","3S10A","food","1","11","2","1",""
"null","null","fixation","html-keyboard-response","159","168927","0.0-1.0-7.0-3.0-0.42","17:40:56","1","","","","","","","fixation","","","","","","","","","","","","","","","","","","",""
"623","3","pic_response","html-keyboard-response","160","169550","0.0-1.0-7.0-3.0-1.42","17:40:56","1","","","","","","","<div>
            <img class='stim' src=""pictures/food/0.jpg""></div><div class=""button_prompt"">
                    <b>请用数字键0-9回答</b>
                    </div>","","","","","","","","","","","","","","","","","","",""
"623","null","sub_response","html-keyboard-response","161","170552","0.0-1.0-7.0-3.0-2.42","17:40:56","1","","","","","","","<div style='text-align: center;'>
                            <span style=""color: green; font-size: 40px""><b>正确！+1 pts</b></span></div>
                            ","","learn","0","0","0","learn","2","2","[0, 1, 2, 3, 4, 5, 6, 7, 8, 9]","42","14","setsize","3S10A","food","1","12","2","1",""
"null","null","fixation","html-keyboard-response","162","171054","0.0-1.0-7.0-3.0-0.43","17:40:56","1","","","","","","","fixation","","","","","","","","","","","","","","","","","","",""
"1525","0","pic_response","html-keyboard-response","163","172579","0.0-1.0-7.0-3.0-1.43","17:40:56","1","","","","","","","<div>
            <img class='stim' src=""pictures/food/2.jpg""></div><div class=""button_prompt"">
                    <b>请用数字键0-9回答</b>
                    </div>","","","","","","","","","","","","","","","","","","",""
"1525","null","sub_response","html-keyboard-response","164","173581","0.0-1.0-7.0-3.0-2.43","17:40:56","1","","","","","","","<div style='text-align: center;'>
                            <span style=""color: green; font-size: 40px""><b>正确！+1 pts</b></span></div>
                            ","","learn","2","2","2","learn","9","9","[0, 1, 2, 3, 4, 5, 6, 7, 8, 9]","43","14","setsize","3S10A","food","1","13","9","1",""
"null","null","fixation","html-keyboard-response","165","174083","0.0-1.0-7.0-3.0-0.44","17:40:56","1","","","","","","","fixation","","","","","","","","","","","","","","","","","","",""
"915","7","pic_response","html-keyboard-response","166","174998","0.0-1.0-7.0-3.0-1.44","17:40:56","1","","","","","","","<div>
            <img class='stim' src=""pictures/food/1.jpg""></div><div class=""button_prompt"">
                    <b>请用数字键0-9回答</b>
                    </div>","","","","","","","","","","","","","","","","","","",""
"915","null","sub_response","html-keyboard-response","167","175999","0.0-1.0-7.0-3.0-2.44","17:40:56","1","","","","","","","<div style='text-align: center;'>
                            <span style=""color: green; font-size: 40px""><b>正确！+1 pts</b></span></div>
                            ","","learn","1","1","1","learn","6","6","[0, 1, 2, 3, 4, 5, 6, 7, 8, 9]","44","14","setsize","3S10A","food","1","14","6","1",""
"null","null","fixation","html-keyboard-response","168","176501","0.0-1.0-7.0-3.0-0.45","17:40:56","1","","","","","","","fixation","","","","","","","","","","","","","","","","","","",""
"527","3","pic_response","html-keyboard-response","169","177028","0.0-1.0-7.0-3.0-1.45","17:40:56","1","","","","","","","<div>
            <img class='stim' src=""pictures/food/0.jpg""></div><div class=""button_prompt"">
                    <b>请用数字键0-9回答</b>
                    </div>","","","","","","","","","","","","","","","","","","",""
"527","null","sub_response","html-keyboard-response","170","178030","0.0-1.0-7.0-3.0-2.45","17:40:56","1","","","","","","","<div style='text-align: center;'>
                            <span style=""color: green; font-size: 40px""><b>正确！+1 pts</b></span></div>
                            ","","learn","0","0","0","learn","2","2","[0, 1, 2, 3, 4, 5, 6, 7, 8, 9]","45","15","setsize","3S10A","food","1","15","2","1",""
"null","null","fixation","html-keyboard-response","171","178531","0.0-1.0-7.0-3.0-0.46","17:40:56","1","","","","","","","fixation","","","","","","","","","","","","","","","","","","",""
"902","7","pic_response","html-keyboard-response","172","179434","0.0-1.0-7.0-3.0-1.46","17:40:56","1","","","","","","","<div>
            <img class='stim' src=""pictures/food/1.jpg""></div><div class=""button_prompt"">
                    <b>请用数字键0-9回答</b>
                    </div>","","","","","","","","","","","","","","","","","","",""
"902","null","sub_response","html-keyboard-response","173","180442","0.0-1.0-7.0-3.0-2.46","17:40:56","1","","","","","","","<div style='text-align: center;'>
                            <span style=""color: green; font-size: 40px""><b>正确！+1 pts</b></span></div>
                            ","","learn","1","1","1","learn","6","6","[0, 1, 2, 3, 4, 5, 6, 7, 8, 9]","46","15","setsize","3S10A","food","1","16","6","1",""
"null","null","fixation","html-keyboard-response","174","180943","0.0-1.0-7.0-3.0-0.47","17:40:56","1","","","","","","","fixation","","","","","","","","","","","","","","","","","","",""
"689","0","pic_response","html-keyboard-response","175","181633","0.0-1.0-7.0-3.0-1.47","17:40:56","1","","","","","","","<div>
            <img class='stim' src=""pictures/food/2.jpg""></div><div class=""button_prompt"">
                    <b>请用数字键0-9回答</b>
                    </div>","","","","","","","","","","","","","","","","","","",""
"689","null","sub_response","html-keyboard-response","176","182634","0.0-1.0-7.0-3.0-2.47","17:40:56","1","","","","","","","<div style='text-align: center;'>
                            <span style=""color: green; font-size: 40px""><b>正确！+1 pts</b></span></div>
                            ","","learn","2","2","2","learn","9","9","[0, 1, 2, 3, 4, 5, 6, 7, 8, 9]","47","15","setsize","3S10A","food","1","17","9","1",""
"null","null","fixation","html-keyboard-response","177","183136","0.0-1.0-7.0-3.0-0.48","17:40:56","1","","","","","","","fixation","","","","","","","","","","","","","","","","","","",""
"1005","7","pic_response","html-keyboard-response","178","184142","0.0-1.0-7.0-3.0-1.48","17:40:56","1","","","","","","","<div>
            <img class='stim' src=""pictures/food/1.jpg""></div><div class=""button_prompt"">
                    <b>请用数字键0-9回答</b>
                    </div>","","","","","","","","","","","","","","","","","","",""
"1005","null","sub_response","html-keyboard-response","179","185150","0.0-1.0-7.0-3.0-2.48","17:40:56","1","","","","","","","<div style='text-align: center;'>
                            <span style=""color: green; font-size: 40px""><b>正确！+1 pts</b></span></div>
                            ","","learn","1","1","1","learn","6","6","[0, 1, 2, 3, 4, 5, 6, 7, 8, 9]","48","16","setsize","3S10A","food","1","18","6","1",""
"null","null","fixation","html-keyboard-response","180","185651","0.0-1.0-7.0-3.0-0.49","17:40:56","1","","","","","","","fixation","","","","","","","","","","","","","","","","","","",""
"672","0","pic_response","html-keyboard-response","181","186323","0.0-1.0-7.0-3.0-1.49","17:40:56","1","","","","","","","<div>
            <img class='stim' src=""pictures/food/2.jpg""></div><div class=""button_prompt"">
                    <b>请用数字键0-9回答</b>
                    </div>","","","","","","","","","","","","","","","","","","",""
"672","null","sub_response","html-keyboard-response","182","187333","0.0-1.0-7.0-3.0-2.49","17:40:56","1","","","","","","","<div style='text-align: center;'>
                            <span style=""color: green; font-size: 40px""><b>正确！+1 pts</b></span></div>
                            ","","learn","2","2","2","learn","9","9","[0, 1, 2, 3, 4, 5, 6, 7, 8, 9]","49","16","setsize","3S10A","food","1","19","9","1",""
"null","null","fixation","html-keyboard-response","183","187834","0.0-1.0-7.0-3.0-0.50","17:40:56","1","","","","","","","fixation","","","","","","","","","","","","","","","","","","",""
"496","3","pic_response","html-keyboard-response","184","188331","0.0-1.0-7.0-3.0-1.50","17:40:56","1","","","","","","","<div>
            <img class='stim' src=""pictures/food/0.jpg""></div><div class=""button_prompt"">
                    <b>请用数字键0-9回答</b>
                    </div>","","","","","","","","","","","","","","","","","","",""
"496","null","sub_response","html-keyboard-response","185","189331","0.0-1.0-7.0-3.0-2.50","17:40:56","1","","","","","","","<div style='text-align: center;'>
                            <span style=""color: green; font-size: 40px""><b>正确！+1 pts</b></span></div>
                            ","","learn","0","0","0","learn","2","2","[0, 1, 2, 3, 4, 5, 6, 7, 8, 9]","50","16","setsize","3S10A","food","1","20","2","1",""
"null","null","fixation","html-keyboard-response","186","189833","0.0-1.0-7.0-3.0-0.51","17:40:56","1","","","","","","","fixation","","","","","","","","","","","","","","","","","","",""
"565","3","pic_response","html-keyboard-response","187","190399","0.0-1.0-7.0-3.0-1.51","17:40:56","1","","","","","","","<div>
            <img class='stim' src=""pictures/food/0.jpg""></div><div class=""button_prompt"">
                    <b>请用数字键0-9回答</b>
                    </div>","","","","","","","","","","","","","","","","","","",""
"565","null","sub_response","html-keyboard-response","188","191400","0.0-1.0-7.0-3.0-2.51","17:40:56","1","","","","","","","<div style='text-align: center;'>
                            <span style=""color: green; font-size: 40px""><b>正确！+1 pts</b></span></div>
                            ","","learn","0","0","0","learn","2","2","[0, 1, 2, 3, 4, 5, 6, 7, 8, 9]","51","17","setsize","3S10A","food","1","21","2","1",""
"null","null","fixation","html-keyboard-response","189","191902","0.0-1.0-7.0-3.0-0.52","17:40:56","1","","","","","","","fixation","","","","","","","","","","","","","","","","","","",""
"657","0","pic_response","html-keyboard-response","190","192559","0.0-1.0-7.0-3.0-1.52","17:40:56","1","","","","","","","<div>
            <img class='stim' src=""pictures/food/2.jpg""></div><div class=""button_prompt"">
                    <b>请用数字键0-9回答</b>
                    </div>","","","","","","","","","","","","","","","","","","",""
"657","null","sub_response","html-keyboard-response","191","193561","0.0-1.0-7.0-3.0-2.52","17:40:56","1","","","","","","","<div style='text-align: center;'>
                            <span style=""color: green; font-size: 40px""><b>正确！+1 pts</b></span></div>
                            ","","learn","2","2","2","learn","9","9","[0, 1, 2, 3, 4, 5, 6, 7, 8, 9]","52","17","setsize","3S10A","food","1","22","9","1",""
"null","null","fixation","html-keyboard-response","192","194063","0.0-1.0-7.0-3.0-0.53","17:40:56","1","","","","","","","fixation","","","","","","","","","","","","","","","","","","",""
"490","7","pic_response","html-keyboard-response","193","194553","0.0-1.0-7.0-3.0-1.53","17:40:56","1","","","","","","","<div>
            <img class='stim' src=""pictures/food/1.jpg""></div><div class=""button_prompt"">
                    <b>请用数字键0-9回答</b>
                    </div>","","","","","","","","","","","","","","","","","","",""
"490","null","sub_response","html-keyboard-response","194","195555","0.0-1.0-7.0-3.0-2.53","17:40:56","1","","","","","","","<div style='text-align: center;'>
                            <span style=""color: green; font-size: 40px""><b>正确！+1 pts</b></span></div>
                            ","","learn","1","1","1","learn","6","6","[0, 1, 2, 3, 4, 5, 6, 7, 8, 9]","53","17","setsize","3S10A","food","1","23","6","1",""
"null","null","fixation","html-keyboard-response","195","196057","0.0-1.0-7.0-3.0-0.54","17:40:56","1","","","","","","","fixation","","","","","","","","","","","","","","","","","","",""
"1036","0","pic_response","html-keyboard-response","196","197093","0.0-1.0-7.0-3.0-1.54","17:40:56","1","","","","","","","<div>
            <img class='stim' src=""pictures/food/2.jpg""></div><div class=""button_prompt"">
                    <b>请用数字键0-9回答</b>
                    </div>","","","","","","","","","","","","","","","","","","",""
"1036","null","sub_response","html-keyboard-response","197","198095","0.0-1.0-7.0-3.0-2.54","17:40:56","1","","","","","","","<div style='text-align: center;'>
                            <span style=""color: green; font-size: 40px""><b>正确！+1 pts</b></span></div>
                            ","","learn","2","2","2","learn","9","9","[0, 1, 2, 3, 4, 5, 6, 7, 8, 9]","54","18","setsize","3S10A","food","1","24","9","1",""
"null","null","fixation","html-keyboard-response","198","198596","0.0-1.0-7.0-3.0-0.55","17:40:56","1","","","","","","","fixation","","","","","","","","","","","","","","","","","","",""
"809","7","pic_response","html-keyboard-response","199","199406","0.0-1.0-7.0-3.0-1.55","17:40:56","1","","","","","","","<div>
            <img class='stim' src=""pictures/food/1.jpg""></div><div class=""button_prompt"">
                    <b>请用数字键0-9回答</b>
                    </div>","","","","","","","","","","","","","","","","","","",""
"809","null","sub_response","html-keyboard-response","200","200408","0.0-1.0-7.0-3.0-2.55","17:40:56","1","","","","","","","<div style='text-align: center;'>
                            <span style=""color: green; font-size: 40px""><b>正确！+1 pts</b></span></div>
                            ","","learn","1","1","1","learn","6","6","[0, 1, 2, 3, 4, 5, 6, 7, 8, 9]","55","18","setsize","3S10A","food","1","25","6","1",""
"null","null","fixation","html-keyboard-response","201","200910","0.0-1.0-7.0-3.0-0.56","17:40:56","1","","","","","","","fixation","","","","","","","","","","","","","","","","","","",""
"599","3","pic_response","html-keyboard-response","202","201509","0.0-1.0-7.0-3.0-1.56","17:40:56","1","","","","","","","<div>
            <img class='stim' src=""pictures/food/0.jpg""></div><div class=""button_prompt"">
                    <b>请用数字键0-9回答</b>
                    </div>","","","","","","","","","","","","","","","","","","",""
"599","null","sub_response","html-keyboard-response","203","202511","0.0-1.0-7.0-3.0-2.56","17:40:56","1","","","","","","","<div style='text-align: center;'>
                            <span style=""color: green; font-size: 40px""><b>正确！+1 pts</b></span></div>
                            ","","learn","0","0","0","learn","2","2","[0, 1, 2, 3, 4, 5, 6, 7, 8, 9]","56","18","setsize","3S10A","food","1","26","2","1",""
"null","null","fixation","html-keyboard-response","204","203013","0.0-1.0-7.0-3.0-0.57","17:40:56","1","","","","","","","fixation","","","","","","","","","","","","","","","","","","",""
"599","7","pic_response","html-keyboard-response","205","203612","0.0-1.0-7.0-3.0-1.57","17:40:56","1","","","","","","","<div>
            <img class='stim' src=""pictures/food/1.jpg""></div><div class=""button_prompt"">
                    <b>请用数字键0-9回答</b>
                    </div>","","","","","","","","","","","","","","","","","","",""
"599","null","sub_response","html-keyboard-response","206","204614","0.0-1.0-7.0-3.0-2.57","17:40:56","1","","","","","","","<div style='text-align: center;'>
                            <span style=""color: green; font-size: 40px""><b>正确！+1 pts</b></span></div>
                            ","","learn","1","1","1","learn","6","6","[0, 1, 2, 3, 4, 5, 6, 7, 8, 9]","57","19","setsize","3S10A","food","1","27","6","1",""
"null","null","fixation","html-keyboard-response","207","205116","0.0-1.0-7.0-3.0-0.58","17:40:56","1","","","","","","","fixation","","","","","","","","","","","","","","","","","","",""
"499","3","pic_response","html-keyboard-response","208","205615","0.0-1.0-7.0-3.0-1.58","17:40:56","1","","","","","","","<div>
            <img class='stim' src=""pictures/food/0.jpg""></div><div class=""button_prompt"">
                    <b>请用数字键0-9回答</b>
                    </div>","","","","","","","","","","","","","","","","","","",""
"499","null","sub_response","html-keyboard-response","209","206616","0.0-1.0-7.0-3.0-2.58","17:40:56","1","","","","","","","<div style='text-align: center;'>
                            <span style=""color: green; font-size: 40px""><b>正确！+1 pts</b></span></div>
                            ","","learn","0","0","0","learn","2","2","[0, 1, 2, 3, 4, 5, 6, 7, 8, 9]","58","19","setsize","3S10A","food","1","28","2","1",""
"null","null","fixation","html-keyboard-response","210","207118","0.0-1.0-7.0-3.0-0.59","17:40:56","1","","","","","","","fixation","","","","","","","","","","","","","","","","","","",""
"475","0","pic_response","html-keyboard-response","211","207593","0.0-1.0-7.0-3.0-1.59","17:40:56","1","","","","","","","<div>
            <img class='stim' src=""pictures/food/2.jpg""></div><div class=""button_prompt"">
                    <b>请用数字键0-9回答</b>
                    </div>","","","","","","","","","","","","","","","","","","",""
"475","null","sub_response","html-keyboard-response","212","208595","0.0-1.0-7.0-3.0-2.59","17:40:56","1","","","","","","","<div style='text-align: center;'>
                            <span style=""color: green; font-size: 40px""><b>正确！+1 pts</b></span></div>
                            ","","learn","2","2","2","learn","9","9","[0, 1, 2, 3, 4, 5, 6, 7, 8, 9]","59","19","setsize","3S10A","food","1","29","9","1",""
"null","null","fixation","html-keyboard-response","213","209097","0.0-1.0-7.0-3.0-0.60","17:40:56","1","","","","","","","fixation","","","","","","","","","","","","","","","","","","",""
"393","3","pic_response","html-keyboard-response","214","209490","0.0-1.0-7.0-3.0-1.60","17:40:56","1","","","","","","","<div>
            <img class='stim' src=""pictures/food/0.jpg""></div><div class=""button_prompt"">
                    <b>请用数字键0-9回答</b>
                    </div>","","","","","","","","","","","","","","","","","","",""
"393","null","sub_response","html-keyboard-response","215","210501","0.0-1.0-7.0-3.0-2.60","17:40:56","1","","","","","","","<div style='text-align: center;'>
                            <span style=""color: green; font-size: 40px""><b>正确！+1 pts</b></span></div>
                            ","","learn","0","0","0","learn","2","2","[0, 1, 2, 3, 4, 5, 6, 7, 8, 9]","60","20","setsize","3S10A","food","1","30","2","1",""
"null","null","fixation","html-keyboard-response","216","211003","0.0-1.0-7.0-3.0-0.61","17:40:56","1","","","","","","","fixation","","","","","","","","","","","","","","","","","","",""
"496","7","pic_response","html-keyboard-response","217","211500","0.0-1.0-7.0-3.0-1.61","17:40:56","1","","","","","","","<div>
            <img class='stim' src=""pictures/food/1.jpg""></div><div class=""button_prompt"">
                    <b>请用数字键0-9回答</b>
                    </div>","","","","","","","","","","","","","","","","","","",""
"496","null","sub_response","html-keyboard-response","218","212501","0.0-1.0-7.0-3.0-2.61","17:40:56","1","","","","","","","<div style='text-align: center;'>
                            <span style=""color: green; font-size: 40px""><b>正确！+1 pts</b></span></div>
                            ","","learn","1","1","1","learn","6","6","[0, 1, 2, 3, 4, 5, 6, 7, 8, 9]","61","20","setsize","3S10A","food","1","31","6","1",""
"null","null","fixation","html-keyboard-response","219","213003","0.0-1.0-7.0-3.0-0.62","17:40:56","1","","","","","","","fixation","","","","","","","","","","","","","","","","","","",""
"589","3","pic_response","html-keyboard-response","220","213593","0.0-1.0-7.0-3.0-1.62","17:40:56","1","","","","","","","<div>
            <img class='stim' src=""pictures/food/2.jpg""></div><div class=""button_prompt"">
                    <b>请用数字键0-9回答</b>
                    </div>","","","","","","","","","","","","","","","","","","",""
"589","null","sub_response","html-keyboard-response","221","214602","0.0-1.0-7.0-3.0-2.62","17:40:56","1","","","","","","","<div style='text-align: center;'>
                            <span style=""color: red; font-size: 40px""><b>错误！+0 pts</b></span></div>
                            ","","learn","2","2","2","learn","9","9","[0, 1, 2, 3, 4, 5, 6, 7, 8, 9]","62","20","setsize","3S10A","food","1","0","2","0",""
"null","null","fixation","html-keyboard-response","222","215104","0.0-1.0-7.0-3.0-0.63","17:40:56","1","","","","","","","fixation","","","","","","","","","","","","","","","","","","",""
"370","3","pic_response","html-keyboard-response","223","215474","0.0-1.0-7.0-3.0-1.63","17:40:56","1","","","","","","","<div>
            <img class='stim' src=""pictures/food/0.jpg""></div><div class=""button_prompt"">
                    <b>请用数字键0-9回答</b>
                    </div>","","","","","","","","","","","","","","","","","","",""
"370","null","sub_response","html-keyboard-response","224","216475","0.0-1.0-7.0-3.0-2.63","17:40:56","1","","","","","","","<div style='text-align: center;'>
                            <span style=""color: green; font-size: 40px""><b>正确！+1 pts</b></span></div>
                            ","","learn","0","0","0","learn","2","2","[0, 1, 2, 3, 4, 5, 6, 7, 8, 9]","63","21","setsize","3S10A","food","1","1","2","1",""
"null","null","fixation","html-keyboard-response","225","216977","0.0-1.0-7.0-3.0-0.64","17:40:56","1","","","","","","","fixation","","","","","","","","","","","","","","","","","","",""
"410","0","pic_response","html-keyboard-response","226","217387","0.0-1.0-7.0-3.0-1.64","17:40:56","1","","","","","","","<div>
            <img class='stim' src=""pictures/food/2.jpg""></div><div class=""button_prompt"">
                    <b>请用数字键0-9回答</b>
                    </div>","","","","","","","","","","","","","","","","","","",""
"410","null","sub_response","html-keyboard-response","227","218388","0.0-1.0-7.0-3.0-2.64","17:40:56","1","","","","","","","<div style='text-align: center;'>
                            <span style=""color: green; font-size: 40px""><b>正确！+1 pts</b></span></div>
                            ","","learn","2","2","2","learn","9","9","[0, 1, 2, 3, 4, 5, 6, 7, 8, 9]","64","21","setsize","3S10A","food","1","2","9","1",""
"null","null","fixation","html-keyboard-response","228","218889","0.0-1.0-7.0-3.0-0.65","17:40:56","1","","","","","","","fixation","","","","","","","","","","","","","","","","","","",""
"849","7","pic_response","html-keyboard-response","229","219739","0.0-1.0-7.0-3.0-1.65","17:40:56","1","","","","","","","<div>
            <img class='stim' src=""pictures/food/1.jpg""></div><div class=""button_prompt"">
                    <b>请用数字键0-9回答</b>
                    </div>","","","","","","","","","","","","","","","","","","",""
"849","null","sub_response","html-keyboard-response","230","220740","0.0-1.0-7.0-3.0-2.65","17:40:56","1","","","","","","","<div style='text-align: center;'>
                            <span style=""color: green; font-size: 40px""><b>正确！+1 pts</b></span></div>
                            ","","learn","1","1","1","learn","6","6","[0, 1, 2, 3, 4, 5, 6, 7, 8, 9]","65","21","setsize","3S10A","food","1","3","6","1",""
"null","null","fixation","html-keyboard-response","231","221241","0.0-1.0-7.0-3.0-0.66","17:40:56","1","","","","","","","fixation","","","","","","","","","","","","","","","","","","",""
"498","7","pic_response","html-keyboard-response","232","221739","0.0-1.0-7.0-3.0-1.66","17:40:56","1","","","","","","","<div>
            <img class='stim' src=""pictures/food/1.jpg""></div><div class=""button_prompt"">
                    <b>请用数字键0-9回答</b>
                    </div>","","","","","","","","","","","","","","","","","","",""
"498","null","sub_response","html-keyboard-response","233","222741","0.0-1.0-7.0-3.0-2.66","17:40:56","1","","","","","","","<div style='text-align: center;'>
                            <span style=""color: green; font-size: 40px""><b>正确！+1 pts</b></span></div>
                            ","","learn","1","1","1","learn","6","6","[0, 1, 2, 3, 4, 5, 6, 7, 8, 9]","66","22","setsize","3S10A","food","1","4","6","1",""
"null","null","fixation","html-keyboard-response","234","223242","0.0-1.0-7.0-3.0-0.67","17:40:56","1","","","","","","","fixation","","","","","","","","","","","","","","","","","","",""
"1071","0","pic_response","html-keyboard-response","235","224313","0.0-1.0-7.0-3.0-1.67","17:40:56","1","","","","","","","<div>
            <img class='stim' src=""pictures/food/2.jpg""></div><div class=""button_prompt"">
                    <b>请用数字键0-9回答</b>
                    </div>","","","","","","","","","","","","","","","","","","",""
"1071","null","sub_response","html-keyboard-response","236","225315","0.0-1.0-7.0-3.0-2.67","17:40:56","1","","","","","","","<div style='text-align: center;'>
                            <span style=""color: green; font-size: 40px""><b>正确！+1 pts</b></span></div>
                            ","","learn","2","2","2","learn","9","9","[0, 1, 2, 3, 4, 5, 6, 7, 8, 9]","67","22","setsize","3S10A","food","1","5","9","1",""
"null","null","fixation","html-keyboard-response","237","225830","0.0-1.0-7.0-3.0-0.68","17:40:56","1","","","","","","","fixation","","","","","","","","","","","","","","","","","","",""
"443","3","pic_response","html-keyboard-response","238","226274","0.0-1.0-7.0-3.0-1.68","17:40:56","1","","","","","","","<div>
            <img class='stim' src=""pictures/food/0.jpg""></div><div class=""button_prompt"">
                    <b>请用数字键0-9回答</b>
                    </div>","","","","","","","","","","","","","","","","","","",""
"443","null","sub_response","html-keyboard-response","239","227289","0.0-1.0-7.0-3.0-2.68","17:40:56","1","","","","","","","<div style='text-align: center;'>
                            <span style=""color: green; font-size: 40px""><b>正确！+1 pts</b></span></div>
                            ","","learn","0","0","0","learn","2","2","[0, 1, 2, 3, 4, 5, 6, 7, 8, 9]","68","22","setsize","3S10A","food","1","6","2","1",""
"null","null","fixation","html-keyboard-response","240","227791","0.0-1.0-7.0-3.0-0.69","17:40:56","1","","","","","","","fixation","","","","","","","","","","","","","","","","","","",""
"1070","7","pic_response","html-keyboard-response","241","228861","0.0-1.0-7.0-3.0-1.69","17:40:56","1","","","","","","","<div>
            <img class='stim' src=""pictures/food/1.jpg""></div><div class=""button_prompt"">
                    <b>请用数字键0-9回答</b>
                    </div>","","","","","","","","","","","","","","","","","","",""
"1070","null","sub_response","html-keyboard-response","242","229863","0.0-1.0-7.0-3.0-2.69","17:40:56","1","","","","","","","<div style='text-align: center;'>
                            <span style=""color: green; font-size: 40px""><b>正确！+1 pts</b></span></div>
                            ","","learn","1","1","1","learn","6","6","[0, 1, 2, 3, 4, 5, 6, 7, 8, 9]","69","23","setsize","3S10A","food","1","7","6","1",""
"1895"," ","","html-keyboard-response","243","231758","0.0-1.0-8.0","17:40:56","1","","","","","","","<div style=""font-size: 25px""><p>距下一个实验开始还有</p><div style=""font-size: 50px; color: blue""><p><span id=""clock"">1:00</span></div></p><p>按""空格""跳过休息</p></div>","","","","","","","","","","","","","","","","","","",""
"","","","preload","244","231928","0.0-1.0-9.0-0.0","17:40:56","1","true","false","[]","[]","[]","","","","","","","","","","","","","","","","","","","","",""
"1094"," ","","html-keyboard-response","245","233022","0.0-1.0-9.0-1.0","17:40:56","1","","","","","","","<div style='font-size: 32px; text-align: center;'
                    <p>请学习图片和数字之间的对应关系</p>
                    <p>我们将<span style='color: blue'><b> 告诉 </b></span>您选择的对错。请根据反馈学习。</p>
                    <p>请按""空格""继续实验。</p></div>","","","","","","","","","","","","","","","","","","",""
"3954"," ","inst","html-keyboard-response","246","236976","0.0-1.0-9.0-2.0","17:40:56","1","","","","","","","<img class='instruct_stim' src=""instruction/furniture10.PNG""></div>","","","","","","","","","","","","","","","","","","",""
"null","null","fixation","html-keyboard-response","247","237477","0.0-1.0-9.0-3.0-0.0","17:40:56","1","","","","","","","fixation","","","","","","","","","","","","","","","","","","",""
"1395","3","pic_response","html-keyboard-response","248","238873","0.0-1.0-9.0-3.0-1.0","17:40:56","1","","","","","","","<div>
            <img class='stim' src=""pictures/furniture/2.jpg""></div><div class=""button_prompt"">
                        <b>请用数字键1-3回答</b>
                        </div>","","","","","","","","","","","","","","","","","","",""
"1395","null","sub_response","html-keyboard-response","249","239874","0.0-1.0-9.0-3.0-2.0","17:40:56","1","","","","","","","<div style='text-align: center;'>
                            <span style=""color: red; font-size: 40px""><b>错误！+0 pts</b></span></div>
                            ","","learn","2","2","2","learn","0","0","[0, 1, 2]","0","0","setsize","10S3A","furniture","2","0","2","0",""
"null","null","fixation","html-keyboard-response","250","240376","0.0-1.0-9.0-3.0-0.1","17:40:56","1","","","","","","","fixation","","","","","","","","","","","","","","","","","","",""
"635","1","pic_response","html-keyboard-response","251","241011","0.0-1.0-9.0-3.0-1.1","17:40:56","1","","","","","","","<div>
            <img class='stim' src=""pictures/furniture/5.jpg""></div><div class=""button_prompt"">
                        <b>请用数字键1-3回答</b>
                        </div>","","","","","","","","","","","","","","","","","","",""
"635","null","sub_response","html-keyboard-response","252","242013","0.0-1.0-9.0-3.0-2.1","17:40:56","1","","","","","","","<div style='text-align: center;'>
                            <span style=""color: red; font-size: 40px""><b>错误！+0 pts</b></span></div>
                            ","","learn","5","5","5","learn","1","1","[0, 1, 2]","1","0","setsize","10S3A","furniture","2","0","0","0",""
"null","null","fixation","html-keyboard-response","253","242514","0.0-1.0-9.0-3.0-0.2","17:40:56","1","","","","","","","fixation","","","","","","","","","","","","","","","","","","",""
"507","1","pic_response","html-keyboard-response","254","243021","0.0-1.0-9.0-3.0-1.2","17:40:56","1","","","","","","","<div>
            <img class='stim' src=""pictures/furniture/8.jpg""></div><div class=""button_prompt"">
                        <b>请用数字键1-3回答</b>
                        </div>","","","","","","","","","","","","","","","","","","",""
"507","null","sub_response","html-keyboard-response","255","244023","0.0-1.0-9.0-3.0-2.2","17:40:56","1","","","","","","","<div style='text-align: center;'>
                            <span style=""color: red; font-size: 40px""><b>错误！+0 pts</b></span></div>
                            ","","learn","8","8","8","learn","2","2","[0, 1, 2]","2","0","setsize","10S3A","furniture","2","0","0","0",""
"null","null","fixation","html-keyboard-response","256","244525","0.0-1.0-9.0-3.0-0.3","17:40:56","1","","","","","","","fixation","","","","","","","","","","","","","","","","","","",""
"463","1","pic_response","html-keyboard-response","257","244989","0.0-1.0-9.0-3.0-1.3","17:40:56","1","","","","","","","<div>
            <img class='stim' src=""pictures/furniture/1.jpg""></div><div class=""button_prompt"">
                        <b>请用数字键1-3回答</b>
                        </div>","","","","","","","","","","","","","","","","","","",""
"463","null","sub_response","html-keyboard-response","258","245989","0.0-1.0-9.0-3.0-2.3","17:40:56","1","","","","","","","<div style='text-align: center;'>
                            <span style=""color: green; font-size: 40px""><b>正确！+1 pts</b></span></div>
                            ","","learn","1","1","1","learn","0","0","[0, 1, 2]","3","0","setsize","10S3A","furniture","2","1","0","1",""
"null","null","fixation","html-keyboard-response","259","246491","0.0-1.0-9.0-3.0-0.4","17:40:56","1","","","","","","","fixation","","","","","","","","","","","","","","","","","","",""
"587","2","pic_response","html-keyboard-response","260","247079","0.0-1.0-9.0-3.0-1.4","17:40:56","1","","","","","","","<div>
            <img class='stim' src=""pictures/furniture/7.jpg""></div><div class=""button_prompt"">
                        <b>请用数字键1-3回答</b>
                        </div>","","","","","","","","","","","","","","","","","","",""
"587","null","sub_response","html-keyboard-response","261","248080","0.0-1.0-9.0-3.0-2.4","17:40:56","1","","","","","","","<div style='text-align: center;'>
                            <span style=""color: red; font-size: 40px""><b>错误！+0 pts</b></span></div>
                            ","","learn","7","7","7","learn","2","2","[0, 1, 2]","4","0","setsize","10S3A","furniture","2","0","1","0",""
"null","null","fixation","html-keyboard-response","262","248582","0.0-1.0-9.0-3.0-0.5","17:40:56","1","","","","","","","fixation","","","","","","","","","","","","","","","","","","",""
"442","1","pic_response","html-keyboard-response","263","249024","0.0-1.0-9.0-3.0-1.5","17:40:56","1","","","","","","","<div>
            <img class='stim' src=""pictures/furniture/0.jpg""></div><div class=""button_prompt"">
                        <b>请用数字键1-3回答</b>
                        </div>","","","","","","","","","","","","","","","","","","",""
"442","null","sub_response","html-keyboard-response","264","250026","0.0-1.0-9.0-3.0-2.5","17:40:56","1","","","","","","","<div style='text-align: center;'>
                            <span style=""color: green; font-size: 40px""><b>正确！+1 pts</b></span></div>
                            ","","learn","0","0","0","learn","0","0","[0, 1, 2]","5","0","setsize","10S3A","furniture","2","1","0","1",""
"null","null","fixation","html-keyboard-response","265","250527","0.0-1.0-9.0-3.0-0.6","17:40:56","1","","","","","","","fixation","","","","","","","","","","","","","","","","","","",""
"717","1","pic_response","html-keyboard-response","266","251245","0.0-1.0-9.0-3.0-1.6","17:40:56","1","","","","","","","<div>
            <img class='stim' src=""pictures/furniture/6.jpg""></div><div class=""button_prompt"">
                        <b>请用数字键1-3回答</b>
                        </div>","","","","","","","","","","","","","","","","","","",""
"717","null","sub_response","html-keyboard-response","267","252260","0.0-1.0-9.0-3.0-2.6","17:40:56","1","","","","","","","<div style='text-align: center;'>
                            <span style=""color: red; font-size: 40px""><b>错误！+0 pts</b></span></div>
                            ","","learn","6","6","6","learn","2","2","[0, 1, 2]","6","0","setsize","10S3A","furniture","2","0","0","0",""
"null","null","fixation","html-keyboard-response","268","252761","0.0-1.0-9.0-3.0-0.7","17:40:56","1","","","","","","","fixation","","","","","","","","","","","","","","","","","","",""
"510","1","pic_response","html-keyboard-response","269","253271","0.0-1.0-9.0-3.0-1.7","17:40:56","1","","","","","","","<div>
            <img class='stim' src=""pictures/furniture/4.jpg""></div><div class=""button_prompt"">
                        <b>请用数字键1-3回答</b>
                        </div>","","","","","","","","","","","","","","","","","","",""
"510","null","sub_response","html-keyboard-response","270","254273","0.0-1.0-9.0-3.0-2.7","17:40:56","1","","","","","","","<div style='text-align: center;'>
                            <span style=""color: red; font-size: 40px""><b>错误！+0 pts</b></span></div>
                            ","","learn","4","4","4","learn","1","1","[0, 1, 2]","7","0","setsize","10S3A","furniture","2","0","0","0",""
"null","null","fixation","html-keyboard-response","271","254775","0.0-1.0-9.0-3.0-0.8","17:40:56","1","","","","","","","fixation","","","","","","","","","","","","","","","","","","",""
"538","1","pic_response","html-keyboard-response","272","255313","0.0-1.0-9.0-3.0-1.8","17:40:56","1","","","","","","","<div>
            <img class='stim' src=""pictures/furniture/3.jpg""></div><div class=""button_prompt"">
                        <b>请用数字键1-3回答</b>
                        </div>","","","","","","","","","","","","","","","","","","",""
"538","null","sub_response","html-keyboard-response","273","256314","0.0-1.0-9.0-3.0-2.8","17:40:56","1","","","","","","","<div style='text-align: center;'>
                            <span style=""color: red; font-size: 40px""><b>错误！+0 pts</b></span></div>
                            ","","learn","3","3","3","learn","1","1","[0, 1, 2]","8","0","setsize","10S3A","furniture","2","0","0","0",""
"null","null","fixation","html-keyboard-response","274","256817","0.0-1.0-9.0-3.0-0.9","17:40:56","1","","","","","","","fixation","","","","","","","","","","","","","","","","","","",""
"524","1","pic_response","html-keyboard-response","275","257341","0.0-1.0-9.0-3.0-1.9","17:40:56","1","","","","","","","<div>
            <img class='stim' src=""pictures/furniture/9.jpg""></div><div class=""button_prompt"">
                        <b>请用数字键1-3回答</b>
                        </div>","","","","","","","","","","","","","","","","","","",""
"524","null","sub_response","html-keyboard-response","276","258342","0.0-1.0-9.0-3.0-2.9","17:40:56","1","","","","","","","<div style='text-align: center;'>
                            <span style=""color: red; font-size: 40px""><b>错误！+0 pts</b></span></div>
                            ","","learn","9","9","9","learn","2","2","[0, 1, 2]","9","0","setsize","10S3A","furniture","2","0","0","0",""
"null","null","fixation","html-keyboard-response","277","258844","0.0-1.0-9.0-3.0-0.10","17:40:56","1","","","","","","","fixation","","","","","","","","","","","","","","","","","","",""
"540","1","pic_response","html-keyboard-response","278","259385","0.0-1.0-9.0-3.0-1.10","17:40:56","1","","","","","","","<div>
            <img class='stim' src=""pictures/furniture/9.jpg""></div><div class=""button_prompt"">
                        <b>请用数字键1-3回答</b>
                        </div>","","","","","","","","","","","","","","","","","","",""
"540","null","sub_response","html-keyboard-response","279","260386","0.0-1.0-9.0-3.0-2.10","17:40:56","1","","","","","","","<div style='text-align: center;'>
                            <span style=""color: red; font-size: 40px""><b>错误！+0 pts</b></span></div>
                            ","","learn","9","9","9","learn","2","2","[0, 1, 2]","10","1","setsize","10S3A","furniture","2","0","0","0",""
"null","null","fixation","html-keyboard-response","280","260888","0.0-1.0-9.0-3.0-0.11","17:40:56","1","","","","","","","fixation","","","","","","","","","","","","","","","","","","",""
"737","2","pic_response","html-keyboard-response","281","261625","0.0-1.0-9.0-3.0-1.11","17:40:56","1","","","","","","","<div>
            <img class='stim' src=""pictures/furniture/6.jpg""></div><div class=""button_prompt"">
                        <b>请用数字键1-3回答</b>
                        </div>","","","","","","","","","","","","","","","","","","",""
"737","null","sub_response","html-keyboard-response","282","262626","0.0-1.0-9.0-3.0-2.11","17:40:56","1","","","","","","","<div style='text-align: center;'>
                            <span style=""color: red; font-size: 40px""><b>错误！+0 pts</b></span></div>
                            ","","learn","6","6","6","learn","2","2","[0, 1, 2]","11","1","setsize","10S3A","furniture","2","0","1","0",""
"null","null","fixation","html-keyboard-response","283","263128","0.0-1.0-9.0-3.0-0.12","17:40:56","1","","","","","","","fixation","","","","","","","","","","","","","","","","","","",""
"1419","3","pic_response","html-keyboard-response","284","264547","0.0-1.0-9.0-3.0-1.12","17:40:56","1","","","","","","","<div>
            <img class='stim' src=""pictures/furniture/8.jpg""></div><div class=""button_prompt"">
                        <b>请用数字键1-3回答</b>
                        </div>","","","","","","","","","","","","","","","","","","",""
"1419","null","sub_response","html-keyboard-response","285","265548","0.0-1.0-9.0-3.0-2.12","17:40:56","1","","","","","","","<div style='text-align: center;'>
                            <span style=""color: green; font-size: 40px""><b>正确！+1 pts</b></span></div>
                            ","","learn","8","8","8","learn","2","2","[0, 1, 2]","12","1","setsize","10S3A","furniture","2","1","2","1",""
"null","null","fixation","html-keyboard-response","286","266050","0.0-1.0-9.0-3.0-0.13","17:40:56","1","","","","","","","fixation","","","","","","","","","","","","","","","","","","",""
"841","3","pic_response","html-keyboard-response","287","266891","0.0-1.0-9.0-3.0-1.13","17:40:56","1","","","","","","","<div>
            <img class='stim' src=""pictures/furniture/3.jpg""></div><div class=""button_prompt"">
                        <b>请用数字键1-3回答</b>
                        </div>","","","","","","","","","","","","","","","","","","",""
"841","null","sub_response","html-keyboard-response","288","267892","0.0-1.0-9.0-3.0-2.13","17:40:56","1","","","","","","","<div style='text-align: center;'>
                            <span style=""color: red; font-size: 40px""><b>错误！+0 pts</b></span></div>
                            ","","learn","3","3","3","learn","1","1","[0, 1, 2]","13","1","setsize","10S3A","furniture","2","0","2","0",""
"null","null","fixation","html-keyboard-response","289","268393","0.0-1.0-9.0-3.0-0.14","17:40:56","1","","","","","","","fixation","","","","","","","","","","","","","","","","","","",""
"527","1","pic_response","html-keyboard-response","290","268921","0.0-1.0-9.0-3.0-1.14","17:40:56","1","","","","","","","<div>
            <img class='stim' src=""pictures/furniture/1.jpg""></div><div class=""button_prompt"">
                        <b>请用数字键1-3回答</b>
                        </div>","","","","","","","","","","","","","","","","","","",""
"527","null","sub_response","html-keyboard-response","291","269922","0.0-1.0-9.0-3.0-2.14","17:40:56","1","","","","","","","<div style='text-align: center;'>
                            <span style=""color: green; font-size: 40px""><b>正确！+1 pts</b></span></div>
                            ","","learn","1","1","1","learn","0","0","[0, 1, 2]","14","1","setsize","10S3A","furniture","2","1","0","1",""
"null","null","fixation","html-keyboard-response","292","270424","0.0-1.0-9.0-3.0-0.15","17:40:56","1","","","","","","","fixation","","","","","","","","","","","","","","","","","","",""
"759","2","pic_response","html-keyboard-response","293","271183","0.0-1.0-9.0-3.0-1.15","17:40:56","1","","","","","","","<div>
            <img class='stim' src=""pictures/furniture/4.jpg""></div><div class=""button_prompt"">
                        <b>请用数字键1-3回答</b>
                        </div>","","","","","","","","","","","","","","","","","","",""
"759","null","sub_response","html-keyboard-response","294","272185","0.0-1.0-9.0-3.0-2.15","17:40:56","1","","","","","","","<div style='text-align: center;'>
                            <span style=""color: green; font-size: 40px""><b>正确！+1 pts</b></span></div>
                            ","","learn","4","4","4","learn","1","1","[0, 1, 2]","15","1","setsize","10S3A","furniture","2","2","1","1",""
"null","null","fixation","html-keyboard-response","295","272686","0.0-1.0-9.0-3.0-0.16","17:40:56","1","","","","","","","fixation","","","","","","","","","","","","","","","","","","",""
"708","1","pic_response","html-keyboard-response","296","273394","0.0-1.0-9.0-3.0-1.16","17:40:56","1","","","","","","","<div>
            <img class='stim' src=""pictures/furniture/0.jpg""></div><div class=""button_prompt"">
                        <b>请用数字键1-3回答</b>
                        </div>","","","","","","","","","","","","","","","","","","",""
"708","null","sub_response","html-keyboard-response","297","274400","0.0-1.0-9.0-3.0-2.16","17:40:56","1","","","","","","","<div style='text-align: center;'>
                            <span style=""color: green; font-size: 40px""><b>正确！+1 pts</b></span></div>
                            ","","learn","0","0","0","learn","0","0","[0, 1, 2]","16","1","setsize","10S3A","furniture","2","3","0","1",""
"null","null","fixation","html-keyboard-response","298","274902","0.0-1.0-9.0-3.0-0.17","17:40:56","1","","","","","","","fixation","","","","","","","","","","","","","","","","","","",""
"946","2","pic_response","html-keyboard-response","299","275849","0.0-1.0-9.0-3.0-1.17","17:40:56","1","","","","","","","<div>
            <img class='stim' src=""pictures/furniture/2.jpg""></div><div class=""button_prompt"">
                        <b>请用数字键1-3回答</b>
                        </div>","","","","","","","","","","","","","","","","","","",""
"946","null","sub_response","html-keyboard-response","300","276850","0.0-1.0-9.0-3.0-2.17","17:40:56","1","","","","","","","<div style='text-align: center;'>
                            <span style=""color: red; font-size: 40px""><b>错误！+0 pts</b></span></div>
                            ","","learn","2","2","2","learn","0","0","[0, 1, 2]","17","1","setsize","10S3A","furniture","2","0","1","0",""
"null","null","fixation","html-keyboard-response","301","277352","0.0-1.0-9.0-3.0-0.18","17:40:56","1","","","","","","","fixation","","","","","","","","","","","","","","","","","","",""
"1022","2","pic_response","html-keyboard-response","302","278374","0.0-1.0-9.0-3.0-1.18","17:40:56","1","","","","","","","<div>
            <img class='stim' src=""pictures/furniture/7.jpg""></div><div class=""button_prompt"">
                        <b>请用数字键1-3回答</b>
                        </div>","","","","","","","","","","","","","","","","","","",""
"1022","null","sub_response","html-keyboard-response","303","279376","0.0-1.0-9.0-3.0-2.18","17:40:56","1","","","","","","","<div style='text-align: center;'>
                            <span style=""color: red; font-size: 40px""><b>错误！+0 pts</b></span></div>
                            ","","learn","7","7","7","learn","2","2","[0, 1, 2]","18","1","setsize","10S3A","furniture","2","0","1","0",""
"null","null","fixation","html-keyboard-response","304","279877","0.0-1.0-9.0-3.0-0.19","17:40:56","1","","","","","","","fixation","","","","","","","","","","","","","","","","","","",""
"1220","3","pic_response","html-keyboard-response","305","281098","0.0-1.0-9.0-3.0-1.19","17:40:56","1","","","","","","","<div>
            <img class='stim' src=""pictures/furniture/5.jpg""></div><div class=""button_prompt"">
                        <b>请用数字键1-3回答</b>
                        </div>","","","","","","","","","","","","","","","","","","",""
"1220","null","sub_response","html-keyboard-response","306","282099","0.0-1.0-9.0-3.0-2.19","17:40:56","1","","","","","","","<div style='text-align: center;'>
                            <span style=""color: red; font-size: 40px""><b>错误！+0 pts</b></span></div>
                            ","","learn","5","5","5","learn","1","1","[0, 1, 2]","19","1","setsize","10S3A","furniture","2","0","2","0",""
"null","null","fixation","html-keyboard-response","307","282601","0.0-1.0-9.0-3.0-0.20","17:40:56","1","","","","","","","fixation","","","","","","","","","","","","","","","","","","",""
"1238","2","pic_response","html-keyboard-response","308","283840","0.0-1.0-9.0-3.0-1.20","17:40:56","1","","","","","","","<div>
            <img class='stim' src=""pictures/furniture/6.jpg""></div><div class=""button_prompt"">
                        <b>请用数字键1-3回答</b>
                        </div>","","","","","","","","","","","","","","","","","","",""
"1238","null","sub_response","html-keyboard-response","309","284841","0.0-1.0-9.0-3.0-2.20","17:40:56","1","","","","","","","<div style='text-align: center;'>
                            <span style=""color: red; font-size: 40px""><b>错误！+0 pts</b></span></div>
                            ","","learn","6","6","6","learn","2","2","[0, 1, 2]","20","2","setsize","10S3A","furniture","2","0","1","0",""
"null","null","fixation","html-keyboard-response","310","285342","0.0-1.0-9.0-3.0-0.21","17:40:56","1","","","","","","","fixation","","","","","","","","","","","","","","","","","","",""
"960","2","pic_response","html-keyboard-response","311","286303","0.0-1.0-9.0-3.0-1.21","17:40:56","1","","","","","","","<div>
            <img class='stim' src=""pictures/furniture/7.jpg""></div><div class=""button_prompt"">
                        <b>请用数字键1-3回答</b>
                        </div>","","","","","","","","","","","","","","","","","","",""
"960","null","sub_response","html-keyboard-response","312","287305","0.0-1.0-9.0-3.0-2.21","17:40:56","1","","","","","","","<div style='text-align: center;'>
                            <span style=""color: red; font-size: 40px""><b>错误！+0 pts</b></span></div>
                            ","","learn","7","7","7","learn","2","2","[0, 1, 2]","21","2","setsize","10S3A","furniture","2","0","1","0",""
"null","null","fixation","html-keyboard-response","313","287807","0.0-1.0-9.0-3.0-0.22","17:40:56","1","","","","","","","fixation","","","","","","","","","","","","","","","","","","",""
"1210","3","pic_response","html-keyboard-response","314","289018","0.0-1.0-9.0-3.0-1.22","17:40:56","1","","","","","","","<div>
            <img class='stim' src=""pictures/furniture/9.jpg""></div><div class=""button_prompt"">
                        <b>请用数字键1-3回答</b>
                        </div>","","","","","","","","","","","","","","","","","","",""
"1210","null","sub_response","html-keyboard-response","315","290020","0.0-1.0-9.0-3.0-2.22","17:40:56","1","","","","","","","<div style='text-align: center;'>
                            <span style=""color: green; font-size: 40px""><b>正确！+1 pts</b></span></div>
                            ","","learn","9","9","9","learn","2","2","[0, 1, 2]","22","2","setsize","10S3A","furniture","2","1","2","1",""
"null","null","fixation","html-keyboard-response","316","290521","0.0-1.0-9.0-3.0-0.23","17:40:56","1","","","","","","","fixation","","","","","","","","","","","","","","","","","","",""
"1655","1","pic_response","html-keyboard-response","317","292177","0.0-1.0-9.0-3.0-1.23","17:40:56","1","","","","","","","<div>
            <img class='stim' src=""pictures/furniture/1.jpg""></div><div class=""button_prompt"">
                        <b>请用数字键1-3回答</b>
                        </div>","","","","","","","","","","","","","","","","","","",""
