"rt","response","screen_id","trial_type","trial_index","time_elapsed","internal_node_id","start_time","n_Prac","success","timeout","failed_images","failed_audio","failed_video","view_history","stimulus","question_order","stage","s","word","word_id","phase","a_cor","a_real","a_ava","trial","tps","task_type","block_typ","pic_typ","block_id","cum_r","a","r","plugin_name"
"84876","{""sub_id"":""001"",""task_type"":""task1"",""name"":""罗思洋"",""gender"":""F""}","basic_info","survey-html-form","0","84878","0.0-0.0","23:46:32","3","","","","","","","","","","","","","","","","","","","","","","","","","",""
"","","","preload","1","86233","0.0-1.0-0.0","23:46:32","3","true","false","[]","[]","[]","","","","","","","","","","","","","","","","","","","","",""
"","","","preload","2","86436","0.0-1.0-1.0","23:46:32","3","true","false","[]","[]","[]","","","","","","","","","","","","","","","","","","","","",""
"","","","fullscreen","3","88799","0.0-1.0-2.0","23:46:32","3","true","","","","","","","","","","","","","","","","","","","","","","","","",""
"22885","","instruct","instructions","4","111684","0.0-1.0-3.0-0.0","23:46:32","3","","","","","","[{""page_index"":0,""viewing_time"":13053},{""page_index"":1,""viewing_time"":5048},{""page_index"":2,""viewing_time"":4784}]","","","","","","","","","","","","","","","","","","","",""
"7039","{""Q0"":"""",""task1"":""<span style='font-size: 24px'>学习图片和数字的对应关系</span>"",""task2"":""<span style='font-size: 24px'> 数字键1-3 </span>"",""task3"":""<span style='font-size: 24px'> 看到图片选出正确对应的数字 </span>""}","question","survey-multi-choice","5","118724","0.0-1.0-3.0-1.0","23:46:32","3","","","","","","","","[0,1,2,3]","","","","","","","","","","","","","","","","","",""
"4165"," ","inst_q","html-keyboard-response","6","122891","0.0-1.0-3.0-2.0","23:46:32","3","","","","","","","inst","","1","","","","","","","","","","","","","","","","",""
"9424","","instruct","instructions","7","132316","0.0-1.0-3.1-0.1","23:46:32","3","","","","","","[{""page_index"":0,""viewing_time"":2624},{""page_index"":1,""viewing_time"":3577},{""page_index"":2,""viewing_time"":3223}]","","","","","","","","","","","","","","","","","","","",""
"18407","{""Q0"":"""",""task1"":""<span style='font-size: 24px'>学习图片和数字的对应关系</span>"",""task2"":""<span style='font-size: 24px'> 数字键1-3 </span>"",""task3"":""<span style='font-size: 24px'> 看到图片选出正确对应的数字 </span>""}","question","survey-multi-choice","8","150724","0.0-1.0-3.1-1.1","23:46:32","3","","","","","","","","[0,1,2,3]","","","","","","","","","","","","","","","","","",""
"1288"," ","inst_q","html-keyboard-response","9","152014","0.0-1.0-3.1-2.1","23:46:32","3","","","","","","","inst","","1","","","","","","","","","","","","","","","","",""
"4782","","instruct","instructions","10","156796","0.0-1.0-3.2-0.2","23:46:32","3","","","","","","[{""page_index"":0,""viewing_time"":1222},{""page_index"":1,""viewing_time"":1855},{""page_index"":2,""viewing_time"":1704}]","","","","","","","","","","","","","","","","","","","",""
"6239","{""Q0"":"""",""task1"":""<span style='font-size: 24px'>学习图片和数字的对应关系</span>"",""task2"":""<span style='font-size: 24px'> 图片下方标注为可用的数字键（数字键1-3或0-9） </span>"",""task3"":""<span style='font-size: 24px'> 看到图片选出正确对应的数字 </span>""}","question","survey-multi-choice","11","163036","0.0-1.0-3.2-1.2","23:46:32","3","","","","","","","","[0,1,2,3]","","","","","","","","","","","","","","","","","",""
"5016"," ","inst_q","html-keyboard-response","12","168054","0.0-1.0-3.2-2.2","23:46:32","3","","","","","","","inst","","1","","","","","","","","","","","","","","","","",""
"","","","preload","13","168136","0.0-1.0-4.0-0.0","23:46:32","3","true","false","[]","[]","[]","","","","","","","","","","","","","","","","","","","","",""
"2846"," ","","html-keyboard-response","14","170983","0.0-1.0-4.0-1.0","23:46:32","3","","","","","","","<div style='font-size: 32px; text-align: center;'
                    <p>请学习图片和数字之间的对应关系</p>
                    <p>我们将<span style='color: blue'><b> 告诉 </b></span>您选择的对错。请根据反馈学习。</p>
                    <p>请按""空格""继续实验。</p></div>","","","","","","","","","","","","","","","","","","",""
"5281"," ","inst","html-keyboard-response","15","176265","0.0-1.0-4.0-2.0","23:46:32","3","","","","","","","<img class='instruct_stim' src=""instruction/prac3.PNG""></div>","","","","","","","","","","","","","","","","","","",""
"null","null","fixation","html-keyboard-response","16","176766","0.0-1.0-4.0-3.0-0.0","23:46:32","3","","","","","","","fixation","","","","","","","","","","","","","","","","","","",""
"1322","1","pic_response","html-keyboard-response","17","178089","0.0-1.0-4.0-3.0-1.0","23:46:32","3","","","","","","","<div>
            <img class='stim' src=""pictures/prac/0.jpg""></div><div class=""button_prompt"">
                        <b>请用数字键1-3回答</b>
                        </div>","","","","","","","","","","","","","","","","","","",""
"1322","null","sub_response","html-keyboard-response","18","179091","0.0-1.0-4.0-3.0-2.0","23:46:32","3","","","","","","","<div style='text-align: center;'>
                            <span style=""color: green; font-size: 40px""><b>正确！+1 pts</b></span></div>
                            ","","learn","0","0","0","learn","0","0","[0, 1, 2]","0","0","setsize","99","prac","0","1","0","1",""
"null","null","fixation","html-keyboard-response","19","179593","0.0-1.0-4.0-3.0-0.1","23:46:32","3","","","","","","","fixation","","","","","","","","","","","","","","","","","","",""
"554","2","pic_response","html-keyboard-response","20","180148","0.0-1.0-4.0-3.0-1.1","23:46:32","3","","","","","","","<div>
            <img class='stim' src=""pictures/prac/2.jpg""></div><div class=""button_prompt"">
                        <b>请用数字键1-3回答</b>
                        </div>","","","","","","","","","","","","","","","","","","",""
"554","null","sub_response","html-keyboard-response","21","181150","0.0-1.0-4.0-3.0-2.1","23:46:32","3","","","","","","","<div style='text-align: center;'>
                            <span style=""color: red; font-size: 40px""><b>错误！+0 pts</b></span></div>
                            ","","learn","2","2","2","learn","2","2","[0, 1, 2]","1","0","setsize","99","prac","0","0","1","0",""
"null","null","fixation","html-keyboard-response","22","181651","0.0-1.0-4.0-3.0-0.2","23:46:32","3","","","","","","","fixation","","","","","","","","","","","","","","","","","","",""
"671","3","pic_response","html-keyboard-response","23","182323","0.0-1.0-4.0-3.0-1.2","23:46:32","3","","","","","","","<div>
            <img class='stim' src=""pictures/prac/1.jpg""></div><div class=""button_prompt"">
                        <b>请用数字键1-3回答</b>
                        </div>","","","","","","","","","","","","","","","","","","",""
"671","null","sub_response","html-keyboard-response","24","183324","0.0-1.0-4.0-3.0-2.2","23:46:32","3","","","","","","","<div style='text-align: center;'>
                            <span style=""color: red; font-size: 40px""><b>错误！+0 pts</b></span></div>
                            ","","learn","1","1","1","learn","0","0","[0, 1, 2]","2","0","setsize","99","prac","0","0","2","0",""
"null","null","fixation","html-keyboard-response","25","183825","0.0-1.0-4.0-3.0-0.3","23:46:32","3","","","","","","","fixation","","","","","","","","","","","","","","","","","","",""
"619","1","pic_response","html-keyboard-response","26","184445","0.0-1.0-4.0-3.0-1.3","23:46:32","3","","","","","","","<div>
            <img class='stim' src=""pictures/prac/0.jpg""></div><div class=""button_prompt"">
                        <b>请用数字键1-3回答</b>
                        </div>","","","","","","","","","","","","","","","","","","",""
"619","null","sub_response","html-keyboard-response","27","185446","0.0-1.0-4.0-3.0-2.3","23:46:32","3","","","","","","","<div style='text-align: center;'>
                            <span style=""color: green; font-size: 40px""><b>正确！+1 pts</b></span></div>
                            ","","learn","0","0","0","learn","0","0","[0, 1, 2]","3","1","setsize","99","prac","0","1","0","1",""
"null","null","fixation","html-keyboard-response","28","185947","0.0-1.0-4.0-3.0-0.4","23:46:32","3","","","","","","","fixation","","","","","","","","","","","","","","","","","","",""
"512","1","pic_response","html-keyboard-response","29","186460","0.0-1.0-4.0-3.0-1.4","23:46:32","3","","","","","","","<div>
            <img class='stim' src=""pictures/prac/2.jpg""></div><div class=""button_prompt"">
                        <b>请用数字键1-3回答</b>
                        </div>","","","","","","","","","","","","","","","","","","",""
"512","null","sub_response","html-keyboard-response","30","187462","0.0-1.0-4.0-3.0-2.4","23:46:32","3","","","","","","","<div style='text-align: center;'>
                            <span style=""color: red; font-size: 40px""><b>错误！+0 pts</b></span></div>
                            ","","learn","2","2","2","learn","2","2","[0, 1, 2]","4","1","setsize","99","prac","0","0","0","0",""
"null","null","fixation","html-keyboard-response","31","187966","0.0-1.0-4.0-3.0-0.5","23:46:32","3","","","","","","","fixation","","","","","","","","","","","","","","","","","","",""
"843","2","pic_response","html-keyboard-response","32","188809","0.0-1.0-4.0-3.0-1.5","23:46:32","3","","","","","","","<div>
            <img class='stim' src=""pictures/prac/1.jpg""></div><div class=""button_prompt"">
                        <b>请用数字键1-3回答</b>
                        </div>","","","","","","","","","","","","","","","","","","",""
"843","null","sub_response","html-keyboard-response","33","189811","0.0-1.0-4.0-3.0-2.5","23:46:32","3","","","","","","","<div style='text-align: center;'>
                            <span style=""color: red; font-size: 40px""><b>错误！+0 pts</b></span></div>
                            ","","learn","1","1","1","learn","0","0","[0, 1, 2]","5","1","setsize","99","prac","0","0","1","0",""
"","","","preload","34","189814","0.0-1.0-4.1-0.1","23:46:32","3","true","false","[]","[]","[]","","","","","","","","","","","","","","","","","","","","",""
"2897"," ","","html-keyboard-response","35","192711","0.0-1.0-4.1-1.1","23:46:32","3","","","","","","","<div style='font-size: 32px; text-align: center;'
                    <p>请学习图片和数字之间的对应关系</p>
                    <p>我们将<span style='color: blue'><b> 告诉 </b></span>您选择的对错。请根据反馈学习。</p>
                    <p>请按""空格""继续实验。</p></div>","","","","","","","","","","","","","","","","","","",""
"1558"," ","inst","html-keyboard-response","36","194270","0.0-1.0-4.1-2.1","23:46:32","3","","","","","","","<img class='instruct_stim' src=""instruction/prac3.PNG""></div>","","","","","","","","","","","","","","","","","","",""
"null","null","fixation","html-keyboard-response","37","194770","0.0-1.0-4.1-3.1-0.6","23:46:32","3","","","","","","","fixation","","","","","","","","","","","","","","","","","","",""
"515","1","pic_response","html-keyboard-response","38","195286","0.0-1.0-4.1-3.1-1.6","23:46:32","3","","","","","","","<div>
            <img class='stim' src=""pictures/prac/0.jpg""></div><div class=""button_prompt"">
                        <b>请用数字键1-3回答</b>
                        </div>","","","","","","","","","","","","","","","","","","",""
"515","null","sub_response","html-keyboard-response","39","196287","0.0-1.0-4.1-3.1-2.6","23:46:32","3","","","","","","","<div style='text-align: center;'>
                            <span style=""color: green; font-size: 40px""><b>正确！+1 pts</b></span></div>
                            ","","learn","0","0","0","learn","0","0","[0, 1, 2]","0","0","setsize","99","prac","0","1","0","1",""
"null","null","fixation","html-keyboard-response","40","196800","0.0-1.0-4.1-3.1-0.7","23:46:32","3","","","","","","","fixation","","","","","","","","","","","","","","","","","","",""
"524","1","pic_response","html-keyboard-response","41","197325","0.0-1.0-4.1-3.1-1.7","23:46:32","3","","","","","","","<div>
            <img class='stim' src=""pictures/prac/2.jpg""></div><div class=""button_prompt"">
                        <b>请用数字键1-3回答</b>
                        </div>","","","","","","","","","","","","","","","","","","",""
"524","null","sub_response","html-keyboard-response","42","198325","0.0-1.0-4.1-3.1-2.7","23:46:32","3","","","","","","","<div style='text-align: center;'>
                            <span style=""color: red; font-size: 40px""><b>错误！+0 pts</b></span></div>
                            ","","learn","2","2","2","learn","2","2","[0, 1, 2]","1","0","setsize","99","prac","0","0","0","0",""
"null","null","fixation","html-keyboard-response","43","198827","0.0-1.0-4.1-3.1-0.8","23:46:32","3","","","","","","","fixation","","","","","","","","","","","","","","","","","","",""
"895","2","pic_response","html-keyboard-response","44","199723","0.0-1.0-4.1-3.1-1.8","23:46:32","3","","","","","","","<div>
            <img class='stim' src=""pictures/prac/1.jpg""></div><div class=""button_prompt"">
                        <b>请用数字键1-3回答</b>
                        </div>","","","","","","","","","","","","","","","","","","",""
"895","null","sub_response","html-keyboard-response","45","200724","0.0-1.0-4.1-3.1-2.8","23:46:32","3","","","","","","","<div style='text-align: center;'>
                            <span style=""color: red; font-size: 40px""><b>错误！+0 pts</b></span></div>
                            ","","learn","1","1","1","learn","0","0","[0, 1, 2]","2","0","setsize","99","prac","0","0","1","0",""
"null","null","fixation","html-keyboard-response","46","201226","0.0-1.0-4.1-3.1-0.9","23:46:32","3","","","","","","","fixation","","","","","","","","","","","","","","","","","","",""
"719","1","pic_response","html-keyboard-response","47","201946","0.0-1.0-4.1-3.1-1.9","23:46:32","3","","","","","","","<div>
            <img class='stim' src=""pictures/prac/0.jpg""></div><div class=""button_prompt"">
                        <b>请用数字键1-3回答</b>
                        </div>","","","","","","","","","","","","","","","","","","",""
"719","null","sub_response","html-keyboard-response","48","202947","0.0-1.0-4.1-3.1-2.9","23:46:32","3","","","","","","","<div style='text-align: center;'>
                            <span style=""color: green; font-size: 40px""><b>正确！+1 pts</b></span></div>
                            ","","learn","0","0","0","learn","0","0","[0, 1, 2]","3","1","setsize","99","prac","0","1","0","1",""
"null","null","fixation","html-keyboard-response","49","203449","0.0-1.0-4.1-3.1-0.10","23:46:32","3","","","","","","","fixation","","","","","","","","","","","","","","","","","","",""
"603","3","pic_response","html-keyboard-response","50","204052","0.0-1.0-4.1-3.1-1.10","23:46:32","3","","","","","","","<div>
            <img class='stim' src=""pictures/prac/2.jpg""></div><div class=""button_prompt"">
                        <b>请用数字键1-3回答</b>
                        </div>","","","","","","","","","","","","","","","","","","",""
"603","null","sub_response","html-keyboard-response","51","205054","0.0-1.0-4.1-3.1-2.10","23:46:32","3","","","","","","","<div style='text-align: center;'>
                            <span style=""color: green; font-size: 40px""><b>正确！+1 pts</b></span></div>
                            ","","learn","2","2","2","learn","2","2","[0, 1, 2]","4","1","setsize","99","prac","0","2","2","1",""
"null","null","fixation","html-keyboard-response","52","205556","0.0-1.0-4.1-3.1-0.11","23:46:32","3","","","","","","","fixation","","","","","","","","","","","","","","","","","","",""
"357","1","pic_response","html-keyboard-response","53","205913","0.0-1.0-4.1-3.1-1.11","23:46:32","3","","","","","","","<div>
            <img class='stim' src=""pictures/prac/1.jpg""></div><div class=""button_prompt"">
                        <b>请用数字键1-3回答</b>
                        </div>","","","","","","","","","","","","","","","","","","",""
"357","null","sub_response","html-keyboard-response","54","206916","0.0-1.0-4.1-3.1-2.11","23:46:32","3","","","","","","","<div style='text-align: center;'>
                            <span style=""color: green; font-size: 40px""><b>正确！+1 pts</b></span></div>
                            ","","learn","1","1","1","learn","0","0","[0, 1, 2]","5","1","setsize","99","prac","0","3","0","1",""
"","","","preload","55","206918","0.0-1.0-4.2-0.2","23:46:32","3","true","false","[]","[]","[]","","","","","","","","","","","","","","","","","","","","",""
"1089"," ","","html-keyboard-response","56","208008","0.0-1.0-4.2-1.2","23:46:32","3","","","","","","","<div style='font-size: 32px; text-align: center;'
                    <p>请学习图片和数字之间的对应关系</p>
                    <p>我们将<span style='color: blue'><b> 告诉 </b></span>您选择的对错。请根据反馈学习。</p>
                    <p>请按""空格""继续实验。</p></div>","","","","","","","","","","","","","","","","","","",""
"1467"," ","inst","html-keyboard-response","57","209475","0.0-1.0-4.2-2.2","23:46:32","3","","","","","","","<img class='instruct_stim' src=""instruction/prac3.PNG""></div>","","","","","","","","","","","","","","","","","","",""
"null","null","fixation","html-keyboard-response","58","209976","0.0-1.0-4.2-3.2-0.12","23:46:32","3","","","","","","","fixation","","","","","","","","","","","","","","","","","","",""
"865","1","pic_response","html-keyboard-response","59","210841","0.0-1.0-4.2-3.2-1.12","23:46:32","3","","","","","","","<div>
            <img class='stim' src=""pictures/prac/0.jpg""></div><div class=""button_prompt"">
                        <b>请用数字键1-3回答</b>
                        </div>","","","","","","","","","","","","","","","","","","",""
"865","null","sub_response","html-keyboard-response","60","211843","0.0-1.0-4.2-3.2-2.12","23:46:32","3","","","","","","","<div style='text-align: center;'>
                            <span style=""color: green; font-size: 40px""><b>正确！+1 pts</b></span></div>
                            ","","learn","0","0","0","learn","0","0","[0, 1, 2]","0","0","setsize","99","prac","0","4","0","1",""
"null","null","fixation","html-keyboard-response","61","212344","0.0-1.0-4.2-3.2-0.13","23:46:32","3","","","","","","","fixation","","","","","","","","","","","","","","","","","","",""
"555","3","pic_response","html-keyboard-response","62","212899","0.0-1.0-4.2-3.2-1.13","23:46:32","3","","","","","","","<div>
            <img class='stim' src=""pictures/prac/2.jpg""></div><div class=""button_prompt"">
                        <b>请用数字键1-3回答</b>
                        </div>","","","","","","","","","","","","","","","","","","",""
"555","null","sub_response","html-keyboard-response","63","213901","0.0-1.0-4.2-3.2-2.13","23:46:32","3","","","","","","","<div style='text-align: center;'>
                            <span style=""color: green; font-size: 40px""><b>正确！+1 pts</b></span></div>
                            ","","learn","2","2","2","learn","2","2","[0, 1, 2]","1","0","setsize","99","prac","0","5","2","1",""
"null","null","fixation","html-keyboard-response","64","214402","0.0-1.0-4.2-3.2-0.14","23:46:32","3","","","","","","","fixation","","","","","","","","","","","","","","","","","","",""
"840","1","pic_response","html-keyboard-response","65","215243","0.0-1.0-4.2-3.2-1.14","23:46:32","3","","","","","","","<div>
            <img class='stim' src=""pictures/prac/1.jpg""></div><div class=""button_prompt"">
                        <b>请用数字键1-3回答</b>
                        </div>","","","","","","","","","","","","","","","","","","",""
"840","null","sub_response","html-keyboard-response","66","216243","0.0-1.0-4.2-3.2-2.14","23:46:32","3","","","","","","","<div style='text-align: center;'>
                            <span style=""color: green; font-size: 40px""><b>正确！+1 pts</b></span></div>
                            ","","learn","1","1","1","learn","0","0","[0, 1, 2]","2","0","setsize","99","prac","0","6","0","1",""
"null","null","fixation","html-keyboard-response","67","216745","0.0-1.0-4.2-3.2-0.15","23:46:32","3","","","","","","","fixation","","","","","","","","","","","","","","","","","","",""
"403","1","pic_response","html-keyboard-response","68","217149","0.0-1.0-4.2-3.2-1.15","23:46:32","3","","","","","","","<div>
            <img class='stim' src=""pictures/prac/0.jpg""></div><div class=""button_prompt"">
                        <b>请用数字键1-3回答</b>
                        </div>","","","","","","","","","","","","","","","","","","",""
"403","null","sub_response","html-keyboard-response","69","218150","0.0-1.0-4.2-3.2-2.15","23:46:32","3","","","","","","","<div style='text-align: center;'>
                            <span style=""color: green; font-size: 40px""><b>正确！+1 pts</b></span></div>
                            ","","learn","0","0","0","learn","0","0","[0, 1, 2]","3","1","setsize","99","prac","0","7","0","1",""
"null","null","fixation","html-keyboard-response","70","218652","0.0-1.0-4.2-3.2-0.16","23:46:32","3","","","","","","","fixation","","","","","","","","","","","","","","","","","","",""
"625","3","pic_response","html-keyboard-response","71","219277","0.0-1.0-4.2-3.2-1.16","23:46:32","3","","","","","","","<div>
            <img class='stim' src=""pictures/prac/2.jpg""></div><div class=""button_prompt"">
                        <b>请用数字键1-3回答</b>
                        </div>","","","","","","","","","","","","","","","","","","",""
"625","null","sub_response","html-keyboard-response","72","220278","0.0-1.0-4.2-3.2-2.16","23:46:32","3","","","","","","","<div style='text-align: center;'>
                            <span style=""color: green; font-size: 40px""><b>正确！+1 pts</b></span></div>
                            ","","learn","2","2","2","learn","2","2","[0, 1, 2]","4","1","setsize","99","prac","0","8","2","1",""
"null","null","fixation","html-keyboard-response","73","220779","0.0-1.0-4.2-3.2-0.17","23:46:32","3","","","","","","","fixation","","","","","","","","","","","","","","","","","","",""
"536","1","pic_response","html-keyboard-response","74","221316","0.0-1.0-4.2-3.2-1.17","23:46:32","3","","","","","","","<div>
            <img class='stim' src=""pictures/prac/1.jpg""></div><div class=""button_prompt"">
                        <b>请用数字键1-3回答</b>
                        </div>","","","","","","","","","","","","","","","","","","",""
"536","null","sub_response","html-keyboard-response","75","222318","0.0-1.0-4.2-3.2-2.17","23:46:32","3","","","","","","","<div style='text-align: center;'>
                            <span style=""color: green; font-size: 40px""><b>正确！+1 pts</b></span></div>
                            ","","learn","1","1","1","learn","0","0","[0, 1, 2]","5","1","setsize","99","prac","0","9","0","1",""
"5603"," ","","html-keyboard-response","76","227921","0.0-1.0-5.0","23:46:32","3","","","","","","","<div style=""font-size: 25px""><p>距下一个实验开始还有</p><div style=""font-size: 50px; color: blue""><p><span id=""clock"">1:00</span></div></p><p>按""空格""跳过休息</p></div>","","","","","","","","","","","","","","","","","","",""
"1098"," ","","html-keyboard-response","77","229020","0.0-1.0-6.0","23:46:32","3","","","","","","","<div style='font-size: 32px; text-align: center;'
                    <p>请按""空格""继续正式实验。</p></div>","","","","","","","","","","","","","","","","","","",""
"","","","preload","78","229238","0.0-1.0-7.0-0.0","23:46:32","3","true","false","[]","[]","[]","","","","","","","","","","","","","","","","","","","","",""
"1989"," ","","html-keyboard-response","79","231227","0.0-1.0-7.0-1.0","23:46:32","3","","","","","","","<div style='font-size: 32px; text-align: center;'
                    <p>请学习图片和数字之间的对应关系</p>
                    <p>我们将<span style='color: blue'><b> 告诉 </b></span>您选择的对错。请根据反馈学习。</p>
                    <p>请按""空格""继续实验。</p></div>","","","","","","","","","","","","","","","","","","",""
"7169"," ","inst","html-keyboard-response","80","238397","0.0-1.0-7.0-2.0","23:46:32","3","","","","","","","<img class='instruct_stim' src=""instruction/animals3.PNG""></div>","","","","","","","","","","","","","","","","","","",""
"null","null","fixation","html-keyboard-response","81","238898","0.0-1.0-7.0-3.0-0.0","23:46:32","3","","","","","","","fixation","","","","","","","","","","","","","","","","","","",""
"1129","1","pic_response","html-keyboard-response","82","240028","0.0-1.0-7.0-3.0-1.0","23:46:32","3","","","","","","","<div>
            <img class='stim' src=""pictures/animals/0.jpg""></div><div class=""button_prompt"">
                        <b>请用数字键1-3回答</b>
                        </div>","","","","","","","","","","","","","","","","","","",""
"1129","null","sub_response","html-keyboard-response","83","241029","0.0-1.0-7.0-3.0-2.0","23:46:32","3","","","","","","","<div style='text-align: center;'>
                            <span style=""color: green; font-size: 40px""><b>正确！+1 pts</b></span></div>
                            ","","learn","0","0","0","learn","0","0","[0, 1, 2]","0","0","setsize","3S3A","animals","1","10","0","1",""
"null","null","fixation","html-keyboard-response","84","241531","0.0-1.0-7.0-3.0-0.1","23:46:32","3","","","","","","","fixation","","","","","","","","","","","","","","","","","","",""
"555","2","pic_response","html-keyboard-response","85","242087","0.0-1.0-7.0-3.0-1.1","23:46:32","3","","","","","","","<div>
            <img class='stim' src=""pictures/animals/2.jpg""></div><div class=""button_prompt"">
                        <b>请用数字键1-3回答</b>
                        </div>","","","","","","","","","","","","","","","","","","",""
"555","null","sub_response","html-keyboard-response","86","243088","0.0-1.0-7.0-3.0-2.1","23:46:32","3","","","","","","","<div style='text-align: center;'>
                            <span style=""color: red; font-size: 40px""><b>错误！+0 pts</b></span></div>
                            ","","learn","2","2","2","learn","2","2","[0, 1, 2]","1","0","setsize","3S3A","animals","1","0","1","0",""
"null","null","fixation","html-keyboard-response","87","243591","0.0-1.0-7.0-3.0-0.2","23:46:32","3","","","","","","","fixation","","","","","","","","","","","","","","","","","","",""
"538","3","pic_response","html-keyboard-response","88","244129","0.0-1.0-7.0-3.0-1.2","23:46:32","3","","","","","","","<div>
            <img class='stim' src=""pictures/animals/1.jpg""></div><div class=""button_prompt"">
                        <b>请用数字键1-3回答</b>
                        </div>","","","","","","","","","","","","","","","","","","",""
"538","null","sub_response","html-keyboard-response","89","245131","0.0-1.0-7.0-3.0-2.2","23:46:32","3","","","","","","","<div style='text-align: center;'>
                            <span style=""color: red; font-size: 40px""><b>错误！+0 pts</b></span></div>
                            ","","learn","1","1","1","learn","0","0","[0, 1, 2]","2","0","setsize","3S3A","animals","1","0","2","0",""
"null","null","fixation","html-keyboard-response","90","245631","0.0-1.0-7.0-3.0-0.3","23:46:32","3","","","","","","","fixation","","","","","","","","","","","","","","","","","","",""
"805","1","pic_response","html-keyboard-response","91","246436","0.0-1.0-7.0-3.0-1.3","23:46:32","3","","","","","","","<div>
            <img class='stim' src=""pictures/animals/1.jpg""></div><div class=""button_prompt"">
                        <b>请用数字键1-3回答</b>
                        </div>","","","","","","","","","","","","","","","","","","",""
"805","null","sub_response","html-keyboard-response","92","247437","0.0-1.0-7.0-3.0-2.3","23:46:32","3","","","","","","","<div style='text-align: center;'>
                            <span style=""color: green; font-size: 40px""><b>正确！+1 pts</b></span></div>
                            ","","learn","1","1","1","learn","0","0","[0, 1, 2]","3","1","setsize","3S3A","animals","1","1","0","1",""
"null","null","fixation","html-keyboard-response","93","247939","0.0-1.0-7.0-3.0-0.4","23:46:32","3","","","","","","","fixation","","","","","","","","","","","","","","","","","","",""
"767","2","pic_response","html-keyboard-response","94","248706","0.0-1.0-7.0-3.0-1.4","23:46:32","3","","","","","","","<div>
            <img class='stim' src=""pictures/animals/0.jpg""></div><div class=""button_prompt"">
                        <b>请用数字键1-3回答</b>
                        </div>","","","","","","","","","","","","","","","","","","",""
"767","null","sub_response","html-keyboard-response","95","249707","0.0-1.0-7.0-3.0-2.4","23:46:32","3","","","","","","","<div style='text-align: center;'>
                            <span style=""color: red; font-size: 40px""><b>错误！+0 pts</b></span></div>
                            ","","learn","0","0","0","learn","0","0","[0, 1, 2]","4","1","setsize","3S3A","animals","1","0","1","0",""
"null","null","fixation","html-keyboard-response","96","250209","0.0-1.0-7.0-3.0-0.5","23:46:32","3","","","","","","","fixation","","","","","","","","","","","","","","","","","","",""
"946","1","pic_response","html-keyboard-response","97","251156","0.0-1.0-7.0-3.0-1.5","23:46:32","3","","","","","","","<div>
            <img class='stim' src=""pictures/animals/2.jpg""></div><div class=""button_prompt"">
                        <b>请用数字键1-3回答</b>
                        </div>","","","","","","","","","","","","","","","","","","",""
"946","null","sub_response","html-keyboard-response","98","252157","0.0-1.0-7.0-3.0-2.5","23:46:32","3","","","","","","","<div style='text-align: center;'>
                            <span style=""color: red; font-size: 40px""><b>错误！+0 pts</b></span></div>
                            ","","learn","2","2","2","learn","2","2","[0, 1, 2]","5","1","setsize","3S3A","animals","1","0","0","0",""
"null","null","fixation","html-keyboard-response","99","252658","0.0-1.0-7.0-3.0-0.6","23:46:32","3","","","","","","","fixation","","","","","","","","","","","","","","","","","","",""
"1467","3","pic_response","html-keyboard-response","100","254125","0.0-1.0-7.0-3.0-1.6","23:46:32","3","","","","","","","<div>
            <img class='stim' src=""pictures/animals/0.jpg""></div><div class=""button_prompt"">
                        <b>请用数字键1-3回答</b>
                        </div>","","","","","","","","","","","","","","","","","","",""
"1467","null","sub_response","html-keyboard-response","101","255127","0.0-1.0-7.0-3.0-2.6","23:46:32","3","","","","","","","<div style='text-align: center;'>
                            <span style=""color: red; font-size: 40px""><b>错误！+0 pts</b></span></div>
                            ","","learn","0","0","0","learn","0","0","[0, 1, 2]","6","2","setsize","3S3A","animals","1","0","2","0",""
"null","null","fixation","html-keyboard-response","102","255628","0.0-1.0-7.0-3.0-0.7","23:46:32","3","","","","","","","fixation","","","","","","","","","","","","","","","","","","",""
"643","1","pic_response","html-keyboard-response","103","256271","0.0-1.0-7.0-3.0-1.7","23:46:32","3","","","","","","","<div>
            <img class='stim' src=""pictures/animals/1.jpg""></div><div class=""button_prompt"">
                        <b>请用数字键1-3回答</b>
                        </div>","","","","","","","","","","","","","","","","","","",""
"643","null","sub_response","html-keyboard-response","104","257273","0.0-1.0-7.0-3.0-2.7","23:46:32","3","","","","","","","<div style='text-align: center;'>
                            <span style=""color: green; font-size: 40px""><b>正确！+1 pts</b></span></div>
                            ","","learn","1","1","1","learn","0","0","[0, 1, 2]","7","2","setsize","3S3A","animals","1","1","0","1",""
"null","null","fixation","html-keyboard-response","105","257782","0.0-1.0-7.0-3.0-0.8","23:46:32","3","","","","","","","fixation","","","","","","","","","","","","","","","","","","",""
"1019","3","pic_response","html-keyboard-response","106","258802","0.0-1.0-7.0-3.0-1.8","23:46:32","3","","","","","","","<div>
            <img class='stim' src=""pictures/animals/2.jpg""></div><div class=""button_prompt"">
                        <b>请用数字键1-3回答</b>
                        </div>","","","","","","","","","","","","","","","","","","",""
"1019","null","sub_response","html-keyboard-response","107","259802","0.0-1.0-7.0-3.0-2.8","23:46:32","3","","","","","","","<div style='text-align: center;'>
                            <span style=""color: green; font-size: 40px""><b>正确！+1 pts</b></span></div>
                            ","","learn","2","2","2","learn","2","2","[0, 1, 2]","8","2","setsize","3S3A","animals","1","2","2","1",""
"null","null","fixation","html-keyboard-response","108","260304","0.0-1.0-7.0-3.0-0.9","23:46:32","3","","","","","","","fixation","","","","","","","","","","","","","","","","","","",""
"683","3","pic_response","html-keyboard-response","109","260988","0.0-1.0-7.0-3.0-1.9","23:46:32","3","","","","","","","<div>
            <img class='stim' src=""pictures/animals/2.jpg""></div><div class=""button_prompt"">
                        <b>请用数字键1-3回答</b>
                        </div>","","","","","","","","","","","","","","","","","","",""
"683","null","sub_response","html-keyboard-response","110","261989","0.0-1.0-7.0-3.0-2.9","23:46:32","3","","","","","","","<div style='text-align: center;'>
                            <span style=""color: green; font-size: 40px""><b>正确！+1 pts</b></span></div>
                            ","","learn","2","2","2","learn","2","2","[0, 1, 2]","9","3","setsize","3S3A","animals","1","3","2","1",""
"null","null","fixation","html-keyboard-response","111","262492","0.0-1.0-7.0-3.0-0.10","23:46:32","3","","","","","","","fixation","","","","","","","","","","","","","","","","","","",""
"773","1","pic_response","html-keyboard-response","112","263266","0.0-1.0-7.0-3.0-1.10","23:46:32","3","","","","","","","<div>
            <img class='stim' src=""pictures/animals/0.jpg""></div><div class=""button_prompt"">
                        <b>请用数字键1-3回答</b>
                        </div>","","","","","","","","","","","","","","","","","","",""
"773","null","sub_response","html-keyboard-response","113","264267","0.0-1.0-7.0-3.0-2.10","23:46:32","3","","","","","","","<div style='text-align: center;'>
                            <span style=""color: green; font-size: 40px""><b>正确！+1 pts</b></span></div>
                            ","","learn","0","0","0","learn","0","0","[0, 1, 2]","10","3","setsize","3S3A","animals","1","4","0","1",""
"null","null","fixation","html-keyboard-response","114","264769","0.0-1.0-7.0-3.0-0.11","23:46:32","3","","","","","","","fixation","","","","","","","","","","","","","","","","","","",""
"499","1","pic_response","html-keyboard-response","115","265269","0.0-1.0-7.0-3.0-1.11","23:46:32","3","","","","","","","<div>
            <img class='stim' src=""pictures/animals/1.jpg""></div><div class=""button_prompt"">
                        <b>请用数字键1-3回答</b>
                        </div>","","","","","","","","","","","","","","","","","","",""
"499","null","sub_response","html-keyboard-response","116","266270","0.0-1.0-7.0-3.0-2.11","23:46:32","3","","","","","","","<div style='text-align: center;'>
                            <span style=""color: green; font-size: 40px""><b>正确！+1 pts</b></span></div>
                            ","","learn","1","1","1","learn","0","0","[0, 1, 2]","11","3","setsize","3S3A","animals","1","5","0","1",""
"null","null","fixation","html-keyboard-response","117","266770","0.0-1.0-7.0-3.0-0.12","23:46:32","3","","","","","","","fixation","","","","","","","","","","","","","","","","","","",""
"458","1","pic_response","html-keyboard-response","118","267228","0.0-1.0-7.0-3.0-1.12","23:46:32","3","","","","","","","<div>
            <img class='stim' src=""pictures/animals/1.jpg""></div><div class=""button_prompt"">
                        <b>请用数字键1-3回答</b>
                        </div>","","","","","","","","","","","","","","","","","","",""
"458","null","sub_response","html-keyboard-response","119","268230","0.0-1.0-7.0-3.0-2.12","23:46:32","3","","","","","","","<div style='text-align: center;'>
                            <span style=""color: green; font-size: 40px""><b>正确！+1 pts</b></span></div>
                            ","","learn","1","1","1","learn","0","0","[0, 1, 2]","12","4","setsize","3S3A","animals","1","6","0","1",""
"null","null","fixation","html-keyboard-response","120","268731","0.0-1.0-7.0-3.0-0.13","23:46:32","3","","","","","","","fixation","","","","","","","","","","","","","","","","","","",""
"966","3","pic_response","html-keyboard-response","121","269697","0.0-1.0-7.0-3.0-1.13","23:46:32","3","","","","","","","<div>
            <img class='stim' src=""pictures/animals/0.jpg""></div><div class=""button_prompt"">
                        <b>请用数字键1-3回答</b>
                        </div>","","","","","","","","","","","","","","","","","","",""
"966","null","sub_response","html-keyboard-response","122","270700","0.0-1.0-7.0-3.0-2.13","23:46:32","3","","","","","","","<div style='text-align: center;'>
                            <span style=""color: red; font-size: 40px""><b>错误！+0 pts</b></span></div>
                            ","","learn","0","0","0","learn","0","0","[0, 1, 2]","13","4","setsize","3S3A","animals","1","0","2","0",""
"null","null","fixation","html-keyboard-response","123","271202","0.0-1.0-7.0-3.0-0.14","23:46:32","3","","","","","","","fixation","","","","","","","","","","","","","","","","","","",""
"722","3","pic_response","html-keyboard-response","124","271924","0.0-1.0-7.0-3.0-1.14","23:46:32","3","","","","","","","<div>
            <img class='stim' src=""pictures/animals/2.jpg""></div><div class=""button_prompt"">
                        <b>请用数字键1-3回答</b>
                        </div>","","","","","","","","","","","","","","","","","","",""
"722","null","sub_response","html-keyboard-response","125","272925","0.0-1.0-7.0-3.0-2.14","23:46:32","3","","","","","","","<div style='text-align: center;'>
                            <span style=""color: green; font-size: 40px""><b>正确！+1 pts</b></span></div>
                            ","","learn","2","2","2","learn","2","2","[0, 1, 2]","14","4","setsize","3S3A","animals","1","1","2","1",""
"null","null","fixation","html-keyboard-response","126","273428","0.0-1.0-7.0-3.0-0.15","23:46:32","3","","","","","","","fixation","","","","","","","","","","","","","","","","","","",""
"528","1","pic_response","html-keyboard-response","127","273956","0.0-1.0-7.0-3.0-1.15","23:46:32","3","","","","","","","<div>
            <img class='stim' src=""pictures/animals/1.jpg""></div><div class=""button_prompt"">
                        <b>请用数字键1-3回答</b>
                        </div>","","","","","","","","","","","","","","","","","","",""
"528","null","sub_response","html-keyboard-response","128","274958","0.0-1.0-7.0-3.0-2.15","23:46:32","3","","","","","","","<div style='text-align: center;'>
                            <span style=""color: green; font-size: 40px""><b>正确！+1 pts</b></span></div>
                            ","","learn","1","1","1","learn","0","0","[0, 1, 2]","15","5","setsize","3S3A","animals","1","2","0","1",""
"null","null","fixation","html-keyboard-response","129","275459","0.0-1.0-7.0-3.0-0.16","23:46:32","3","","","","","","","fixation","","","","","","","","","","","","","","","","","","",""
"809","3","pic_response","html-keyboard-response","130","276269","0.0-1.0-7.0-3.0-1.16","23:46:32","3","","","","","","","<div>
            <img class='stim' src=""pictures/animals/2.jpg""></div><div class=""button_prompt"">
                        <b>请用数字键1-3回答</b>
                        </div>","","","","","","","","","","","","","","","","","","",""
"809","null","sub_response","html-keyboard-response","131","277271","0.0-1.0-7.0-3.0-2.16","23:46:32","3","","","","","","","<div style='text-align: center;'>
                            <span style=""color: green; font-size: 40px""><b>正确！+1 pts</b></span></div>
                            ","","learn","2","2","2","learn","2","2","[0, 1, 2]","16","5","setsize","3S3A","animals","1","3","2","1",""
"null","null","fixation","html-keyboard-response","132","277773","0.0-1.0-7.0-3.0-0.17","23:46:32","3","","","","","","","fixation","","","","","","","","","","","","","","","","","","",""
"386","1","pic_response","html-keyboard-response","133","278159","0.0-1.0-7.0-3.0-1.17","23:46:32","3","","","","","","","<div>
            <img class='stim' src=""pictures/animals/0.jpg""></div><div class=""button_prompt"">
                        <b>请用数字键1-3回答</b>
                        </div>","","","","","","","","","","","","","","","","","","",""
"386","null","sub_response","html-keyboard-response","134","279161","0.0-1.0-7.0-3.0-2.17","23:46:32","3","","","","","","","<div style='text-align: center;'>
                            <span style=""color: green; font-size: 40px""><b>正确！+1 pts</b></span></div>
                            ","","learn","0","0","0","learn","0","0","[0, 1, 2]","17","5","setsize","3S3A","animals","1","4","0","1",""
"null","null","fixation","html-keyboard-response","135","279663","0.0-1.0-7.0-3.0-0.18","23:46:32","3","","","","","","","fixation","","","","","","","","","","","","","","","","","","",""
"402","1","pic_response","html-keyboard-response","136","280065","0.0-1.0-7.0-3.0-1.18","23:46:32","3","","","","","","","<div>
            <img class='stim' src=""pictures/animals/1.jpg""></div><div class=""button_prompt"">
                        <b>请用数字键1-3回答</b>
                        </div>","","","","","","","","","","","","","","","","","","",""
"402","null","sub_response","html-keyboard-response","137","281066","0.0-1.0-7.0-3.0-2.18","23:46:32","3","","","","","","","<div style='text-align: center;'>
                            <span style=""color: green; font-size: 40px""><b>正确！+1 pts</b></span></div>
                            ","","learn","1","1","1","learn","0","0","[0, 1, 2]","18","6","setsize","3S3A","animals","1","5","0","1",""
"null","null","fixation","html-keyboard-response","138","281568","0.0-1.0-7.0-3.0-0.19","23:46:32","3","","","","","","","fixation","","","","","","","","","","","","","","","","","","",""
"688","1","pic_response","html-keyboard-response","139","282256","0.0-1.0-7.0-3.0-1.19","23:46:32","3","","","","","","","<div>
            <img class='stim' src=""pictures/animals/0.jpg""></div><div class=""button_prompt"">
                        <b>请用数字键1-3回答</b>
                        </div>","","","","","","","","","","","","","","","","","","",""
"688","null","sub_response","html-keyboard-response","140","283258","0.0-1.0-7.0-3.0-2.19","23:46:32","3","","","","","","","<div style='text-align: center;'>
                            <span style=""color: green; font-size: 40px""><b>正确！+1 pts</b></span></div>
                            ","","learn","0","0","0","learn","0","0","[0, 1, 2]","19","6","setsize","3S3A","animals","1","6","0","1",""
"null","null","fixation","html-keyboard-response","141","283759","0.0-1.0-7.0-3.0-0.20","23:46:32","3","","","","","","","fixation","","","","","","","","","","","","","","","","","","",""
"791","3","pic_response","html-keyboard-response","142","284550","0.0-1.0-7.0-3.0-1.20","23:46:32","3","","","","","","","<div>
            <img class='stim' src=""pictures/animals/2.jpg""></div><div class=""button_prompt"">
                        <b>请用数字键1-3回答</b>
                        </div>","","","","","","","","","","","","","","","","","","",""
"791","null","sub_response","html-keyboard-response","143","285551","0.0-1.0-7.0-3.0-2.20","23:46:32","3","","","","","","","<div style='text-align: center;'>
                            <span style=""color: green; font-size: 40px""><b>正确！+1 pts</b></span></div>
                            ","","learn","2","2","2","learn","2","2","[0, 1, 2]","20","6","setsize","3S3A","animals","1","7","2","1",""
"null","null","fixation","html-keyboard-response","144","286052","0.0-1.0-7.0-3.0-0.21","23:46:32","3","","","","","","","fixation","","","","","","","","","","","","","","","","","","",""
"615","3","pic_response","html-keyboard-response","145","286668","0.0-1.0-7.0-3.0-1.21","23:46:32","3","","","","","","","<div>
            <img class='stim' src=""pictures/animals/2.jpg""></div><div class=""button_prompt"">
                        <b>请用数字键1-3回答</b>
                        </div>","","","","","","","","","","","","","","","","","","",""
"615","null","sub_response","html-keyboard-response","146","287669","0.0-1.0-7.0-3.0-2.21","23:46:32","3","","","","","","","<div style='text-align: center;'>
                            <span style=""color: green; font-size: 40px""><b>正确！+1 pts</b></span></div>
                            ","","learn","2","2","2","learn","2","2","[0, 1, 2]","21","7","setsize","3S3A","animals","1","8","2","1",""
"null","null","fixation","html-keyboard-response","147","288170","0.0-1.0-7.0-3.0-0.22","23:46:32","3","","","","","","","fixation","","","","","","","","","","","","","","","","","","",""
"661","1","pic_response","html-keyboard-response","148","288831","0.0-1.0-7.0-3.0-1.22","23:46:32","3","","","","","","","<div>
            <img class='stim' src=""pictures/animals/0.jpg""></div><div class=""button_prompt"">
                        <b>请用数字键1-3回答</b>
                        </div>","","","","","","","","","","","","","","","","","","",""
"661","null","sub_response","html-keyboard-response","149","289832","0.0-1.0-7.0-3.0-2.22","23:46:32","3","","","","","","","<div style='text-align: center;'>
                            <span style=""color: green; font-size: 40px""><b>正确！+1 pts</b></span></div>
                            ","","learn","0","0","0","learn","0","0","[0, 1, 2]","22","7","setsize","3S3A","animals","1","9","0","1",""
"null","null","fixation","html-keyboard-response","150","290334","0.0-1.0-7.0-3.0-0.23","23:46:32","3","","","","","","","fixation","","","","","","","","","","","","","","","","","","",""
"518","1","pic_response","html-keyboard-response","151","290853","0.0-1.0-7.0-3.0-1.23","23:46:32","3","","","","","","","<div>
            <img class='stim' src=""pictures/animals/1.jpg""></div><div class=""button_prompt"">
                        <b>请用数字键1-3回答</b>
                        </div>","","","","","","","","","","","","","","","","","","",""
"518","null","sub_response","html-keyboard-response","152","291854","0.0-1.0-7.0-3.0-2.23","23:46:32","3","","","","","","","<div style='text-align: center;'>
                            <span style=""color: green; font-size: 40px""><b>正确！+1 pts</b></span></div>
                            ","","learn","1","1","1","learn","0","0","[0, 1, 2]","23","7","setsize","3S3A","animals","1","10","0","1",""
"null","null","fixation","html-keyboard-response","153","292356","0.0-1.0-7.0-3.0-0.24","23:46:32","3","","","","","","","fixation","","","","","","","","","","","","","","","","","","",""
"649","1","pic_response","html-keyboard-response","154","293005","0.0-1.0-7.0-3.0-1.24","23:46:32","3","","","","","","","<div>
            <img class='stim' src=""pictures/animals/1.jpg""></div><div class=""button_prompt"">
                        <b>请用数字键1-3回答</b>
                        </div>","","","","","","","","","","","","","","","","","","",""
"649","null","sub_response","html-keyboard-response","155","294007","0.0-1.0-7.0-3.0-2.24","23:46:32","3","","","","","","","<div style='text-align: center;'>
                            <span style=""color: green; font-size: 40px""><b>正确！+1 pts</b></span></div>
                            ","","learn","1","1","1","learn","0","0","[0, 1, 2]","24","8","setsize","3S3A","animals","1","11","0","1",""
"null","null","fixation","html-keyboard-response","156","294508","0.0-1.0-7.0-3.0-0.25","23:46:32","3","","","","","","","fixation","","","","","","","","","","","","","","","","","","",""
"529","3","pic_response","html-keyboard-response","157","295037","0.0-1.0-7.0-3.0-1.25","23:46:32","3","","","","","","","<div>
            <img class='stim' src=""pictures/animals/2.jpg""></div><div class=""button_prompt"">
                        <b>请用数字键1-3回答</b>
                        </div>","","","","","","","","","","","","","","","","","","",""
"529","null","sub_response","html-keyboard-response","158","296039","0.0-1.0-7.0-3.0-2.25","23:46:32","3","","","","","","","<div style='text-align: center;'>
                            <span style=""color: green; font-size: 40px""><b>正确！+1 pts</b></span></div>
                            ","","learn","2","2","2","learn","2","2","[0, 1, 2]","25","8","setsize","3S3A","animals","1","12","2","1",""
"null","null","fixation","html-keyboard-response","159","296540","0.0-1.0-7.0-3.0-0.26","23:46:32","3","","","","","","","fixation","","","","","","","","","","","","","","","","","","",""
"662","1","pic_response","html-keyboard-response","160","297202","0.0-1.0-7.0-3.0-1.26","23:46:32","3","","","","","","","<div>
            <img class='stim' src=""pictures/animals/0.jpg""></div><div class=""button_prompt"">
                        <b>请用数字键1-3回答</b>
                        </div>","","","","","","","","","","","","","","","","","","",""
"662","null","sub_response","html-keyboard-response","161","298203","0.0-1.0-7.0-3.0-2.26","23:46:32","3","","","","","","","<div style='text-align: center;'>
                            <span style=""color: green; font-size: 40px""><b>正确！+1 pts</b></span></div>
                            ","","learn","0","0","0","learn","0","0","[0, 1, 2]","26","8","setsize","3S3A","animals","1","13","0","1",""
"null","null","fixation","html-keyboard-response","162","298705","0.0-1.0-7.0-3.0-0.27","23:46:32","3","","","","","","","fixation","","","","","","","","","","","","","","","","","","",""
"457","1","pic_response","html-keyboard-response","163","299162","0.0-1.0-7.0-3.0-1.27","23:46:32","3","","","","","","","<div>
            <img class='stim' src=""pictures/animals/0.jpg""></div><div class=""button_prompt"">
                        <b>请用数字键1-3回答</b>
                        </div>","","","","","","","","","","","","","","","","","","",""
"457","null","sub_response","html-keyboard-response","164","300163","0.0-1.0-7.0-3.0-2.27","23:46:32","3","","","","","","","<div style='text-align: center;'>
                            <span style=""color: green; font-size: 40px""><b>正确！+1 pts</b></span></div>
                            ","","learn","0","0","0","learn","0","0","[0, 1, 2]","27","9","setsize","3S3A","animals","1","14","0","1",""
"null","null","fixation","html-keyboard-response","165","300665","0.0-1.0-7.0-3.0-0.28","23:46:32","3","","","","","","","fixation","","","","","","","","","","","","","","","","","","",""
"516","1","pic_response","html-keyboard-response","166","301181","0.0-1.0-7.0-3.0-1.28","23:46:32","3","","","","","","","<div>
            <img class='stim' src=""pictures/animals/2.jpg""></div><div class=""button_prompt"">
                        <b>请用数字键1-3回答</b>
                        </div>","","","","","","","","","","","","","","","","","","",""
"516","null","sub_response","html-keyboard-response","167","302182","0.0-1.0-7.0-3.0-2.28","23:46:32","3","","","","","","","<div style='text-align: center;'>
                            <span style=""color: red; font-size: 40px""><b>错误！+0 pts</b></span></div>
                            ","","learn","2","2","2","learn","2","2","[0, 1, 2]","28","9","setsize","3S3A","animals","1","0","0","0",""
"null","null","fixation","html-keyboard-response","168","302692","0.0-1.0-7.0-3.0-0.29","23:46:32","3","","","","","","","fixation","","","","","","","","","","","","","","","","","","",""
"683","1","pic_response","html-keyboard-response","169","303375","0.0-1.0-7.0-3.0-1.29","23:46:32","3","","","","","","","<div>
            <img class='stim' src=""pictures/animals/1.jpg""></div><div class=""button_prompt"">
                        <b>请用数字键1-3回答</b>
                        </div>","","","","","","","","","","","","","","","","","","",""
"683","null","sub_response","html-keyboard-response","170","304376","0.0-1.0-7.0-3.0-2.29","23:46:32","3","","","","","","","<div style='text-align: center;'>
                            <span style=""color: green; font-size: 40px""><b>正确！+1 pts</b></span></div>
                            ","","learn","1","1","1","learn","0","0","[0, 1, 2]","29","9","setsize","3S3A","animals","1","1","0","1",""
"null","null","fixation","html-keyboard-response","171","304877","0.0-1.0-7.0-3.0-0.30","23:46:32","3","","","","","","","fixation","","","","","","","","","","","","","","","","","","",""
"538","1","pic_response","html-keyboard-response","172","305416","0.0-1.0-7.0-3.0-1.30","23:46:32","3","","","","","","","<div>
            <img class='stim' src=""pictures/animals/1.jpg""></div><div class=""button_prompt"">
                        <b>请用数字键1-3回答</b>
                        </div>","","","","","","","","","","","","","","","","","","",""
"538","null","sub_response","html-keyboard-response","173","306428","0.0-1.0-7.0-3.0-2.30","23:46:32","3","","","","","","","<div style='text-align: center;'>
                            <span style=""color: green; font-size: 40px""><b>正确！+1 pts</b></span></div>
                            ","","learn","1","1","1","learn","0","0","[0, 1, 2]","30","10","setsize","3S3A","animals","1","2","0","1",""
"null","null","fixation","html-keyboard-response","174","306930","0.0-1.0-7.0-3.0-0.31","23:46:32","3","","","","","","","fixation","","","","","","","","","","","","","","","","","","",""
"642","3","pic_response","html-keyboard-response","175","307572","0.0-1.0-7.0-3.0-1.31","23:46:32","3","","","","","","","<div>
            <img class='stim' src=""pictures/animals/2.jpg""></div><div class=""button_prompt"">
                        <b>请用数字键1-3回答</b>
                        </div>","","","","","","","","","","","","","","","","","","",""
"642","null","sub_response","html-keyboard-response","176","308574","0.0-1.0-7.0-3.0-2.31","23:46:32","3","","","","","","","<div style='text-align: center;'>
                            <span style=""color: green; font-size: 40px""><b>正确！+1 pts</b></span></div>
                            ","","learn","2","2","2","learn","2","2","[0, 1, 2]","31","10","setsize","3S3A","animals","1","3","2","1",""
"null","null","fixation","html-keyboard-response","177","309076","0.0-1.0-7.0-3.0-0.32","23:46:32","3","","","","","","","fixation","","","","","","","","","","","","","","","","","","",""
"547","1","pic_response","html-keyboard-response","178","309623","0.0-1.0-7.0-3.0-1.32","23:46:32","3","","","","","","","<div>
            <img class='stim' src=""pictures/animals/0.jpg""></div><div class=""button_prompt"">
                        <b>请用数字键1-3回答</b>
                        </div>","","","","","","","","","","","","","","","","","","",""
"547","null","sub_response","html-keyboard-response","179","310625","0.0-1.0-7.0-3.0-2.32","23:46:32","3","","","","","","","<div style='text-align: center;'>
                            <span style=""color: green; font-size: 40px""><b>正确！+1 pts</b></span></div>
                            ","","learn","0","0","0","learn","0","0","[0, 1, 2]","32","10","setsize","3S3A","animals","1","4","0","1",""
"null","null","fixation","html-keyboard-response","180","311126","0.0-1.0-7.0-3.0-0.33","23:46:32","3","","","","","","","fixation","","","","","","","","","","","","","","","","","","",""
"555","1","pic_response","html-keyboard-response","181","311682","0.0-1.0-7.0-3.0-1.33","23:46:32","3","","","","","","","<div>
            <img class='stim' src=""pictures/animals/1.jpg""></div><div class=""button_prompt"">
                        <b>请用数字键1-3回答</b>
                        </div>","","","","","","","","","","","","","","","","","","",""
"555","null","sub_response","html-keyboard-response","182","312695","0.0-1.0-7.0-3.0-2.33","23:46:32","3","","","","","","","<div style='text-align: center;'>
                            <span style=""color: green; font-size: 40px""><b>正确！+1 pts</b></span></div>
                            ","","learn","1","1","1","learn","0","0","[0, 1, 2]","33","11","setsize","3S3A","animals","1","5","0","1",""
"null","null","fixation","html-keyboard-response","183","313196","0.0-1.0-7.0-3.0-0.34","23:46:32","3","","","","","","","fixation","","","","","","","","","","","","","","","","","","",""
"789","1","pic_response","html-keyboard-response","184","313987","0.0-1.0-7.0-3.0-1.34","23:46:32","3","","","","","","","<div>
            <img class='stim' src=""pictures/animals/0.jpg""></div><div class=""button_prompt"">
                        <b>请用数字键1-3回答</b>
                        </div>","","","","","","","","","","","","","","","","","","",""
"789","null","sub_response","html-keyboard-response","185","314988","0.0-1.0-7.0-3.0-2.34","23:46:32","3","","","","","","","<div style='text-align: center;'>
                            <span style=""color: green; font-size: 40px""><b>正确！+1 pts</b></span></div>
                            ","","learn","0","0","0","learn","0","0","[0, 1, 2]","34","11","setsize","3S3A","animals","1","6","0","1",""
"null","null","fixation","html-keyboard-response","186","315489","0.0-1.0-7.0-3.0-0.35","23:46:32","3","","","","","","","fixation","","","","","","","","","","","","","","","","","","",""
"460","3","pic_response","html-keyboard-response","187","315949","0.0-1.0-7.0-3.0-1.35","23:46:32","3","","","","","","","<div>
            <img class='stim' src=""pictures/animals/2.jpg""></div><div class=""button_prompt"">
                        <b>请用数字键1-3回答</b>
                        </div>","","","","","","","","","","","","","","","","","","",""
"460","null","sub_response","html-keyboard-response","188","316950","0.0-1.0-7.0-3.0-2.35","23:46:32","3","","","","","","","<div style='text-align: center;'>
                            <span style=""color: green; font-size: 40px""><b>正确！+1 pts</b></span></div>
                            ","","learn","2","2","2","learn","2","2","[0, 1, 2]","35","11","setsize","3S3A","animals","1","7","2","1",""
"null","null","fixation","html-keyboard-response","189","317451","0.0-1.0-7.0-3.0-0.36","23:46:32","3","","","","","","","fixation","","","","","","","","","","","","","","","","","","",""
"506","1","pic_response","html-keyboard-response","190","317958","0.0-1.0-7.0-3.0-1.36","23:46:32","3","","","","","","","<div>
            <img class='stim' src=""pictures/animals/1.jpg""></div><div class=""button_prompt"">
                        <b>请用数字键1-3回答</b>
                        </div>","","","","","","","","","","","","","","","","","","",""
"506","null","sub_response","html-keyboard-response","191","318959","0.0-1.0-7.0-3.0-2.36","23:46:32","3","","","","","","","<div style='text-align: center;'>
                            <span style=""color: green; font-size: 40px""><b>正确！+1 pts</b></span></div>
                            ","","learn","1","1","1","learn","0","0","[0, 1, 2]","36","12","setsize","3S3A","animals","1","8","0","1",""
"null","null","fixation","html-keyboard-response","192","319461","0.0-1.0-7.0-3.0-0.37","23:46:32","3","","","","","","","fixation","","","","","","","","","","","","","","","","","","",""
"657","3","pic_response","html-keyboard-response","193","320118","0.0-1.0-7.0-3.0-1.37","23:46:32","3","","","","","","","<div>
            <img class='stim' src=""pictures/animals/2.jpg""></div><div class=""button_prompt"">
                        <b>请用数字键1-3回答</b>
                        </div>","","","","","","","","","","","","","","","","","","",""
"657","null","sub_response","html-keyboard-response","194","321120","0.0-1.0-7.0-3.0-2.37","23:46:32","3","","","","","","","<div style='text-align: center;'>
                            <span style=""color: green; font-size: 40px""><b>正确！+1 pts</b></span></div>
                            ","","learn","2","2","2","learn","2","2","[0, 1, 2]","37","12","setsize","3S3A","animals","1","9","2","1",""
"null","null","fixation","html-keyboard-response","195","321621","0.0-1.0-7.0-3.0-0.38","23:46:32","3","","","","","","","fixation","","","","","","","","","","","","","","","","","","",""
"598","1","pic_response","html-keyboard-response","196","322220","0.0-1.0-7.0-3.0-1.38","23:46:32","3","","","","","","","<div>
            <img class='stim' src=""pictures/animals/0.jpg""></div><div class=""button_prompt"">
                        <b>请用数字键1-3回答</b>
                        </div>","","","","","","","","","","","","","","","","","","",""
"598","null","sub_response","html-keyboard-response","197","323221","0.0-1.0-7.0-3.0-2.38","23:46:32","3","","","","","","","<div style='text-align: center;'>
                            <span style=""color: green; font-size: 40px""><b>正确！+1 pts</b></span></div>
                            ","","learn","0","0","0","learn","0","0","[0, 1, 2]","38","12","setsize","3S3A","animals","1","10","0","1",""
"null","null","fixation","html-keyboard-response","198","323722","0.0-1.0-7.0-3.0-0.39","23:46:32","3","","","","","","","fixation","","","","","","","","","","","","","","","","","","",""
"602","1","pic_response","html-keyboard-response","199","324325","0.0-1.0-7.0-3.0-1.39","23:46:32","3","","","","","","","<div>
            <img class='stim' src=""pictures/animals/1.jpg""></div><div class=""button_prompt"">
                        <b>请用数字键1-3回答</b>
                        </div>","","","","","","","","","","","","","","","","","","",""
"602","null","sub_response","html-keyboard-response","200","325326","0.0-1.0-7.0-3.0-2.39","23:46:32","3","","","","","","","<div style='text-align: center;'>
                            <span style=""color: green; font-size: 40px""><b>正确！+1 pts</b></span></div>
                            ","","learn","1","1","1","learn","0","0","[0, 1, 2]","39","13","setsize","3S3A","animals","1","11","0","1",""
"null","null","fixation","html-keyboard-response","201","325828","0.0-1.0-7.0-3.0-0.40","23:46:32","3","","","","","","","fixation","","","","","","","","","","","","","","","","","","",""
"424","3","pic_response","html-keyboard-response","202","326252","0.0-1.0-7.0-3.0-1.40","23:46:32","3","","","","","","","<div>
            <img class='stim' src=""pictures/animals/2.jpg""></div><div class=""button_prompt"">
                        <b>请用数字键1-3回答</b>
                        </div>","","","","","","","","","","","","","","","","","","",""
"424","null","sub_response","html-keyboard-response","203","327254","0.0-1.0-7.0-3.0-2.40","23:46:32","3","","","","","","","<div style='text-align: center;'>
                            <span style=""color: green; font-size: 40px""><b>正确！+1 pts</b></span></div>
                            ","","learn","2","2","2","learn","2","2","[0, 1, 2]","40","13","setsize","3S3A","animals","1","12","2","1",""
"null","null","fixation","html-keyboard-response","204","327755","0.0-1.0-7.0-3.0-0.41","23:46:32","3","","","","","","","fixation","","","","","","","","","","","","","","","","","","",""
"474","1","pic_response","html-keyboard-response","205","328230","0.0-1.0-7.0-3.0-1.41","23:46:32","3","","","","","","","<div>
            <img class='stim' src=""pictures/animals/0.jpg""></div><div class=""button_prompt"">
                        <b>请用数字键1-3回答</b>
                        </div>","","","","","","","","","","","","","","","","","","",""
"474","null","sub_response","html-keyboard-response","206","329232","0.0-1.0-7.0-3.0-2.41","23:46:32","3","","","","","","","<div style='text-align: center;'>
                            <span style=""color: green; font-size: 40px""><b>正确！+1 pts</b></span></div>
                            ","","learn","0","0","0","learn","0","0","[0, 1, 2]","41","13","setsize","3S3A","animals","1","13","0","1",""
"null","null","fixation","html-keyboard-response","207","329734","0.0-1.0-7.0-3.0-0.42","23:46:32","3","","","","","","","fixation","","","","","","","","","","","","","","","","","","",""
"730","3","pic_response","html-keyboard-response","208","330464","0.0-1.0-7.0-3.0-1.42","23:46:32","3","","","","","","","<div>
            <img class='stim' src=""pictures/animals/2.jpg""></div><div class=""button_prompt"">
                        <b>请用数字键1-3回答</b>
                        </div>","","","","","","","","","","","","","","","","","","",""
"730","null","sub_response","html-keyboard-response","209","331465","0.0-1.0-7.0-3.0-2.42","23:46:32","3","","","","","","","<div style='text-align: center;'>
                            <span style=""color: green; font-size: 40px""><b>正确！+1 pts</b></span></div>
                            ","","learn","2","2","2","learn","2","2","[0, 1, 2]","42","14","setsize","3S3A","animals","1","14","2","1",""
"null","null","fixation","html-keyboard-response","210","331966","0.0-1.0-7.0-3.0-0.43","23:46:32","3","","","","","","","fixation","","","","","","","","","","","","","","","","","","",""
"428","1","pic_response","html-keyboard-response","211","332394","0.0-1.0-7.0-3.0-1.43","23:46:32","3","","","","","","","<div>
            <img class='stim' src=""pictures/animals/0.jpg""></div><div class=""button_prompt"">
                        <b>请用数字键1-3回答</b>
                        </div>","","","","","","","","","","","","","","","","","","",""
"428","null","sub_response","html-keyboard-response","212","333396","0.0-1.0-7.0-3.0-2.43","23:46:32","3","","","","","","","<div style='text-align: center;'>
                            <span style=""color: green; font-size: 40px""><b>正确！+1 pts</b></span></div>
                            ","","learn","0","0","0","learn","0","0","[0, 1, 2]","43","14","setsize","3S3A","animals","1","15","0","1",""
"null","null","fixation","html-keyboard-response","213","333898","0.0-1.0-7.0-3.0-0.44","23:46:32","3","","","","","","","fixation","","","","","","","","","","","","","","","","","","",""
"557","1","pic_response","html-keyboard-response","214","334456","0.0-1.0-7.0-3.0-1.44","23:46:32","3","","","","","","","<div>
            <img class='stim' src=""pictures/animals/1.jpg""></div><div class=""button_prompt"">
                        <b>请用数字键1-3回答</b>
                        </div>","","","","","","","","","","","","","","","","","","",""
"557","null","sub_response","html-keyboard-response","215","335457","0.0-1.0-7.0-3.0-2.44","23:46:32","3","","","","","","","<div style='text-align: center;'>
                            <span style=""color: green; font-size: 40px""><b>正确！+1 pts</b></span></div>
                            ","","learn","1","1","1","learn","0","0","[0, 1, 2]","44","14","setsize","3S3A","animals","1","16","0","1",""
"null","null","fixation","html-keyboard-response","216","335958","0.0-1.0-7.0-3.0-0.45","23:46:32","3","","","","","","","fixation","","","","","","","","","","","","","","","","","","",""
"392","3","pic_response","html-keyboard-response","217","336350","0.0-1.0-7.0-3.0-1.45","23:46:32","3","","","","","","","<div>
            <img class='stim' src=""pictures/animals/2.jpg""></div><div class=""button_prompt"">
                        <b>请用数字键1-3回答</b>
                        </div>","","","","","","","","","","","","","","","","","","",""
"392","null","sub_response","html-keyboard-response","218","337353","0.0-1.0-7.0-3.0-2.45","23:46:32","3","","","","","","","<div style='text-align: center;'>
                            <span style=""color: green; font-size: 40px""><b>正确！+1 pts</b></span></div>
                            ","","learn","2","2","2","learn","2","2","[0, 1, 2]","45","15","setsize","3S3A","animals","1","17","2","1",""
"1945"," ","","html-keyboard-response","219","339299","0.0-1.0-8.0","23:46:32","3","","","","","","","<div style=""font-size: 25px""><p>距下一个实验开始还有</p><div style=""font-size: 50px; color: blue""><p><span id=""clock"">1:00</span></div></p><p>按""空格""跳过休息</p></div>","","","","","","","","","","","","","","","","","","",""
"","","","preload","220","339484","0.0-1.0-9.0-0.0","23:46:32","3","true","false","[]","[]","[]","","","","","","","","","","","","","","","","","","","","",""
"885"," ","","html-keyboard-response","221","340369","0.0-1.0-9.0-1.0","23:46:32","3","","","","","","","<div style='font-size: 32px; text-align: center;'
                    <p>请学习图片和数字之间的对应关系</p>
                    <p>我们将<span style='color: blue'><b> 告诉 </b></span>您选择的对错。请根据反馈学习。</p>
                    <p>请按""空格""继续实验。</p></div>","","","","","","","","","","","","","","","","","","",""
"3532"," ","inst","html-keyboard-response","222","343901","0.0-1.0-9.0-2.0","23:46:32","3","","","","","","","<img class='instruct_stim' src=""instruction/furniture3.PNG""></div>","","","","","","","","","","","","","","","","","","",""
"null","null","fixation","html-keyboard-response","223","344402","0.0-1.0-9.0-3.0-0.0","23:46:32","3","","","","","","","fixation","","","","","","","","","","","","","","","","","","",""
"497","1","pic_response","html-keyboard-response","224","344900","0.0-1.0-9.0-3.0-1.0","23:46:32","3","","","","","","","<div>
            <img class='stim' src=""pictures/furniture/1.jpg""></div><div class=""button_prompt"">
                    <b>请用数字键0-9回答</b>
                    </div>","","","","","","","","","","","","","","","","","","",""
"497","null","sub_response","html-keyboard-response","225","345901","0.0-1.0-9.0-3.0-2.0","23:46:32","3","","","","","","","<div style='text-align: center;'>
                            <span style=""color: red; font-size: 40px""><b>错误！+0 pts</b></span></div>
                            ","","learn","1","1","1","learn","6","6","[0, 1, 2, 3, 4, 5, 6, 7, 8, 9]","0","0","setsize","3S10A","furniture","2","0","0","0",""
"null","null","fixation","html-keyboard-response","226","346402","0.0-1.0-9.0-3.0-0.1","23:46:32","3","","","","","","","fixation","","","","","","","","","","","","","","","","","","",""
"630","1","pic_response","html-keyboard-response","227","347033","0.0-1.0-9.0-3.0-1.1","23:46:32","3","","","","","","","<div>
            <img class='stim' src=""pictures/furniture/0.jpg""></div><div class=""button_prompt"">
                    <b>请用数字键0-9回答</b>
                    </div>","","","","","","","","","","","","","","","","","","",""
"630","null","sub_response","html-keyboard-response","228","348034","0.0-1.0-9.0-3.0-2.1","23:46:32","3","","","","","","","<div style='text-align: center;'>
                            <span style=""color: red; font-size: 40px""><b>错误！+0 pts</b></span></div>
                            ","","learn","0","0","0","learn","2","2","[0, 1, 2, 3, 4, 5, 6, 7, 8, 9]","1","0","setsize","3S10A","furniture","2","0","0","0",""
"null","null","fixation","html-keyboard-response","229","348536","0.0-1.0-9.0-3.0-0.2","23:46:32","3","","","","","","","fixation","","","","","","","","","","","","","","","","","","",""
"402","1","pic_response","html-keyboard-response","230","348938","0.0-1.0-9.0-3.0-1.2","23:46:32","3","","","","","","","<div>
            <img class='stim' src=""pictures/furniture/2.jpg""></div><div class=""button_prompt"">
                    <b>请用数字键0-9回答</b>
                    </div>","","","","","","","","","","","","","","","","","","",""
"402","null","sub_response","html-keyboard-response","231","349940","0.0-1.0-9.0-3.0-2.2","23:46:32","3","","","","","","","<div style='text-align: center;'>
                            <span style=""color: red; font-size: 40px""><b>错误！+0 pts</b></span></div>
                            ","","learn","2","2","2","learn","9","9","[0, 1, 2, 3, 4, 5, 6, 7, 8, 9]","2","0","setsize","3S10A","furniture","2","0","0","0",""
"null","null","fixation","html-keyboard-response","232","350442","0.0-1.0-9.0-3.0-0.3","23:46:32","3","","","","","","","fixation","","","","","","","","","","","","","","","","","","",""
"932","2","pic_response","html-keyboard-response","233","351375","0.0-1.0-9.0-3.0-1.3","23:46:32","3","","","","","","","<div>
            <img class='stim' src=""pictures/furniture/2.jpg""></div><div class=""button_prompt"">
                    <b>请用数字键0-9回答</b>
                    </div>","","","","","","","","","","","","","","","","","","",""
"932","null","sub_response","html-keyboard-response","234","352376","0.0-1.0-9.0-3.0-2.3","23:46:32","3","","","","","","","<div style='text-align: center;'>
                            <span style=""color: red; font-size: 40px""><b>错误！+0 pts</b></span></div>
                            ","","learn","2","2","2","learn","9","9","[0, 1, 2, 3, 4, 5, 6, 7, 8, 9]","3","1","setsize","3S10A","furniture","2","0","1","0",""
"null","null","fixation","html-keyboard-response","235","352877","0.0-1.0-9.0-3.0-0.4","23:46:32","3","","","","","","","fixation","","","","","","","","","","","","","","","","","","",""
"565","3","pic_response","html-keyboard-response","236","353442","0.0-1.0-9.0-3.0-1.4","23:46:32","3","","","","","","","<div>
            <img class='stim' src=""pictures/furniture/1.jpg""></div><div class=""button_prompt"">
                    <b>请用数字键0-9回答</b>
                    </div>","","","","","","","","","","","","","","","","","","",""
"565","null","sub_response","html-keyboard-response","237","354445","0.0-1.0-9.0-3.0-2.4","23:46:32","3","","","","","","","<div style='text-align: center;'>
                            <span style=""color: red; font-size: 40px""><b>错误！+0 pts</b></span></div>
                            ","","learn","1","1","1","learn","6","6","[0, 1, 2, 3, 4, 5, 6, 7, 8, 9]","4","1","setsize","3S10A","furniture","2","0","2","0",""
"null","null","fixation","html-keyboard-response","238","354946","0.0-1.0-9.0-3.0-0.5","23:46:32","3","","","","","","","fixation","","","","","","","","","","","","","","","","","","",""
"1131","2","pic_response","html-keyboard-response","239","356078","0.0-1.0-9.0-3.0-1.5","23:46:32","3","","","","","","","<div>
            <img class='stim' src=""pictures/furniture/0.jpg""></div><div class=""button_prompt"">
                    <b>请用数字键0-9回答</b>
                    </div>","","","","","","","","","","","","","","","","","","",""
"1131","null","sub_response","html-keyboard-response","240","357079","0.0-1.0-9.0-3.0-2.5","23:46:32","3","","","","","","","<div style='text-align: center;'>
                            <span style=""color: red; font-size: 40px""><b>错误！+0 pts</b></span></div>
                            ","","learn","0","0","0","learn","2","2","[0, 1, 2, 3, 4, 5, 6, 7, 8, 9]","5","1","setsize","3S10A","furniture","2","0","1","0",""
"null","null","fixation","html-keyboard-response","241","357581","0.0-1.0-9.0-3.0-0.6","23:46:32","3","","","","","","","fixation","","","","","","","","","","","","","","","","","","",""
"796","3","pic_response","html-keyboard-response","242","358377","0.0-1.0-9.0-3.0-1.6","23:46:32","3","","","","","","","<div>
            <img class='stim' src=""pictures/furniture/2.jpg""></div><div class=""button_prompt"">
                    <b>请用数字键0-9回答</b>
                    </div>","","","","","","","","","","","","","","","","","","",""
"796","null","sub_response","html-keyboard-response","243","359379","0.0-1.0-9.0-3.0-2.6","23:46:32","3","","","","","","","<div style='text-align: center;'>
                            <span style=""color: red; font-size: 40px""><b>错误！+0 pts</b></span></div>
                            ","","learn","2","2","2","learn","9","9","[0, 1, 2, 3, 4, 5, 6, 7, 8, 9]","6","2","setsize","3S10A","furniture","2","0","2","0",""
"null","null","fixation","html-keyboard-response","244","359880","0.0-1.0-9.0-3.0-0.7","23:46:32","3","","","","","","","fixation","","","","","","","","","","","","","","","","","","",""
"1029","2","pic_response","html-keyboard-response","245","360909","0.0-1.0-9.0-3.0-1.7","23:46:32","3","","","","","","","<div>
            <img class='stim' src=""pictures/furniture/1.jpg""></div><div class=""button_prompt"">
                    <b>请用数字键0-9回答</b>
                    </div>","","","","","","","","","","","","","","","","","","",""
"1029","null","sub_response","html-keyboard-response","246","361910","0.0-1.0-9.0-3.0-2.7","23:46:32","3","","","","","","","<div style='text-align: center;'>
                            <span style=""color: red; font-size: 40px""><b>错误！+0 pts</b></span></div>
                            ","","learn","1","1","1","learn","6","6","[0, 1, 2, 3, 4, 5, 6, 7, 8, 9]","7","2","setsize","3S10A","furniture","2","0","1","0",""
"null","null","fixation","html-keyboard-response","247","362412","0.0-1.0-9.0-3.0-0.8","23:46:32","3","","","","","","","fixation","","","","","","","","","","","","","","","","","","",""
"981","2","pic_response","html-keyboard-response","248","363394","0.0-1.0-9.0-3.0-1.8","23:46:32","3","","","","","","","<div>
            <img class='stim' src=""pictures/furniture/0.jpg""></div><div class=""button_prompt"">
                    <b>请用数字键0-9回答</b>
                    </div>","","","","","","","","","","","","","","","","","","",""
"981","null","sub_response","html-keyboard-response","249","364395","0.0-1.0-9.0-3.0-2.8","23:46:32","3","","","","","","","<div style='text-align: center;'>
                            <span style=""color: red; font-size: 40px""><b>错误！+0 pts</b></span></div>
                            ","","learn","0","0","0","learn","2","2","[0, 1, 2, 3, 4, 5, 6, 7, 8, 9]","8","2","setsize","3S10A","furniture","2","0","1","0",""
"null","null","fixation","html-keyboard-response","250","364897","0.0-1.0-9.0-3.0-0.9","23:46:32","3","","","","","","","fixation","","","","","","","","","","","","","","","","","","",""
"1201","3","pic_response","html-keyboard-response","251","366099","0.0-1.0-9.0-3.0-1.9","23:46:32","3","","","","","","","<div>
            <img class='stim' src=""pictures/furniture/2.jpg""></div><div class=""button_prompt"">
                    <b>请用数字键0-9回答</b>
                    </div>","","","","","","","","","","","","","","","","","","",""
"1201","null","sub_response","html-keyboard-response","252","367100","0.0-1.0-9.0-3.0-2.9","23:46:32","3","","","","","","","<div style='text-align: center;'>
                            <span style=""color: red; font-size: 40px""><b>错误！+0 pts</b></span></div>
                            ","","learn","2","2","2","learn","9","9","[0, 1, 2, 3, 4, 5, 6, 7, 8, 9]","9","3","setsize","3S10A","furniture","2","0","2","0",""
"null","null","fixation","html-keyboard-response","253","367601","0.0-1.0-9.0-3.0-0.10","23:46:32","3","","","","","","","fixation","","","","","","","","","","","","","","","","","","",""
"1576","2","pic_response","html-keyboard-response","254","369177","0.0-1.0-9.0-3.0-1.10","23:46:32","3","","","","","","","<div>
            <img class='stim' src=""pictures/furniture/1.jpg""></div><div class=""button_prompt"">
                    <b>请用数字键0-9回答</b>
                    </div>","","","","","","","","","","","","","","","","","","",""
"1576","null","sub_response","html-keyboard-response","255","370179","0.0-1.0-9.0-3.0-2.10","23:46:32","3","","","","","","","<div style='text-align: center;'>
                            <span style=""color: red; font-size: 40px""><b>错误！+0 pts</b></span></div>
                            ","","learn","1","1","1","learn","6","6","[0, 1, 2, 3, 4, 5, 6, 7, 8, 9]","10","3","setsize","3S10A","furniture","2","0","1","0",""
"null","null","fixation","html-keyboard-response","256","370681","0.0-1.0-9.0-3.0-0.11","23:46:32","3","","","","","","","fixation","","","","","","","","","","","","","","","","","","",""
"1017","1","pic_response","html-keyboard-response","257","371699","0.0-1.0-9.0-3.0-1.11","23:46:32","3","","","","","","","<div>
            <img class='stim' src=""pictures/furniture/0.jpg""></div><div class=""button_prompt"">
                    <b>请用数字键0-9回答</b>
                    </div>","","","","","","","","","","","","","","","","","","",""
"1017","null","sub_response","html-keyboard-response","258","372701","0.0-1.0-9.0-3.0-2.11","23:46:32","3","","","","","","","<div style='text-align: center;'>
                            <span style=""color: red; font-size: 40px""><b>错误！+0 pts</b></span></div>
                            ","","learn","0","0","0","learn","2","2","[0, 1, 2, 3, 4, 5, 6, 7, 8, 9]","11","3","setsize","3S10A","furniture","2","0","0","0",""
"null","null","fixation","html-keyboard-response","259","373203","0.0-1.0-9.0-3.0-0.12","23:46:32","3","","","","","","","fixation","","","","","","","","","","","","","","","","","","",""
"1293","1","pic_response","html-keyboard-response","260","374496","0.0-1.0-9.0-3.0-1.12","23:46:32","3","","","","","","","<div>
            <img class='stim' src=""pictures/furniture/2.jpg""></div><div class=""button_prompt"">
                    <b>请用数字键0-9回答</b>
                    </div>","","","","","","","","","","","","","","","","","","",""
"1293","null","sub_response","html-keyboard-response","261","375497","0.0-1.0-9.0-3.0-2.12","23:46:32","3","","","","","","","<div style='text-align: center;'>
                            <span style=""color: red; font-size: 40px""><b>错误！+0 pts</b></span></div>
                            ","","learn","2","2","2","learn","9","9","[0, 1, 2, 3, 4, 5, 6, 7, 8, 9]","12","4","setsize","3S10A","furniture","2","0","0","0",""
"null","null","fixation","html-keyboard-response","262","375999","0.0-1.0-9.0-3.0-0.13","23:46:32","3","","","","","","","fixation","","","","","","","","","","","","","","","","","","",""
"2337","5","pic_response","html-keyboard-response","263","378336","0.0-1.0-9.0-3.0-1.13","23:46:32","3","","","","","","","<div>
            <img class='stim' src=""pictures/furniture/1.jpg""></div><div class=""button_prompt"">
                    <b>请用数字键0-9回答</b>
                    </div>","","","","","","","","","","","","","","","","","","",""
"2337","null","sub_response","html-keyboard-response","264","379337","0.0-1.0-9.0-3.0-2.13","23:46:32","3","","","","","","","<div style='text-align: center;'>
                            <span style=""color: red; font-size: 40px""><b>错误！+0 pts</b></span></div>
                            ","","learn","1","1","1","learn","6","6","[0, 1, 2, 3, 4, 5, 6, 7, 8, 9]","13","4","setsize","3S10A","furniture","2","0","4","0",""
"null","null","fixation","html-keyboard-response","265","379839","0.0-1.0-9.0-3.0-0.14","23:46:32","3","","","","","","","fixation","","","","","","","","","","","","","","","","","","",""
"1216","7","pic_response","html-keyboard-response","266","381055","0.0-1.0-9.0-3.0-1.14","23:46:32","3","","","","","","","<div>
            <img class='stim' src=""pictures/furniture/0.jpg""></div><div class=""button_prompt"">
                    <b>请用数字键0-9回答</b>
                    </div>","","","","","","","","","","","","","","","","","","",""
"1216","null","sub_response","html-keyboard-response","267","382057","0.0-1.0-9.0-3.0-2.14","23:46:32","3","","","","","","","<div style='text-align: center;'>
                            <span style=""color: red; font-size: 40px""><b>错误！+0 pts</b></span></div>
                            ","","learn","0","0","0","learn","2","2","[0, 1, 2, 3, 4, 5, 6, 7, 8, 9]","14","4","setsize","3S10A","furniture","2","0","6","0",""
"null","null","fixation","html-keyboard-response","268","382558","0.0-1.0-9.0-3.0-0.15","23:46:32","3","","","","","","","fixation","","","","","","","","","","","","","","","","","","",""
"759","6","pic_response","html-keyboard-response","269","383318","0.0-1.0-9.0-3.0-1.15","23:46:32","3","","","","","","","<div>
            <img class='stim' src=""pictures/furniture/2.jpg""></div><div class=""button_prompt"">
                    <b>请用数字键0-9回答</b>
                    </div>","","","","","","","","","","","","","","","","","","",""
"759","null","sub_response","html-keyboard-response","270","384319","0.0-1.0-9.0-3.0-2.15","23:46:32","3","","","","","","","<div style='text-align: center;'>
                            <span style=""color: red; font-size: 40px""><b>错误！+0 pts</b></span></div>
                            ","","learn","2","2","2","learn","9","9","[0, 1, 2, 3, 4, 5, 6, 7, 8, 9]","15","5","setsize","3S10A","furniture","2","0","5","0",""
"null","null","fixation","html-keyboard-response","271","384820","0.0-1.0-9.0-3.0-0.16","23:46:32","3","","","","","","","fixation","","","","","","","","","","","","","","","","","","",""
"1203","1","pic_response","html-keyboard-response","272","386024","0.0-1.0-9.0-3.0-1.16","23:46:32","3","","","","","","","<div>
            <img class='stim' src=""pictures/furniture/0.jpg""></div><div class=""button_prompt"">
                    <b>请用数字键0-9回答</b>
                    </div>","","","","","","","","","","","","","","","","","","",""
"1203","null","sub_response","html-keyboard-response","273","387025","0.0-1.0-9.0-3.0-2.16","23:46:32","3","","","","","","","<div style='text-align: center;'>
                            <span style=""color: red; font-size: 40px""><b>错误！+0 pts</b></span></div>
                            ","","learn","0","0","0","learn","2","2","[0, 1, 2, 3, 4, 5, 6, 7, 8, 9]","16","5","setsize","3S10A","furniture","2","0","0","0",""
"null","null","fixation","html-keyboard-response","274","387526","0.0-1.0-9.0-3.0-0.17","23:46:32","3","","","","","","","fixation","","","","","","","","","","","","","","","","","","",""
"672","4","pic_response","html-keyboard-response","275","388198","0.0-1.0-9.0-3.0-1.17","23:46:32","3","","","","","","","<div>
            <img class='stim' src=""pictures/furniture/1.jpg""></div><div class=""button_prompt"">
                    <b>请用数字键0-9回答</b>
                    </div>","","","","","","","","","","","","","","","","","","",""
"672","null","sub_response","html-keyboard-response","276","389199","0.0-1.0-9.0-3.0-2.17","23:46:32","3","","","","","","","<div style='text-align: center;'>
                            <span style=""color: red; font-size: 40px""><b>错误！+0 pts</b></span></div>
                            ","","learn","1","1","1","learn","6","6","[0, 1, 2, 3, 4, 5, 6, 7, 8, 9]","17","5","setsize","3S10A","furniture","2","0","3","0",""
"null","null","fixation","html-keyboard-response","277","389700","0.0-1.0-9.0-3.0-0.18","23:46:32","3","","","","","","","fixation","","","","","","","","","","","","","","","","","","",""
"1118","4","pic_response","html-keyboard-response","278","390818","0.0-1.0-9.0-3.0-1.18","23:46:32","3","","","","","","","<div>
            <img class='stim' src=""pictures/furniture/2.jpg""></div><div class=""button_prompt"">
                    <b>请用数字键0-9回答</b>
                    </div>","","","","","","","","","","","","","","","","","","",""
"1118","null","sub_response","html-keyboard-response","279","391820","0.0-1.0-9.0-3.0-2.18","23:46:32","3","","","","","","","<div style='text-align: center;'>
                            <span style=""color: red; font-size: 40px""><b>错误！+0 pts</b></span></div>
                            ","","learn","2","2","2","learn","9","9","[0, 1, 2, 3, 4, 5, 6, 7, 8, 9]","18","6","setsize","3S10A","furniture","2","0","3","0",""
"null","null","fixation","html-keyboard-response","280","392321","0.0-1.0-9.0-3.0-0.19","23:46:32","3","","","","","","","fixation","","","","","","","","","","","","","","","","","","",""
"481","4","pic_response","html-keyboard-response","281","392803","0.0-1.0-9.0-3.0-1.19","23:46:32","3","","","","","","","<div>
            <img class='stim' src=""pictures/furniture/0.jpg""></div><div class=""button_prompt"">
                    <b>请用数字键0-9回答</b>
                    </div>","","","","","","","","","","","","","","","","","","",""
"481","null","sub_response","html-keyboard-response","282","393805","0.0-1.0-9.0-3.0-2.19","23:46:32","3","","","","","","","<div style='text-align: center;'>
                            <span style=""color: red; font-size: 40px""><b>错误！+0 pts</b></span></div>
                            ","","learn","0","0","0","learn","2","2","[0, 1, 2, 3, 4, 5, 6, 7, 8, 9]","19","6","setsize","3S10A","furniture","2","0","3","0",""
"null","null","fixation","html-keyboard-response","283","394306","0.0-1.0-9.0-3.0-0.20","23:46:32","3","","","","","","","fixation","","","","","","","","","","","","","","","","","","",""
"359","5","pic_response","html-keyboard-response","284","394665","0.0-1.0-9.0-3.0-1.20","23:46:32","3","","","","","","","<div>
            <img class='stim' src=""pictures/furniture/1.jpg""></div><div class=""button_prompt"">
                    <b>请用数字键0-9回答</b>
                    </div>","","","","","","","","","","","","","","","","","","",""
"359","null","sub_response","html-keyboard-response","285","395668","0.0-1.0-9.0-3.0-2.20","23:46:32","3","","","","","","","<div style='text-align: center;'>
                            <span style=""color: red; font-size: 40px""><b>错误！+0 pts</b></span></div>
                            ","","learn","1","1","1","learn","6","6","[0, 1, 2, 3, 4, 5, 6, 7, 8, 9]","20","6","setsize","3S10A","furniture","2","0","4","0",""
"null","null","fixation","html-keyboard-response","286","396170","0.0-1.0-9.0-3.0-0.21","23:46:32","3","","","","","","","fixation","","","","","","","","","","","","","","","","","","",""
"618","6","pic_response","html-keyboard-response","287","396788","0.0-1.0-9.0-3.0-1.21","23:46:32","3","","","","","","","<div>
            <img class='stim' src=""pictures/furniture/0.jpg""></div><div class=""button_prompt"">
                    <b>请用数字键0-9回答</b>
                    </div>","","","","","","","","","","","","","","","","","","",""
"618","null","sub_response","html-keyboard-response","288","397790","0.0-1.0-9.0-3.0-2.21","23:46:32","3","","","","","","","<div style='text-align: center;'>
                            <span style=""color: red; font-size: 40px""><b>错误！+0 pts</b></span></div>
                            ","","learn","0","0","0","learn","2","2","[0, 1, 2, 3, 4, 5, 6, 7, 8, 9]","21","7","setsize","3S10A","furniture","2","0","5","0",""
"null","null","fixation","html-keyboard-response","289","398292","0.0-1.0-9.0-3.0-0.22","23:46:32","3","","","","","","","fixation","","","","","","","","","","","","","","","","","","",""
"1122","6","pic_response","html-keyboard-response","290","399414","0.0-1.0-9.0-3.0-1.22","23:46:32","3","","","","","","","<div>
            <img class='stim' src=""pictures/furniture/1.jpg""></div><div class=""button_prompt"">
                    <b>请用数字键0-9回答</b>
                    </div>","","","","","","","","","","","","","","","","","","",""
"1122","null","sub_response","html-keyboard-response","291","400415","0.0-1.0-9.0-3.0-2.22","23:46:32","3","","","","","","","<div style='text-align: center;'>
                            <span style=""color: red; font-size: 40px""><b>错误！+0 pts</b></span></div>
                            ","","learn","1","1","1","learn","6","6","[0, 1, 2, 3, 4, 5, 6, 7, 8, 9]","22","7","setsize","3S10A","furniture","2","0","5","0",""
"null","null","fixation","html-keyboard-response","292","400916","0.0-1.0-9.0-3.0-0.23","23:46:32","3","","","","","","","fixation","","","","","","","","","","","","","","","","","","",""
"1377","8","pic_response","html-keyboard-response","293","402294","0.0-1.0-9.0-3.0-1.23","23:46:32","3","","","","","","","<div>
            <img class='stim' src=""pictures/furniture/2.jpg""></div><div class=""button_prompt"">
                    <b>请用数字键0-9回答</b>
                    </div>","","","","","","","","","","","","","","","","","","",""
"1377","null","sub_response","html-keyboard-response","294","403295","0.0-1.0-9.0-3.0-2.23","23:46:32","3","","","","","","","<div style='text-align: center;'>
                            <span style=""color: red; font-size: 40px""><b>错误！+0 pts</b></span></div>
                            ","","learn","2","2","2","learn","9","9","[0, 1, 2, 3, 4, 5, 6, 7, 8, 9]","23","7","setsize","3S10A","furniture","2","0","7","0",""
"null","null","fixation","html-keyboard-response","295","403797","0.0-1.0-9.0-3.0-0.24","23:46:32","3","","","","","","","fixation","","","","","","","","","","","","","","","","","","",""
"590","7","pic_response","html-keyboard-response","296","404388","0.0-1.0-9.0-3.0-1.24","23:46:32","3","","","","","","","<div>
            <img class='stim' src=""pictures/furniture/0.jpg""></div><div class=""button_prompt"">
                    <b>请用数字键0-9回答</b>
                    </div>","","","","","","","","","","","","","","","","","","",""
"590","null","sub_response","html-keyboard-response","297","405389","0.0-1.0-9.0-3.0-2.24","23:46:32","3","","","","","","","<div style='text-align: center;'>
                            <span style=""color: red; font-size: 40px""><b>错误！+0 pts</b></span></div>
                            ","","learn","0","0","0","learn","2","2","[0, 1, 2, 3, 4, 5, 6, 7, 8, 9]","24","8","setsize","3S10A","furniture","2","0","6","0",""
"null","null","fixation","html-keyboard-response","298","405891","0.0-1.0-9.0-3.0-0.25","23:46:32","3","","","","","","","fixation","","","","","","","","","","","","","","","","","","",""
"948","9","pic_response","html-keyboard-response","299","406839","0.0-1.0-9.0-3.0-1.25","23:46:32","3","","","","","","","<div>
            <img class='stim' src=""pictures/furniture/2.jpg""></div><div class=""button_prompt"">
                    <b>请用数字键0-9回答</b>
                    </div>","","","","","","","","","","","","","","","","","","",""
"948","null","sub_response","html-keyboard-response","300","407840","0.0-1.0-9.0-3.0-2.25","23:46:32","3","","","","","","","<div style='text-align: center;'>
                            <span style=""color: red; font-size: 40px""><b>错误！+0 pts</b></span></div>
                            ","","learn","2","2","2","learn","9","9","[0, 1, 2, 3, 4, 5, 6, 7, 8, 9]","25","8","setsize","3S10A","furniture","2","0","8","0",""
"null","null","fixation","html-keyboard-response","301","408342","0.0-1.0-9.0-3.0-0.26","23:46:32","3","","","","","","","fixation","","","","","","","","","","","","","","","","","","",""
"618","8","pic_response","html-keyboard-response","302","408960","0.0-1.0-9.0-3.0-1.26","23:46:32","3","","","","","","","<div>
            <img class='stim' src=""pictures/furniture/1.jpg""></div><div class=""button_prompt"">
                    <b>请用数字键0-9回答</b>
                    </div>","","","","","","","","","","","","","","","","","","",""
"618","null","sub_response","html-keyboard-response","303","409962","0.0-1.0-9.0-3.0-2.26","23:46:32","3","","","","","","","<div style='text-align: center;'>
                            <span style=""color: red; font-size: 40px""><b>错误！+0 pts</b></span></div>
                            ","","learn","1","1","1","learn","6","6","[0, 1, 2, 3, 4, 5, 6, 7, 8, 9]","26","8","setsize","3S10A","furniture","2","0","7","0",""
"null","null","fixation","html-keyboard-response","304","410464","0.0-1.0-9.0-3.0-0.27","23:46:32","3","","","","","","","fixation","","","","","","","","","","","","","","","","","","",""
"579","7","pic_response","html-keyboard-response","305","411043","0.0-1.0-9.0-3.0-1.27","23:46:32","3","","","","","","","<div>
            <img class='stim' src=""pictures/furniture/1.jpg""></div><div class=""button_prompt"">
                    <b>请用数字键0-9回答</b>
                    </div>","","","","","","","","","","","","","","","","","","",""
"579","null","sub_response","html-keyboard-response","306","412044","0.0-1.0-9.0-3.0-2.27","23:46:32","3","","","","","","","<div style='text-align: center;'>
                            <span style=""color: green; font-size: 40px""><b>正确！+1 pts</b></span></div>
                            ","","learn","1","1","1","learn","6","6","[0, 1, 2, 3, 4, 5, 6, 7, 8, 9]","27","9","setsize","3S10A","furniture","2","1","6","1",""
"null","null","fixation","html-keyboard-response","307","412545","0.0-1.0-9.0-3.0-0.28","23:46:32","3","","","","","","","fixation","","","","","","","","","","","","","","","","","","",""
"1225","6","pic_response","html-keyboard-response","308","413771","0.0-1.0-9.0-3.0-1.28","23:46:32","3","","","","","","","<div>
            <img class='stim' src=""pictures/furniture/2.jpg""></div><div class=""button_prompt"">
                    <b>请用数字键0-9回答</b>
                    </div>","","","","","","","","","","","","","","","","","","",""
"1225","null","sub_response","html-keyboard-response","309","414772","0.0-1.0-9.0-3.0-2.28","23:46:32","3","","","","","","","<div style='text-align: center;'>
                            <span style=""color: red; font-size: 40px""><b>错误！+0 pts</b></span></div>
                            ","","learn","2","2","2","learn","9","9","[0, 1, 2, 3, 4, 5, 6, 7, 8, 9]","28","9","setsize","3S10A","furniture","2","0","5","0",""
"null","null","fixation","html-keyboard-response","310","415274","0.0-1.0-9.0-3.0-0.29","23:46:32","3","","","","","","","fixation","","","","","","","","","","","","","","","","","","",""
"737","5","pic_response","html-keyboard-response","311","416011","0.0-1.0-9.0-3.0-1.29","23:46:32","3","","","","","","","<div>
            <img class='stim' src=""pictures/furniture/0.jpg""></div><div class=""button_prompt"">
                    <b>请用数字键0-9回答</b>
                    </div>","","","","","","","","","","","","","","","","","","",""
"737","null","sub_response","html-keyboard-response","312","417011","0.0-1.0-9.0-3.0-2.29","23:46:32","3","","","","","","","<div style='text-align: center;'>
                            <span style=""color: red; font-size: 40px""><b>错误！+0 pts</b></span></div>
                            ","","learn","0","0","0","learn","2","2","[0, 1, 2, 3, 4, 5, 6, 7, 8, 9]","29","9","setsize","3S10A","furniture","2","0","4","0",""
"null","null","fixation","html-keyboard-response","313","417512","0.0-1.0-9.0-3.0-0.30","23:46:32","3","","","","","","","fixation","","","","","","","","","","","","","","","","","","",""
"808","8","pic_response","html-keyboard-response","314","418320","0.0-1.0-9.0-3.0-1.30","23:46:32","3","","","","","","","<div>
            <img class='stim' src=""pictures/furniture/0.jpg""></div><div class=""button_prompt"">
                    <b>请用数字键0-9回答</b>
                    </div>","","","","","","","","","","","","","","","","","","",""
"808","null","sub_response","html-keyboard-response","315","419322","0.0-1.0-9.0-3.0-2.30","23:46:32","3","","","","","","","<div style='text-align: center;'>
                            <span style=""color: red; font-size: 40px""><b>错误！+0 pts</b></span></div>
                            ","","learn","0","0","0","learn","2","2","[0, 1, 2, 3, 4, 5, 6, 7, 8, 9]","30","10","setsize","3S10A","furniture","2","0","7","0",""
"null","null","fixation","html-keyboard-response","316","419838","0.0-1.0-9.0-3.0-0.31","23:46:32","3","","","","","","","fixation","","","","","","","","","","","","","","","","","","",""
"1484","6","pic_response","html-keyboard-response","317","421323","0.0-1.0-9.0-3.0-1.31","23:46:32","3","","","","","","","<div>
            <img class='stim' src=""pictures/furniture/2.jpg""></div><div class=""button_prompt"">
                    <b>请用数字键0-9回答</b>
                    </div>","","","","","","","","","","","","","","","","","","",""
"1484","null","sub_response","html-keyboard-response","318","422325","0.0-1.0-9.0-3.0-2.31","23:46:32","3","","","","","","","<div style='text-align: center;'>
                            <span style=""color: red; font-size: 40px""><b>错误！+0 pts</b></span></div>
                            ","","learn","2","2","2","learn","9","9","[0, 1, 2, 3, 4, 5, 6, 7, 8, 9]","31","10","setsize","3S10A","furniture","2","0","5","0",""
"null","null","fixation","html-keyboard-response","319","422826","0.0-1.0-9.0-3.0-0.32","23:46:32","3","","","","","","","fixation","","","","","","","","","","","","","","","","","","",""
"384","7","pic_response","html-keyboard-response","320","423211","0.0-1.0-9.0-3.0-1.32","23:46:32","3","","","","","","","<div>
            <img class='stim' src=""pictures/furniture/1.jpg""></div><div class=""button_prompt"">
