"rt","response","screen_id","trial_type","trial_index","time_elapsed","internal_node_id","start_time","n_Prac","success","timeout","failed_images","failed_audio","failed_video","view_history","stimulus","question_order","stage","s","word","word_id","phase","a_cor","a_real","a_ava","trial","tps","task_type","block_typ","pic_typ","block_id","cum_r","a","r","plugin_name"
"46990","{""sub_id"":""2000"",""task_type"":""task1"",""name"":""吴默默"",""gender"":""女""}","basic_info","survey-html-form","0","46994","0.0-0.0","10:12:02","2","","","","","","","","","","","","","","","","","","","","","","","","","",""
"","","","preload","1","47626","0.0-1.0-0.0","10:12:02","2","true","false","[]","[]","[]","","","","","","","","","","","","","","","","","","","","",""
"","","","preload","2","47768","0.0-1.0-1.0","10:12:02","2","true","false","[]","[]","[]","","","","","","","","","","","","","","","","","","","","",""
"","","","fullscreen","3","50589","0.0-1.0-2.0","10:12:02","2","true","","","","","","","","","","","","","","","","","","","","","","","","",""
"28999","","instruct","instructions","4","79590","0.0-1.0-3.0-0.0","10:12:02","2","","","","","","[{""page_index"":0,""viewing_time"":9323},{""page_index"":1,""viewing_time"":5853},{""page_index"":2,""viewing_time"":13821}]","","","","","","","","","","","","","","","","","","","",""
"67797","{""Q0"":"""",""task1"":""<span style='font-size: 24px'>学习图片和数字的对应关系</span>"",""task2"":""<span style='font-size: 24px'> 数字键1-3 </span>"",""task3"":""<span style='font-size: 24px'> 看到图片选出正确对应的数字 </span>""}","question","survey-multi-choice","5","147396","0.0-1.0-3.0-1.0","10:12:02","2","","","","","","","","[0,1,2,3]","","","","","","","","","","","","","","","","","",""
"3121"," ","inst_q","html-keyboard-response","6","150520","0.0-1.0-3.0-2.0","10:12:02","2","","","","","","","inst","","1","","","","","","","","","","","","","","","","",""
"9505","","instruct","instructions","7","160025","0.0-1.0-3.1-0.1","10:12:02","2","","","","","","[{""page_index"":0,""viewing_time"":2733},{""page_index"":1,""viewing_time"":3818},{""page_index"":2,""viewing_time"":2953}]","","","","","","","","","","","","","","","","","","","",""
"21225","{""Q0"":"""",""task1"":""<span style='font-size: 24px'>学习图片和数字的对应关系</span>"",""task2"":""<span style='font-size: 24px'> 图片下方标注为可用的数字键（数字键1-3或0-9） </span>"",""task3"":""<span style='font-size: 24px'> 看到图片选出正确对应的数字 </span>""}","question","survey-multi-choice","8","181251","0.0-1.0-3.1-1.1","10:12:02","2","","","","","","","","[0,1,2,3]","","","","","","","","","","","","","","","","","",""
"6104"," ","inst_q","html-keyboard-response","9","187356","0.0-1.0-3.1-2.1","10:12:02","2","","","","","","","inst","","1","","","","","","","","","","","","","","","","",""
"","","","preload","10","187432","0.0-1.0-4.0-0.0","10:12:02","2","true","false","[]","[]","[]","","","","","","","","","","","","","","","","","","","","",""
"3998"," ","","html-keyboard-response","11","191431","0.0-1.0-4.0-1.0","10:12:02","2","","","","","","","<div style='font-size: 32px; text-align: center;'
                    <p>请学习图片和数字之间的对应关系</p>
                    <p>我们将<span style='color: blue'><b> 告诉 </b></span>您选择的对错。请根据反馈学习。</p>
                    <p>请按""空格""继续实验。</p></div>","","","","","","","","","","","","","","","","","","",""
"8320"," ","inst","html-keyboard-response","12","199752","0.0-1.0-4.0-2.0","10:12:02","2","","","","","","","<img class='instruct_stim' src=""instruction/prac3.PNG""></div>","","","","","","","","","","","","","","","","","","",""
"null","null","fixation","html-keyboard-response","13","200257","0.0-1.0-4.0-3.0-0.0","10:12:02","2","","","","","","","fixation","","","","","","","","","","","","","","","","","","",""
"1525","1","pic_response","html-keyboard-response","14","201785","0.0-1.0-4.0-3.0-1.0","10:12:02","2","","","","","","","<div>
            <img class='stim' src=""pictures/prac/0.jpg""></div><div class=""button_prompt"">
                        <b>请用数字键1-3回答</b>
                        </div>","","","","","","","","","","","","","","","","","","",""
"1525","null","sub_response","html-keyboard-response","15","202794","0.0-1.0-4.0-3.0-2.0","10:12:02","2","","","","","","","<div style='text-align: center;'>
                            <span style=""color: green; font-size: 40px""><b>正确！+1 pts</b></span></div>
                            ","","learn","0","0","0","learn","0","0","[0, 1, 2]","0","0","setsize","99","prac","0","1","0","1",""
"null","null","fixation","html-keyboard-response","16","203302","0.0-1.0-4.0-3.0-0.1","10:12:02","2","","","","","","","fixation","","","","","","","","","","","","","","","","","","",""
"1203","2","pic_response","html-keyboard-response","17","204506","0.0-1.0-4.0-3.0-1.1","10:12:02","2","","","","","","","<div>
            <img class='stim' src=""pictures/prac/1.jpg""></div><div class=""button_prompt"">
                        <b>请用数字键1-3回答</b>
                        </div>","","","","","","","","","","","","","","","","","","",""
"1203","null","sub_response","html-keyboard-response","18","205516","0.0-1.0-4.0-3.0-2.1","10:12:02","2","","","","","","","<div style='text-align: center;'>
                            <span style=""color: red; font-size: 40px""><b>错误！+0 pts</b></span></div>
                            ","","learn","1","1","1","learn","0","0","[0, 1, 2]","1","0","setsize","99","prac","0","0","1","0",""
"null","null","fixation","html-keyboard-response","19","206026","0.0-1.0-4.0-3.0-0.2","10:12:02","2","","","","","","","fixation","","","","","","","","","","","","","","","","","","",""
"1465","2","pic_response","html-keyboard-response","20","207491","0.0-1.0-4.0-3.0-1.2","10:12:02","2","","","","","","","<div>
            <img class='stim' src=""pictures/prac/2.jpg""></div><div class=""button_prompt"">
                        <b>请用数字键1-3回答</b>
                        </div>","","","","","","","","","","","","","","","","","","",""
"1465","null","sub_response","html-keyboard-response","21","208508","0.0-1.0-4.0-3.0-2.2","10:12:02","2","","","","","","","<div style='text-align: center;'>
                            <span style=""color: red; font-size: 40px""><b>错误！+0 pts</b></span></div>
                            ","","learn","2","2","2","learn","2","2","[0, 1, 2]","2","0","setsize","99","prac","0","0","1","0",""
"null","null","fixation","html-keyboard-response","22","209017","0.0-1.0-4.0-3.0-0.3","10:12:02","2","","","","","","","fixation","","","","","","","","","","","","","","","","","","",""
"1100","1","pic_response","html-keyboard-response","23","210118","0.0-1.0-4.0-3.0-1.3","10:12:02","2","","","","","","","<div>
            <img class='stim' src=""pictures/prac/1.jpg""></div><div class=""button_prompt"">
                        <b>请用数字键1-3回答</b>
                        </div>","","","","","","","","","","","","","","","","","","",""
"1100","null","sub_response","html-keyboard-response","24","211133","0.0-1.0-4.0-3.0-2.3","10:12:02","2","","","","","","","<div style='text-align: center;'>
                            <span style=""color: green; font-size: 40px""><b>正确！+1 pts</b></span></div>
                            ","","learn","1","1","1","learn","0","0","[0, 1, 2]","3","1","setsize","99","prac","0","1","0","1",""
"null","null","fixation","html-keyboard-response","25","211642","0.0-1.0-4.0-3.0-0.4","10:12:02","2","","","","","","","fixation","","","","","","","","","","","","","","","","","","",""
"772","1","pic_response","html-keyboard-response","26","212415","0.0-1.0-4.0-3.0-1.4","10:12:02","2","","","","","","","<div>
            <img class='stim' src=""pictures/prac/0.jpg""></div><div class=""button_prompt"">
                        <b>请用数字键1-3回答</b>
                        </div>","","","","","","","","","","","","","","","","","","",""
"772","null","sub_response","html-keyboard-response","27","213424","0.0-1.0-4.0-3.0-2.4","10:12:02","2","","","","","","","<div style='text-align: center;'>
                            <span style=""color: green; font-size: 40px""><b>正确！+1 pts</b></span></div>
                            ","","learn","0","0","0","learn","0","0","[0, 1, 2]","4","1","setsize","99","prac","0","2","0","1",""
"null","null","fixation","html-keyboard-response","28","213936","0.0-1.0-4.0-3.0-0.5","10:12:02","2","","","","","","","fixation","","","","","","","","","","","","","","","","","","",""
"595","1","pic_response","html-keyboard-response","29","214532","0.0-1.0-4.0-3.0-1.5","10:12:02","2","","","","","","","<div>
            <img class='stim' src=""pictures/prac/2.jpg""></div><div class=""button_prompt"">
                        <b>请用数字键1-3回答</b>
                        </div>","","","","","","","","","","","","","","","","","","",""
"595","null","sub_response","html-keyboard-response","30","215539","0.0-1.0-4.0-3.0-2.5","10:12:02","2","","","","","","","<div style='text-align: center;'>
                            <span style=""color: red; font-size: 40px""><b>错误！+0 pts</b></span></div>
                            ","","learn","2","2","2","learn","2","2","[0, 1, 2]","5","1","setsize","99","prac","0","0","0","0",""
"","","","preload","31","215542","0.0-1.0-4.1-0.1","10:12:02","2","true","false","[]","[]","[]","","","","","","","","","","","","","","","","","","","","",""
"3097"," ","","html-keyboard-response","32","218639","0.0-1.0-4.1-1.1","10:12:02","2","","","","","","","<div style='font-size: 32px; text-align: center;'
                    <p>请学习图片和数字之间的对应关系</p>
                    <p>我们将<span style='color: blue'><b> 告诉 </b></span>您选择的对错。请根据反馈学习。</p>
                    <p>请按""空格""继续实验。</p></div>","","","","","","","","","","","","","","","","","","",""
"2221"," ","inst","html-keyboard-response","33","220860","0.0-1.0-4.1-2.1","10:12:02","2","","","","","","","<img class='instruct_stim' src=""instruction/prac3.PNG""></div>","","","","","","","","","","","","","","","","","","",""
"null","null","fixation","html-keyboard-response","34","221376","0.0-1.0-4.1-3.1-0.6","10:12:02","2","","","","","","","fixation","","","","","","","","","","","","","","","","","","",""
"922","1","pic_response","html-keyboard-response","35","222299","0.0-1.0-4.1-3.1-1.6","10:12:02","2","","","","","","","<div>
            <img class='stim' src=""pictures/prac/0.jpg""></div><div class=""button_prompt"">
                        <b>请用数字键1-3回答</b>
                        </div>","","","","","","","","","","","","","","","","","","",""
"922","null","sub_response","html-keyboard-response","36","223302","0.0-1.0-4.1-3.1-2.6","10:12:02","2","","","","","","","<div style='text-align: center;'>
                            <span style=""color: green; font-size: 40px""><b>正确！+1 pts</b></span></div>
                            ","","learn","0","0","0","learn","0","0","[0, 1, 2]","0","0","setsize","99","prac","0","1","0","1",""
"null","null","fixation","html-keyboard-response","37","223811","0.0-1.0-4.1-3.1-0.7","10:12:02","2","","","","","","","fixation","","","","","","","","","","","","","","","","","","",""
"652","1","pic_response","html-keyboard-response","38","224464","0.0-1.0-4.1-3.1-1.7","10:12:02","2","","","","","","","<div>
            <img class='stim' src=""pictures/prac/1.jpg""></div><div class=""button_prompt"">
                        <b>请用数字键1-3回答</b>
                        </div>","","","","","","","","","","","","","","","","","","",""
"652","null","sub_response","html-keyboard-response","39","225479","0.0-1.0-4.1-3.1-2.7","10:12:02","2","","","","","","","<div style='text-align: center;'>
                            <span style=""color: green; font-size: 40px""><b>正确！+1 pts</b></span></div>
                            ","","learn","1","1","1","learn","0","0","[0, 1, 2]","1","0","setsize","99","prac","0","2","0","1",""
"null","null","fixation","html-keyboard-response","40","225983","0.0-1.0-4.1-3.1-0.8","10:12:02","2","","","","","","","fixation","","","","","","","","","","","","","","","","","","",""
"670","2","pic_response","html-keyboard-response","41","226654","0.0-1.0-4.1-3.1-1.8","10:12:02","2","","","","","","","<div>
            <img class='stim' src=""pictures/prac/2.jpg""></div><div class=""button_prompt"">
                        <b>请用数字键1-3回答</b>
                        </div>","","","","","","","","","","","","","","","","","","",""
"670","null","sub_response","html-keyboard-response","42","227655","0.0-1.0-4.1-3.1-2.8","10:12:02","2","","","","","","","<div style='text-align: center;'>
                            <span style=""color: red; font-size: 40px""><b>错误！+0 pts</b></span></div>
                            ","","learn","2","2","2","learn","2","2","[0, 1, 2]","2","0","setsize","99","prac","0","0","1","0",""
"null","null","fixation","html-keyboard-response","43","228162","0.0-1.0-4.1-3.1-0.9","10:12:02","2","","","","","","","fixation","","","","","","","","","","","","","","","","","","",""
"889","1","pic_response","html-keyboard-response","44","229052","0.0-1.0-4.1-3.1-1.9","10:12:02","2","","","","","","","<div>
            <img class='stim' src=""pictures/prac/1.jpg""></div><div class=""button_prompt"">
                        <b>请用数字键1-3回答</b>
                        </div>","","","","","","","","","","","","","","","","","","",""
"889","null","sub_response","html-keyboard-response","45","230058","0.0-1.0-4.1-3.1-2.9","10:12:02","2","","","","","","","<div style='text-align: center;'>
                            <span style=""color: green; font-size: 40px""><b>正确！+1 pts</b></span></div>
                            ","","learn","1","1","1","learn","0","0","[0, 1, 2]","3","1","setsize","99","prac","0","1","0","1",""
"null","null","fixation","html-keyboard-response","46","230560","0.0-1.0-4.1-3.1-0.10","10:12:02","2","","","","","","","fixation","","","","","","","","","","","","","","","","","","",""
"711","1","pic_response","html-keyboard-response","47","231273","0.0-1.0-4.1-3.1-1.10","10:12:02","2","","","","","","","<div>
            <img class='stim' src=""pictures/prac/0.jpg""></div><div class=""button_prompt"">
                        <b>请用数字键1-3回答</b>
                        </div>","","","","","","","","","","","","","","","","","","",""
"711","null","sub_response","html-keyboard-response","48","232275","0.0-1.0-4.1-3.1-2.10","10:12:02","2","","","","","","","<div style='text-align: center;'>
                            <span style=""color: green; font-size: 40px""><b>正确！+1 pts</b></span></div>
                            ","","learn","0","0","0","learn","0","0","[0, 1, 2]","4","1","setsize","99","prac","0","2","0","1",""
"null","null","fixation","html-keyboard-response","49","232777","0.0-1.0-4.1-3.1-0.11","10:12:02","2","","","","","","","fixation","","","","","","","","","","","","","","","","","","",""
"791","3","pic_response","html-keyboard-response","50","233569","0.0-1.0-4.1-3.1-1.11","10:12:02","2","","","","","","","<div>
            <img class='stim' src=""pictures/prac/2.jpg""></div><div class=""button_prompt"">
                        <b>请用数字键1-3回答</b>
                        </div>","","","","","","","","","","","","","","","","","","",""
"791","null","sub_response","html-keyboard-response","51","234575","0.0-1.0-4.1-3.1-2.11","10:12:02","2","","","","","","","<div style='text-align: center;'>
                            <span style=""color: green; font-size: 40px""><b>正确！+1 pts</b></span></div>
                            ","","learn","2","2","2","learn","2","2","[0, 1, 2]","5","1","setsize","99","prac","0","3","2","1",""
"6700"," ","","html-keyboard-response","52","241277","0.0-1.0-5.0","10:12:02","2","","","","","","","<div style=""font-size: 25px""><p>距下一个实验开始还有</p><div style=""font-size: 50px; color: blue""><p><span id=""clock"">1:00</span></div></p><p>按""空格""跳过休息</p></div>","","","","","","","","","","","","","","","","","","",""
"1150"," ","","html-keyboard-response","53","242428","0.0-1.0-6.0","10:12:02","2","","","","","","","<div style='font-size: 32px; text-align: center;'
                    <p>请按""空格""继续正式实验。</p></div>","","","","","","","","","","","","","","","","","","",""
"","","","preload","54","242684","0.0-1.0-7.0-0.0","10:12:02","2","true","false","[]","[]","[]","","","","","","","","","","","","","","","","","","","","",""
"1791"," ","","html-keyboard-response","55","244475","0.0-1.0-7.0-1.0","10:12:02","2","","","","","","","<div style='font-size: 32px; text-align: center;'
                    <p>请学习图片和数字之间的对应关系</p>
                    <p>我们将<span style='color: blue'><b> 告诉 </b></span>您选择的对错。请根据反馈学习。</p>
                    <p>请按""空格""继续实验。</p></div>","","","","","","","","","","","","","","","","","","",""
"5935"," ","inst","html-keyboard-response","56","250411","0.0-1.0-7.0-2.0","10:12:02","2","","","","","","","<img class='instruct_stim' src=""instruction/food10.PNG""></div>","","","","","","","","","","","","","","","","","","",""
"null","null","fixation","html-keyboard-response","57","250923","0.0-1.0-7.0-3.0-0.0","10:12:02","2","","","","","","","fixation","","","","","","","","","","","","","","","","","","",""
"2475","1","pic_response","html-keyboard-response","58","253399","0.0-1.0-7.0-3.0-1.0","10:12:02","2","","","","","","","<div>
            <img class='stim' src=""pictures/food/2.jpg""></div><div class=""button_prompt"">
                        <b>请用数字键1-3回答</b>
                        </div>","","","","","","","","","","","","","","","","","","",""
"2475","null","sub_response","html-keyboard-response","59","254403","0.0-1.0-7.0-3.0-2.0","10:12:02","2","","","","","","","<div style='text-align: center;'>
                            <span style=""color: green; font-size: 40px""><b>正确！+1 pts</b></span></div>
                            ","","learn","2","2","2","learn","0","0","[0, 1, 2]","0","0","setsize","10S3A","food","1","4","0","1",""
"null","null","fixation","html-keyboard-response","60","254906","0.0-1.0-7.0-3.0-0.1","10:12:02","2","","","","","","","fixation","","","","","","","","","","","","","","","","","","",""
"1177","1","pic_response","html-keyboard-response","61","256083","0.0-1.0-7.0-3.0-1.1","10:12:02","2","","","","","","","<div>
            <img class='stim' src=""pictures/food/9.jpg""></div><div class=""button_prompt"">
                        <b>请用数字键1-3回答</b>
                        </div>","","","","","","","","","","","","","","","","","","",""
"1177","null","sub_response","html-keyboard-response","62","257090","0.0-1.0-7.0-3.0-2.1","10:12:02","2","","","","","","","<div style='text-align: center;'>
                            <span style=""color: red; font-size: 40px""><b>错误！+0 pts</b></span></div>
                            ","","learn","9","9","9","learn","2","2","[0, 1, 2]","1","0","setsize","10S3A","food","1","0","0","0",""
"null","null","fixation","html-keyboard-response","63","257592","0.0-1.0-7.0-3.0-0.2","10:12:02","2","","","","","","","fixation","","","","","","","","","","","","","","","","","","",""
"1240","1","pic_response","html-keyboard-response","64","258833","0.0-1.0-7.0-3.0-1.2","10:12:02","2","","","","","","","<div>
            <img class='stim' src=""pictures/food/1.jpg""></div><div class=""button_prompt"">
                        <b>请用数字键1-3回答</b>
                        </div>","","","","","","","","","","","","","","","","","","",""
"1240","null","sub_response","html-keyboard-response","65","259840","0.0-1.0-7.0-3.0-2.2","10:12:02","2","","","","","","","<div style='text-align: center;'>
                            <span style=""color: green; font-size: 40px""><b>正确！+1 pts</b></span></div>
                            ","","learn","1","1","1","learn","0","0","[0, 1, 2]","2","0","setsize","10S3A","food","1","1","0","1",""
"null","null","fixation","html-keyboard-response","66","260342","0.0-1.0-7.0-3.0-0.3","10:12:02","2","","","","","","","fixation","","","","","","","","","","","","","","","","","","",""
"1039","2","pic_response","html-keyboard-response","67","261382","0.0-1.0-7.0-3.0-1.3","10:12:02","2","","","","","","","<div>
            <img class='stim' src=""pictures/food/0.jpg""></div><div class=""button_prompt"">
                        <b>请用数字键1-3回答</b>
                        </div>","","","","","","","","","","","","","","","","","","",""
"1039","null","sub_response","html-keyboard-response","68","262391","0.0-1.0-7.0-3.0-2.3","10:12:02","2","","","","","","","<div style='text-align: center;'>
                            <span style=""color: red; font-size: 40px""><b>错误！+0 pts</b></span></div>
                            ","","learn","0","0","0","learn","0","0","[0, 1, 2]","3","0","setsize","10S3A","food","1","0","1","0",""
"null","null","fixation","html-keyboard-response","69","262901","0.0-1.0-7.0-3.0-0.4","10:12:02","2","","","","","","","fixation","","","","","","","","","","","","","","","","","","",""
"779","2","pic_response","html-keyboard-response","70","263680","0.0-1.0-7.0-3.0-1.4","10:12:02","2","","","","","","","<div>
            <img class='stim' src=""pictures/food/8.jpg""></div><div class=""button_prompt"">
                        <b>请用数字键1-3回答</b>
                        </div>","","","","","","","","","","","","","","","","","","",""
"779","null","sub_response","html-keyboard-response","71","264685","0.0-1.0-7.0-3.0-2.4","10:12:02","2","","","","","","","<div style='text-align: center;'>
                            <span style=""color: red; font-size: 40px""><b>错误！+0 pts</b></span></div>
                            ","","learn","8","8","8","learn","2","2","[0, 1, 2]","4","0","setsize","10S3A","food","1","0","1","0",""
"null","null","fixation","html-keyboard-response","72","265194","0.0-1.0-7.0-3.0-0.5","10:12:02","2","","","","","","","fixation","","","","","","","","","","","","","","","","","","",""
"1078","2","pic_response","html-keyboard-response","73","266273","0.0-1.0-7.0-3.0-1.5","10:12:02","2","","","","","","","<div>
            <img class='stim' src=""pictures/food/3.jpg""></div><div class=""button_prompt"">
                        <b>请用数字键1-3回答</b>
                        </div>","","","","","","","","","","","","","","","","","","",""
"1078","null","sub_response","html-keyboard-response","74","267278","0.0-1.0-7.0-3.0-2.5","10:12:02","2","","","","","","","<div style='text-align: center;'>
                            <span style=""color: green; font-size: 40px""><b>正确！+1 pts</b></span></div>
                            ","","learn","3","3","3","learn","1","1","[0, 1, 2]","5","0","setsize","10S3A","food","1","1","1","1",""
"null","null","fixation","html-keyboard-response","75","267784","0.0-1.0-7.0-3.0-0.6","10:12:02","2","","","","","","","fixation","","","","","","","","","","","","","","","","","","",""
"1437","1","pic_response","html-keyboard-response","76","269221","0.0-1.0-7.0-3.0-1.6","10:12:02","2","","","","","","","<div>
            <img class='stim' src=""pictures/food/5.jpg""></div><div class=""button_prompt"">
                        <b>请用数字键1-3回答</b>
                        </div>","","","","","","","","","","","","","","","","","","",""
"1437","null","sub_response","html-keyboard-response","77","270230","0.0-1.0-7.0-3.0-2.6","10:12:02","2","","","","","","","<div style='text-align: center;'>
                            <span style=""color: red; font-size: 40px""><b>错误！+0 pts</b></span></div>
                            ","","learn","5","5","5","learn","1","1","[0, 1, 2]","6","0","setsize","10S3A","food","1","0","0","0",""
"null","null","fixation","html-keyboard-response","78","270732","0.0-1.0-7.0-3.0-0.7","10:12:02","2","","","","","","","fixation","","","","","","","","","","","","","","","","","","",""
"null","null","pic_response","html-keyboard-response","79","273737","0.0-1.0-7.0-3.0-1.7","10:12:02","2","","","","","","","<div>
            <img class='stim' src=""pictures/food/4.jpg""></div><div class=""button_prompt"">
                        <b>请用数字键1-3回答</b>
                        </div>","","","","","","","","","","","","","","","","","","",""
"null","null","sub_response","html-keyboard-response","80","274741","0.0-1.0-7.0-3.0-2.7","10:12:02","2","","","","","","","<div style='text-align: center;'>
                            <span style=""color: red; font-size: 40px""><b>错误！+0 pts</b></span></div>
                            ","","learn","4","4","4","learn","1","1","[0, 1, 2]","7","0","setsize","10S3A","food","1","0","999","0",""
"null","null","fixation","html-keyboard-response","81","275245","0.0-1.0-7.0-3.0-0.8","10:12:02","2","","","","","","","fixation","","","","","","","","","","","","","","","","","","",""
"811","1","pic_response","html-keyboard-response","82","276056","0.0-1.0-7.0-3.0-1.8","10:12:02","2","","","","","","","<div>
            <img class='stim' src=""pictures/food/6.jpg""></div><div class=""button_prompt"">
                        <b>请用数字键1-3回答</b>
                        </div>","","","","","","","","","","","","","","","","","","",""
"811","null","sub_response","html-keyboard-response","83","277064","0.0-1.0-7.0-3.0-2.8","10:12:02","2","","","","","","","<div style='text-align: center;'>
                            <span style=""color: red; font-size: 40px""><b>错误！+0 pts</b></span></div>
                            ","","learn","6","6","6","learn","2","2","[0, 1, 2]","8","0","setsize","10S3A","food","1","0","0","0",""
"null","null","fixation","html-keyboard-response","84","277575","0.0-1.0-7.0-3.0-0.9","10:12:02","2","","","","","","","fixation","","","","","","","","","","","","","","","","","","",""
"675","1","pic_response","html-keyboard-response","85","278250","0.0-1.0-7.0-3.0-1.9","10:12:02","2","","","","","","","<div>
            <img class='stim' src=""pictures/food/7.jpg""></div><div class=""button_prompt"">
                        <b>请用数字键1-3回答</b>
                        </div>","","","","","","","","","","","","","","","","","","",""
"675","null","sub_response","html-keyboard-response","86","279257","0.0-1.0-7.0-3.0-2.9","10:12:02","2","","","","","","","<div style='text-align: center;'>
                            <span style=""color: red; font-size: 40px""><b>错误！+0 pts</b></span></div>
                            ","","learn","7","7","7","learn","2","2","[0, 1, 2]","9","0","setsize","10S3A","food","1","0","0","0",""
"null","null","fixation","html-keyboard-response","87","279767","0.0-1.0-7.0-3.0-0.10","10:12:02","2","","","","","","","fixation","","","","","","","","","","","","","","","","","","",""
"1038","3","pic_response","html-keyboard-response","88","280806","0.0-1.0-7.0-3.0-1.10","10:12:02","2","","","","","","","<div>
            <img class='stim' src=""pictures/food/3.jpg""></div><div class=""button_prompt"">
                        <b>请用数字键1-3回答</b>
                        </div>","","","","","","","","","","","","","","","","","","",""
"1038","null","sub_response","html-keyboard-response","89","281812","0.0-1.0-7.0-3.0-2.10","10:12:02","2","","","","","","","<div style='text-align: center;'>
                            <span style=""color: red; font-size: 40px""><b>错误！+0 pts</b></span></div>
                            ","","learn","3","3","3","learn","1","1","[0, 1, 2]","10","1","setsize","10S3A","food","1","0","2","0",""
"null","null","fixation","html-keyboard-response","90","282320","0.0-1.0-7.0-3.0-0.11","10:12:02","2","","","","","","","fixation","","","","","","","","","","","","","","","","","","",""
"660","1","pic_response","html-keyboard-response","91","282981","0.0-1.0-7.0-3.0-1.11","10:12:02","2","","","","","","","<div>
            <img class='stim' src=""pictures/food/7.jpg""></div><div class=""button_prompt"">
                        <b>请用数字键1-3回答</b>
                        </div>","","","","","","","","","","","","","","","","","","",""
"660","null","sub_response","html-keyboard-response","92","283983","0.0-1.0-7.0-3.0-2.11","10:12:02","2","","","","","","","<div style='text-align: center;'>
                            <span style=""color: red; font-size: 40px""><b>错误！+0 pts</b></span></div>
                            ","","learn","7","7","7","learn","2","2","[0, 1, 2]","11","1","setsize","10S3A","food","1","0","0","0",""
"null","null","fixation","html-keyboard-response","93","284496","0.0-1.0-7.0-3.0-0.12","10:12:02","2","","","","","","","fixation","","","","","","","","","","","","","","","","","","",""
"560","1","pic_response","html-keyboard-response","94","285056","0.0-1.0-7.0-3.0-1.12","10:12:02","2","","","","","","","<div>
            <img class='stim' src=""pictures/food/1.jpg""></div><div class=""button_prompt"">
                        <b>请用数字键1-3回答</b>
                        </div>","","","","","","","","","","","","","","","","","","",""
"560","null","sub_response","html-keyboard-response","95","286060","0.0-1.0-7.0-3.0-2.12","10:12:02","2","","","","","","","<div style='text-align: center;'>
                            <span style=""color: green; font-size: 40px""><b>正确！+1 pts</b></span></div>
                            ","","learn","1","1","1","learn","0","0","[0, 1, 2]","12","1","setsize","10S3A","food","1","1","0","1",""
"null","null","fixation","html-keyboard-response","96","286568","0.0-1.0-7.0-3.0-0.13","10:12:02","2","","","","","","","fixation","","","","","","","","","","","","","","","","","","",""
"674","1","pic_response","html-keyboard-response","97","287243","0.0-1.0-7.0-3.0-1.13","10:12:02","2","","","","","","","<div>
            <img class='stim' src=""pictures/food/5.jpg""></div><div class=""button_prompt"">
                        <b>请用数字键1-3回答</b>
                        </div>","","","","","","","","","","","","","","","","","","",""
"674","null","sub_response","html-keyboard-response","98","288250","0.0-1.0-7.0-3.0-2.13","10:12:02","2","","","","","","","<div style='text-align: center;'>
                            <span style=""color: red; font-size: 40px""><b>错误！+0 pts</b></span></div>
                            ","","learn","5","5","5","learn","1","1","[0, 1, 2]","13","1","setsize","10S3A","food","1","0","0","0",""
"null","null","fixation","html-keyboard-response","99","288762","0.0-1.0-7.0-3.0-0.14","10:12:02","2","","","","","","","fixation","","","","","","","","","","","","","","","","","","",""
"640","1","pic_response","html-keyboard-response","100","289403","0.0-1.0-7.0-3.0-1.14","10:12:02","2","","","","","","","<div>
            <img class='stim' src=""pictures/food/8.jpg""></div><div class=""button_prompt"">
                        <b>请用数字键1-3回答</b>
                        </div>","","","","","","","","","","","","","","","","","","",""
"640","null","sub_response","html-keyboard-response","101","290408","0.0-1.0-7.0-3.0-2.14","10:12:02","2","","","","","","","<div style='text-align: center;'>
                            <span style=""color: red; font-size: 40px""><b>错误！+0 pts</b></span></div>
                            ","","learn","8","8","8","learn","2","2","[0, 1, 2]","14","1","setsize","10S3A","food","1","0","0","0",""
"null","null","fixation","html-keyboard-response","102","290918","0.0-1.0-7.0-3.0-0.15","10:12:02","2","","","","","","","fixation","","","","","","","","","","","","","","","","","","",""
"720","2","pic_response","html-keyboard-response","103","291639","0.0-1.0-7.0-3.0-1.15","10:12:02","2","","","","","","","<div>
            <img class='stim' src=""pictures/food/9.jpg""></div><div class=""button_prompt"">
                        <b>请用数字键1-3回答</b>
                        </div>","","","","","","","","","","","","","","","","","","",""
"720","null","sub_response","html-keyboard-response","104","292645","0.0-1.0-7.0-3.0-2.15","10:12:02","2","","","","","","","<div style='text-align: center;'>
                            <span style=""color: red; font-size: 40px""><b>错误！+0 pts</b></span></div>
                            ","","learn","9","9","9","learn","2","2","[0, 1, 2]","15","1","setsize","10S3A","food","1","0","1","0",""
"null","null","fixation","html-keyboard-response","105","293157","0.0-1.0-7.0-3.0-0.16","10:12:02","2","","","","","","","fixation","","","","","","","","","","","","","","","","","","",""
"692","2","pic_response","html-keyboard-response","106","293850","0.0-1.0-7.0-3.0-1.16","10:12:02","2","","","","","","","<div>
            <img class='stim' src=""pictures/food/4.jpg""></div><div class=""button_prompt"">
                        <b>请用数字键1-3回答</b>
                        </div>","","","","","","","","","","","","","","","","","","",""
"692","null","sub_response","html-keyboard-response","107","294859","0.0-1.0-7.0-3.0-2.16","10:12:02","2","","","","","","","<div style='text-align: center;'>
                            <span style=""color: green; font-size: 40px""><b>正确！+1 pts</b></span></div>
                            ","","learn","4","4","4","learn","1","1","[0, 1, 2]","16","1","setsize","10S3A","food","1","1","1","1",""
"null","null","fixation","html-keyboard-response","108","295370","0.0-1.0-7.0-3.0-0.17","10:12:02","2","","","","","","","fixation","","","","","","","","","","","","","","","","","","",""
"722","1","pic_response","html-keyboard-response","109","296094","0.0-1.0-7.0-3.0-1.17","10:12:02","2","","","","","","","<div>
            <img class='stim' src=""pictures/food/0.jpg""></div><div class=""button_prompt"">
                        <b>请用数字键1-3回答</b>
                        </div>","","","","","","","","","","","","","","","","","","",""
"722","null","sub_response","html-keyboard-response","110","297102","0.0-1.0-7.0-3.0-2.17","10:12:02","2","","","","","","","<div style='text-align: center;'>
                            <span style=""color: green; font-size: 40px""><b>正确！+1 pts</b></span></div>
                            ","","learn","0","0","0","learn","0","0","[0, 1, 2]","17","1","setsize","10S3A","food","1","2","0","1",""
"null","null","fixation","html-keyboard-response","111","297604","0.0-1.0-7.0-3.0-0.18","10:12:02","2","","","","","","","fixation","","","","","","","","","","","","","","","","","","",""
"543","1","pic_response","html-keyboard-response","112","298147","0.0-1.0-7.0-3.0-1.18","10:12:02","2","","","","","","","<div>
            <img class='stim' src=""pictures/food/2.jpg""></div><div class=""button_prompt"">
                        <b>请用数字键1-3回答</b>
                        </div>","","","","","","","","","","","","","","","","","","",""
"543","null","sub_response","html-keyboard-response","113","299157","0.0-1.0-7.0-3.0-2.18","10:12:02","2","","","","","","","<div style='text-align: center;'>
                            <span style=""color: green; font-size: 40px""><b>正确！+1 pts</b></span></div>
                            ","","learn","2","2","2","learn","0","0","[0, 1, 2]","18","1","setsize","10S3A","food","1","3","0","1",""
"null","null","fixation","html-keyboard-response","114","299661","0.0-1.0-7.0-3.0-0.19","10:12:02","2","","","","","","","fixation","","","","","","","","","","","","","","","","","","",""
"752","2","pic_response","html-keyboard-response","115","300414","0.0-1.0-7.0-3.0-1.19","10:12:02","2","","","","","","","<div>
            <img class='stim' src=""pictures/food/6.jpg""></div><div class=""button_prompt"">
                        <b>请用数字键1-3回答</b>
                        </div>","","","","","","","","","","","","","","","","","","",""
"752","null","sub_response","html-keyboard-response","116","301421","0.0-1.0-7.0-3.0-2.19","10:12:02","2","","","","","","","<div style='text-align: center;'>
                            <span style=""color: red; font-size: 40px""><b>错误！+0 pts</b></span></div>
                            ","","learn","6","6","6","learn","2","2","[0, 1, 2]","19","1","setsize","10S3A","food","1","0","1","0",""
"null","null","fixation","html-keyboard-response","117","301932","0.0-1.0-7.0-3.0-0.20","10:12:02","2","","","","","","","fixation","","","","","","","","","","","","","","","","","","",""
"564","1","pic_response","html-keyboard-response","118","302498","0.0-1.0-7.0-3.0-1.20","10:12:02","2","","","","","","","<div>
            <img class='stim' src=""pictures/food/9.jpg""></div><div class=""button_prompt"">
                        <b>请用数字键1-3回答</b>
                        </div>","","","","","","","","","","","","","","","","","","",""
"564","null","sub_response","html-keyboard-response","119","303502","0.0-1.0-7.0-3.0-2.20","10:12:02","2","","","","","","","<div style='text-align: center;'>
                            <span style=""color: red; font-size: 40px""><b>错误！+0 pts</b></span></div>
                            ","","learn","9","9","9","learn","2","2","[0, 1, 2]","20","2","setsize","10S3A","food","1","0","0","0",""
"null","null","fixation","html-keyboard-response","120","304016","0.0-1.0-7.0-3.0-0.21","10:12:02","2","","","","","","","fixation","","","","","","","","","","","","","","","","","","",""
"747","3","pic_response","html-keyboard-response","121","304763","0.0-1.0-7.0-3.0-1.21","10:12:02","2","","","","","","","<div>
            <img class='stim' src=""pictures/food/7.jpg""></div><div class=""button_prompt"">
                        <b>请用数字键1-3回答</b>
                        </div>","","","","","","","","","","","","","","","","","","",""
"747","null","sub_response","html-keyboard-response","122","305766","0.0-1.0-7.0-3.0-2.21","10:12:02","2","","","","","","","<div style='text-align: center;'>
                            <span style=""color: green; font-size: 40px""><b>正确！+1 pts</b></span></div>
                            ","","learn","7","7","7","learn","2","2","[0, 1, 2]","21","2","setsize","10S3A","food","1","1","2","1",""
"null","null","fixation","html-keyboard-response","123","306268","0.0-1.0-7.0-3.0-0.22","10:12:02","2","","","","","","","fixation","","","","","","","","","","","","","","","","","","",""
"505","3","pic_response","html-keyboard-response","124","306774","0.0-1.0-7.0-3.0-1.22","10:12:02","2","","","","","","","<div>
            <img class='stim' src=""pictures/food/1.jpg""></div><div class=""button_prompt"">
                        <b>请用数字键1-3回答</b>
                        </div>","","","","","","","","","","","","","","","","","","",""
"505","null","sub_response","html-keyboard-response","125","307778","0.0-1.0-7.0-3.0-2.22","10:12:02","2","","","","","","","<div style='text-align: center;'>
                            <span style=""color: red; font-size: 40px""><b>错误！+0 pts</b></span></div>
                            ","","learn","1","1","1","learn","0","0","[0, 1, 2]","22","2","setsize","10S3A","food","1","0","2","0",""
"null","null","fixation","html-keyboard-response","126","308283","0.0-1.0-7.0-3.0-0.23","10:12:02","2","","","","","","","fixation","","","","","","","","","","","","","","","","","","",""
"590","3","pic_response","html-keyboard-response","127","308874","0.0-1.0-7.0-3.0-1.23","10:12:02","2","","","","","","","<div>
            <img class='stim' src=""pictures/food/4.jpg""></div><div class=""button_prompt"">
                        <b>请用数字键1-3回答</b>
                        </div>","","","","","","","","","","","","","","","","","","",""
"590","null","sub_response","html-keyboard-response","128","309889","0.0-1.0-7.0-3.0-2.23","10:12:02","2","","","","","","","<div style='text-align: center;'>
                            <span style=""color: red; font-size: 40px""><b>错误！+0 pts</b></span></div>
                            ","","learn","4","4","4","learn","1","1","[0, 1, 2]","23","2","setsize","10S3A","food","1","0","2","0",""
"null","null","fixation","html-keyboard-response","129","310392","0.0-1.0-7.0-3.0-0.24","10:12:02","2","","","","","","","fixation","","","","","","","","","","","","","","","","","","",""
"596","3","pic_response","html-keyboard-response","130","310989","0.0-1.0-7.0-3.0-1.24","10:12:02","2","","","","","","","<div>
            <img class='stim' src=""pictures/food/5.jpg""></div><div class=""button_prompt"">
                        <b>请用数字键1-3回答</b>
                        </div>","","","","","","","","","","","","","","","","","","",""
"596","null","sub_response","html-keyboard-response","131","311999","0.0-1.0-7.0-3.0-2.24","10:12:02","2","","","","","","","<div style='text-align: center;'>
                            <span style=""color: red; font-size: 40px""><b>错误！+0 pts</b></span></div>
                            ","","learn","5","5","5","learn","1","1","[0, 1, 2]","24","2","setsize","10S3A","food","1","0","2","0",""
"null","null","fixation","html-keyboard-response","132","312517","0.0-1.0-7.0-3.0-0.25","10:12:02","2","","","","","","","fixation","","","","","","","","","","","","","","","","","","",""
"541","1","pic_response","html-keyboard-response","133","313058","0.0-1.0-7.0-3.0-1.25","10:12:02","2","","","","","","","<div>
            <img class='stim' src=""pictures/food/2.jpg""></div><div class=""button_prompt"">
                        <b>请用数字键1-3回答</b>
                        </div>","","","","","","","","","","","","","","","","","","",""
"541","null","sub_response","html-keyboard-response","134","314061","0.0-1.0-7.0-3.0-2.25","10:12:02","2","","","","","","","<div style='text-align: center;'>
                            <span style=""color: green; font-size: 40px""><b>正确！+1 pts</b></span></div>
                            ","","learn","2","2","2","learn","0","0","[0, 1, 2]","25","2","setsize","10S3A","food","1","1","0","1",""
"null","null","fixation","html-keyboard-response","135","314578","0.0-1.0-7.0-3.0-0.26","10:12:02","2","","","","","","","fixation","","","","","","","","","","","","","","","","","","",""
"767","1","pic_response","html-keyboard-response","136","315345","0.0-1.0-7.0-3.0-1.26","10:12:02","2","","","","","","","<div>
            <img class='stim' src=""pictures/food/3.jpg""></div><div class=""button_prompt"">
                        <b>请用数字键1-3回答</b>
                        </div>","","","","","","","","","","","","","","","","","","",""
"767","null","sub_response","html-keyboard-response","137","316352","0.0-1.0-7.0-3.0-2.26","10:12:02","2","","","","","","","<div style='text-align: center;'>
                            <span style=""color: red; font-size: 40px""><b>错误！+0 pts</b></span></div>
                            ","","learn","3","3","3","learn","1","1","[0, 1, 2]","26","2","setsize","10S3A","food","1","0","0","0",""
"null","null","fixation","html-keyboard-response","138","316854","0.0-1.0-7.0-3.0-0.27","10:12:02","2","","","","","","","fixation","","","","","","","","","","","","","","","","","","",""
"647","1","pic_response","html-keyboard-response","139","317501","0.0-1.0-7.0-3.0-1.27","10:12:02","2","","","","","","","<div>
            <img class='stim' src=""pictures/food/8.jpg""></div><div class=""button_prompt"">
                        <b>请用数字键1-3回答</b>
                        </div>","","","","","","","","","","","","","","","","","","",""
"647","null","sub_response","html-keyboard-response","140","318503","0.0-1.0-7.0-3.0-2.27","10:12:02","2","","","","","","","<div style='text-align: center;'>
                            <span style=""color: red; font-size: 40px""><b>错误！+0 pts</b></span></div>
                            ","","learn","8","8","8","learn","2","2","[0, 1, 2]","27","2","setsize","10S3A","food","1","0","0","0",""
"null","null","fixation","html-keyboard-response","141","319008","0.0-1.0-7.0-3.0-0.28","10:12:02","2","","","","","","","fixation","","","","","","","","","","","","","","","","","","",""
"550","1","pic_response","html-keyboard-response","142","319558","0.0-1.0-7.0-3.0-1.28","10:12:02","2","","","","","","","<div>
            <img class='stim' src=""pictures/food/0.jpg""></div><div class=""button_prompt"">
                        <b>请用数字键1-3回答</b>
                        </div>","","","","","","","","","","","","","","","","","","",""
"550","null","sub_response","html-keyboard-response","143","320568","0.0-1.0-7.0-3.0-2.28","10:12:02","2","","","","","","","<div style='text-align: center;'>
                            <span style=""color: green; font-size: 40px""><b>正确！+1 pts</b></span></div>
                            ","","learn","0","0","0","learn","0","0","[0, 1, 2]","28","2","setsize","10S3A","food","1","1","0","1",""
"null","null","fixation","html-keyboard-response","144","321071","0.0-1.0-7.0-3.0-0.29","10:12:02","2","","","","","","","fixation","","","","","","","","","","","","","","","","","","",""
"413","1","pic_response","html-keyboard-response","145","321485","0.0-1.0-7.0-3.0-1.29","10:12:02","2","","","","","","","<div>
            <img class='stim' src=""pictures/food/6.jpg""></div><div class=""button_prompt"">
                        <b>请用数字键1-3回答</b>
                        </div>","","","","","","","","","","","","","","","","","","",""
"413","null","sub_response","html-keyboard-response","146","322488","0.0-1.0-7.0-3.0-2.29","10:12:02","2","","","","","","","<div style='text-align: center;'>
                            <span style=""color: red; font-size: 40px""><b>错误！+0 pts</b></span></div>
                            ","","learn","6","6","6","learn","2","2","[0, 1, 2]","29","2","setsize","10S3A","food","1","0","0","0",""
"null","null","fixation","html-keyboard-response","147","322992","0.0-1.0-7.0-3.0-0.30","10:12:02","2","","","","","","","fixation","","","","","","","","","","","","","","","","","","",""
"439","1","pic_response","html-keyboard-response","148","323432","0.0-1.0-7.0-3.0-1.30","10:12:02","2","","","","","","","<div>
            <img class='stim' src=""pictures/food/9.jpg""></div><div class=""button_prompt"">
                        <b>请用数字键1-3回答</b>
                        </div>","","","","","","","","","","","","","","","","","","",""
"439","null","sub_response","html-keyboard-response","149","324438","0.0-1.0-7.0-3.0-2.30","10:12:02","2","","","","","","","<div style='text-align: center;'>
                            <span style=""color: red; font-size: 40px""><b>错误！+0 pts</b></span></div>
                            ","","learn","9","9","9","learn","2","2","[0, 1, 2]","30","3","setsize","10S3A","food","1","0","0","0",""
"null","null","fixation","html-keyboard-response","150","324947","0.0-1.0-7.0-3.0-0.31","10:12:02","2","","","","","","","fixation","","","","","","","","","","","","","","","","","","",""
"280","1","pic_response","html-keyboard-response","151","325228","0.0-1.0-7.0-3.0-1.31","10:12:02","2","","","","","","","<div>
            <img class='stim' src=""pictures/food/1.jpg""></div><div class=""button_prompt"">
                        <b>请用数字键1-3回答</b>
                        </div>","","","","","","","","","","","","","","","","","","",""
"280","null","sub_response","html-keyboard-response","152","326237","0.0-1.0-7.0-3.0-2.31","10:12:02","2","","","","","","","<div style='text-align: center;'>
                            <span style=""color: green; font-size: 40px""><b>正确！+1 pts</b></span></div>
                            ","","learn","1","1","1","learn","0","0","[0, 1, 2]","31","3","setsize","10S3A","food","1","1","0","1",""
"null","null","fixation","html-keyboard-response","153","326754","0.0-1.0-7.0-3.0-0.32","10:12:02","2","","","","","","","fixation","","","","","","","","","","","","","","","","","","",""
"805","1","pic_response","html-keyboard-response","154","327560","0.0-1.0-7.0-3.0-1.32","10:12:02","2","","","","","","","<div>
            <img class='stim' src=""pictures/food/2.jpg""></div><div class=""button_prompt"">
                        <b>请用数字键1-3回答</b>
                        </div>","","","","","","","","","","","","","","","","","","",""
"805","null","sub_response","html-keyboard-response","155","328564","0.0-1.0-7.0-3.0-2.32","10:12:02","2","","","","","","","<div style='text-align: center;'>
                            <span style=""color: green; font-size: 40px""><b>正确！+1 pts</b></span></div>
                            ","","learn","2","2","2","learn","0","0","[0, 1, 2]","32","3","setsize","10S3A","food","1","2","0","1",""
"null","null","fixation","html-keyboard-response","156","329076","0.0-1.0-7.0-3.0-0.33","10:12:02","2","","","","","","","fixation","","","","","","","","","","","","","","","","","","",""
"684","3","pic_response","html-keyboard-response","157","329761","0.0-1.0-7.0-3.0-1.33","10:12:02","2","","","","","","","<div>
            <img class='stim' src=""pictures/food/4.jpg""></div><div class=""button_prompt"">
                        <b>请用数字键1-3回答</b>
                        </div>","","","","","","","","","","","","","","","","","","",""
"684","null","sub_response","html-keyboard-response","158","330778","0.0-1.0-7.0-3.0-2.33","10:12:02","2","","","","","","","<div style='text-align: center;'>
                            <span style=""color: red; font-size: 40px""><b>错误！+0 pts</b></span></div>
                            ","","learn","4","4","4","learn","1","1","[0, 1, 2]","33","3","setsize","10S3A","food","1","0","2","0",""
"null","null","fixation","html-keyboard-response","159","331280","0.0-1.0-7.0-3.0-0.34","10:12:02","2","","","","","","","fixation","","","","","","","","","","","","","","","","","","",""
"882","2","pic_response","html-keyboard-response","160","332163","0.0-1.0-7.0-3.0-1.34","10:12:02","2","","","","","","","<div>
            <img class='stim' src=""pictures/food/5.jpg""></div><div class=""button_prompt"">
                        <b>请用数字键1-3回答</b>
                        </div>","","","","","","","","","","","","","","","","","","",""
"882","null","sub_response","html-keyboard-response","161","333173","0.0-1.0-7.0-3.0-2.34","10:12:02","2","","","","","","","<div style='text-align: center;'>
                            <span style=""color: green; font-size: 40px""><b>正确！+1 pts</b></span></div>
                            ","","learn","5","5","5","learn","1","1","[0, 1, 2]","34","3","setsize","10S3A","food","1","1","1","1",""
"null","null","fixation","html-keyboard-response","162","333676","0.0-1.0-7.0-3.0-0.35","10:12:02","2","","","","","","","fixation","","","","","","","","","","","","","","","","","","",""
"784","2","pic_response","html-keyboard-response","163","334461","0.0-1.0-7.0-3.0-1.35","10:12:02","2","","","","","","","<div>
            <img class='stim' src=""pictures/food/6.jpg""></div><div class=""button_prompt"">
                        <b>请用数字键1-3回答</b>
                        </div>","","","","","","","","","","","","","","","","","","",""
"784","null","sub_response","html-keyboard-response","164","335463","0.0-1.0-7.0-3.0-2.35","10:12:02","2","","","","","","","<div style='text-align: center;'>
                            <span style=""color: red; font-size: 40px""><b>错误！+0 pts</b></span></div>
                            ","","learn","6","6","6","learn","2","2","[0, 1, 2]","35","3","setsize","10S3A","food","1","0","1","0",""
"null","null","fixation","html-keyboard-response","165","335976","0.0-1.0-7.0-3.0-0.36","10:12:02","2","","","","","","","fixation","","","","","","","","","","","","","","","","","","",""
"549","1","pic_response","html-keyboard-response","166","336525","0.0-1.0-7.0-3.0-1.36","10:12:02","2","","","","","","","<div>
            <img class='stim' src=""pictures/food/8.jpg""></div><div class=""button_prompt"">
                        <b>请用数字键1-3回答</b>
                        </div>","","","","","","","","","","","","","","","","","","",""
"549","null","sub_response","html-keyboard-response","167","337532","0.0-1.0-7.0-3.0-2.36","10:12:02","2","","","","","","","<div style='text-align: center;'>
                            <span style=""color: red; font-size: 40px""><b>错误！+0 pts</b></span></div>
                            ","","learn","8","8","8","learn","2","2","[0, 1, 2]","36","3","setsize","10S3A","food","1","0","0","0",""
"null","null","fixation","html-keyboard-response","168","338038","0.0-1.0-7.0-3.0-0.37","10:12:02","2","","","","","","","fixation","","","","","","","","","","","","","","","","","","",""
"593","1","pic_response","html-keyboard-response","169","338631","0.0-1.0-7.0-3.0-1.37","10:12:02","2","","","","","","","<div>
            <img class='stim' src=""pictures/food/0.jpg""></div><div class=""button_prompt"">
                        <b>请用数字键1-3回答</b>
                        </div>","","","","","","","","","","","","","","","","","","",""
"593","null","sub_response","html-keyboard-response","170","339639","0.0-1.0-7.0-3.0-2.37","10:12:02","2","","","","","","","<div style='text-align: center;'>
                            <span style=""color: green; font-size: 40px""><b>正确！+1 pts</b></span></div>
                            ","","learn","0","0","0","learn","0","0","[0, 1, 2]","37","3","setsize","10S3A","food","1","1","0","1",""
"null","null","fixation","html-keyboard-response","171","340149","0.0-1.0-7.0-3.0-0.38","10:12:02","2","","","","","","","fixation","","","","","","","","","","","","","","","","","","",""
"506","2","pic_response","html-keyboard-response","172","340656","0.0-1.0-7.0-3.0-1.38","10:12:02","2","","","","","","","<div>
            <img class='stim' src=""pictures/food/7.jpg""></div><div class=""button_prompt"">
                        <b>请用数字键1-3回答</b>
                        </div>","","","","","","","","","","","","","","","","","","",""
"506","null","sub_response","html-keyboard-response","173","341657","0.0-1.0-7.0-3.0-2.38","10:12:02","2","","","","","","","<div style='text-align: center;'>
                            <span style=""color: red; font-size: 40px""><b>错误！+0 pts</b></span></div>
                            ","","learn","7","7","7","learn","2","2","[0, 1, 2]","38","3","setsize","10S3A","food","1","0","1","0",""
"null","null","fixation","html-keyboard-response","174","342170","0.0-1.0-7.0-3.0-0.39","10:12:02","2","","","","","","","fixation","","","","","","","","","","","","","","","","","","",""
"618","3","pic_response","html-keyboard-response","175","342789","0.0-1.0-7.0-3.0-1.39","10:12:02","2","","","","","","","<div>
            <img class='stim' src=""pictures/food/3.jpg""></div><div class=""button_prompt"">
                        <b>请用数字键1-3回答</b>
                        </div>","","","","","","","","","","","","","","","","","","",""
"618","null","sub_response","html-keyboard-response","176","343796","0.0-1.0-7.0-3.0-2.39","10:12:02","2","","","","","","","<div style='text-align: center;'>
                            <span style=""color: red; font-size: 40px""><b>错误！+0 pts</b></span></div>
                            ","","learn","3","3","3","learn","1","1","[0, 1, 2]","39","3","setsize","10S3A","food","1","0","2","0",""
"null","null","fixation","html-keyboard-response","177","344300","0.0-1.0-7.0-3.0-0.40","10:12:02","2","","","","","","","fixation","","","","","","","","","","","","","","","","","","",""
"584","1","pic_response","html-keyboard-response","178","344885","0.0-1.0-7.0-3.0-1.40","10:12:02","2","","","","","","","<div>
            <img class='stim' src=""pictures/food/2.jpg""></div><div class=""button_prompt"">
                        <b>请用数字键1-3回答</b>
                        </div>","","","","","","","","","","","","","","","","","","",""
"584","null","sub_response","html-keyboard-response","179","345887","0.0-1.0-7.0-3.0-2.40","10:12:02","2","","","","","","","<div style='text-align: center;'>
                            <span style=""color: green; font-size: 40px""><b>正确！+1 pts</b></span></div>
                            ","","learn","2","2","2","learn","0","0","[0, 1, 2]","40","4","setsize","10S3A","food","1","1","0","1",""
"null","null","fixation","html-keyboard-response","180","346390","0.0-1.0-7.0-3.0-0.41","10:12:02","2","","","","","","","fixation","","","","","","","","","","","","","","","","","","",""
"542","1","pic_response","html-keyboard-response","181","346933","0.0-1.0-7.0-3.0-1.41","10:12:02","2","","","","","","","<div>
            <img class='stim' src=""pictures/food/1.jpg""></div><div class=""button_prompt"">
                        <b>请用数字键1-3回答</b>
                        </div>","","","","","","","","","","","","","","","","","","",""
"542","null","sub_response","html-keyboard-response","182","347940","0.0-1.0-7.0-3.0-2.41","10:12:02","2","","","","","","","<div style='text-align: center;'>
                            <span style=""color: green; font-size: 40px""><b>正确！+1 pts</b></span></div>
                            ","","learn","1","1","1","learn","0","0","[0, 1, 2]","41","4","setsize","10S3A","food","1","2","0","1",""
"null","null","fixation","html-keyboard-response","183","348442","0.0-1.0-7.0-3.0-0.42","10:12:02","2","","","","","","","fixation","","","","","","","","","","","","","","","","","","",""
"814","2","pic_response","html-keyboard-response","184","349257","0.0-1.0-7.0-3.0-1.42","10:12:02","2","","","","","","","<div>
            <img class='stim' src=""pictures/food/9.jpg""></div><div class=""button_prompt"">
                        <b>请用数字键1-3回答</b>
                        </div>","","","","","","","","","","","","","","","","","","",""
"814","null","sub_response","html-keyboard-response","185","350267","0.0-1.0-7.0-3.0-2.42","10:12:02","2","","","","","","","<div style='text-align: center;'>
                            <span style=""color: red; font-size: 40px""><b>错误！+0 pts</b></span></div>
                            ","","learn","9","9","9","learn","2","2","[0, 1, 2]","42","4","setsize","10S3A","food","1","0","1","0",""
"null","null","fixation","html-keyboard-response","186","350771","0.0-1.0-7.0-3.0-0.43","10:12:02","2","","","","","","","fixation","","","","","","","","","","","","","","","","","","",""
"812","3","pic_response","html-keyboard-response","187","351583","0.0-1.0-7.0-3.0-1.43","10:12:02","2","","","","","","","<div>
            <img class='stim' src=""pictures/food/4.jpg""></div><div class=""button_prompt"">
                        <b>请用数字键1-3回答</b>
                        </div>","","","","","","","","","","","","","","","","","","",""
"812","null","sub_response","html-keyboard-response","188","352590","0.0-1.0-7.0-3.0-2.43","10:12:02","2","","","","","","","<div style='text-align: center;'>
                            <span style=""color: red; font-size: 40px""><b>错误！+0 pts</b></span></div>
                            ","","learn","4","4","4","learn","1","1","[0, 1, 2]","43","4","setsize","10S3A","food","1","0","2","0",""
"null","null","fixation","html-keyboard-response","189","353100","0.0-1.0-7.0-3.0-0.44","10:12:02","2","","","","","","","fixation","","","","","","","","","","","","","","","","","","",""
"659","1","pic_response","html-keyboard-response","190","353759","0.0-1.0-7.0-3.0-1.44","10:12:02","2","","","","","","","<div>
            <img class='stim' src=""pictures/food/6.jpg""></div><div class=""button_prompt"">
                        <b>请用数字键1-3回答</b>
                        </div>","","","","","","","","","","","","","","","","","","",""
"659","null","sub_response","html-keyboard-response","191","354768","0.0-1.0-7.0-3.0-2.44","10:12:02","2","","","","","","","<div style='text-align: center;'>
                            <span style=""color: red; font-size: 40px""><b>错误！+0 pts</b></span></div>
                            ","","learn","6","6","6","learn","2","2","[0, 1, 2]","44","4","setsize","10S3A","food","1","0","0","0",""
"null","null","fixation","html-keyboard-response","192","355270","0.0-1.0-7.0-3.0-0.45","10:12:02","2","","","","","","","fixation","","","","","","","","","","","","","","","","","","",""
"983","1","pic_response","html-keyboard-response","193","356254","0.0-1.0-7.0-3.0-1.45","10:12:02","2","","","","","","","<div>
            <img class='stim' src=""pictures/food/3.jpg""></div><div class=""button_prompt"">
                        <b>请用数字键1-3回答</b>
                        </div>","","","","","","","","","","","","","","","","","","",""
"983","null","sub_response","html-keyboard-response","194","357266","0.0-1.0-7.0-3.0-2.45","10:12:02","2","","","","","","","<div style='text-align: center;'>
                            <span style=""color: red; font-size: 40px""><b>错误！+0 pts</b></span></div>
                            ","","learn","3","3","3","learn","1","1","[0, 1, 2]","45","4","setsize","10S3A","food","1","0","0","0",""
"null","null","fixation","html-keyboard-response","195","357767","0.0-1.0-7.0-3.0-0.46","10:12:02","2","","","","","","","fixation","","","","","","","","","","","","","","","","","","",""
"657","1","pic_response","html-keyboard-response","196","358425","0.0-1.0-7.0-3.0-1.46","10:12:02","2","","","","","","","<div>
            <img class='stim' src=""pictures/food/5.jpg""></div><div class=""button_prompt"">
                        <b>请用数字键1-3回答</b>
                        </div>","","","","","","","","","","","","","","","","","","",""
"657","null","sub_response","html-keyboard-response","197","359434","0.0-1.0-7.0-3.0-2.46","10:12:02","2","","","","","","","<div style='text-align: center;'>
                            <span style=""color: red; font-size: 40px""><b>错误！+0 pts</b></span></div>
                            ","","learn","5","5","5","learn","1","1","[0, 1, 2]","46","4","setsize","10S3A","food","1","0","0","0",""
"null","null","fixation","html-keyboard-response","198","359940","0.0-1.0-7.0-3.0-0.47","10:12:02","2","","","","","","","fixation","","","","","","","","","","","","","","","","","","",""
"724","2","pic_response","html-keyboard-response","199","360665","0.0-1.0-7.0-3.0-1.47","10:12:02","2","","","","","","","<div>
            <img class='stim' src=""pictures/food/8.jpg""></div><div class=""button_prompt"">
                        <b>请用数字键1-3回答</b>
                        </div>","","","","","","","","","","","","","","","","","","",""
"724","null","sub_response","html-keyboard-response","200","361680","0.0-1.0-7.0-3.0-2.47","10:12:02","2","","","","","","","<div style='text-align: center;'>
                            <span style=""color: red; font-size: 40px""><b>错误！+0 pts</b></span></div>
                            ","","learn","8","8","8","learn","2","2","[0, 1, 2]","47","4","setsize","10S3A","food","1","0","1","0",""
"null","null","fixation","html-keyboard-response","201","362183","0.0-1.0-7.0-3.0-0.48","10:12:02","2","","","","","","","fixation","","","","","","","","","","","","","","","","","","",""
"555","1","pic_response","html-keyboard-response","202","362739","0.0-1.0-7.0-3.0-1.48","10:12:02","2","","","","","","","<div>
            <img class='stim' src=""pictures/food/0.jpg""></div><div class=""button_prompt"">
                        <b>请用数字键1-3回答</b>
                        </div>","","","","","","","","","","","","","","","","","","",""
"555","null","sub_response","html-keyboard-response","203","363744","0.0-1.0-7.0-3.0-2.48","10:12:02","2","","","","","","","<div style='text-align: center;'>
                            <span style=""color: green; font-size: 40px""><b>正确！+1 pts</b></span></div>
                            ","","learn","0","0","0","learn","0","0","[0, 1, 2]","48","4","setsize","10S3A","food","1","1","0","1",""
"null","null","fixation","html-keyboard-response","204","364249","0.0-1.0-7.0-3.0-0.49","10:12:02","2","","","","","","","fixation","","","","","","","","","","","","","","","","","","",""
"513","1","pic_response","html-keyboard-response","205","364763","0.0-1.0-7.0-3.0-1.49","10:12:02","2","","","","","","","<div>
            <img class='stim' src=""pictures/food/7.jpg""></div><div class=""button_prompt"">
                        <b>请用数字键1-3回答</b>
                        </div>","","","","","","","","","","","","","","","","","","",""
"513","null","sub_response","html-keyboard-response","206","365770","0.0-1.0-7.0-3.0-2.49","10:12:02","2","","","","","","","<div style='text-align: center;'>
                            <span style=""color: red; font-size: 40px""><b>错误！+0 pts</b></span></div>
                            ","","learn","7","7","7","learn","2","2","[0, 1, 2]","49","4","setsize","10S3A","food","1","0","0","0",""
"null","null","fixation","html-keyboard-response","207","366277","0.0-1.0-7.0-3.0-0.50","10:12:02","2","","","","","","","fixation","","","","","","","","","","","","","","","","","","",""
"814","1","pic_response","html-keyboard-response","208","367092","0.0-1.0-7.0-3.0-1.50","10:12:02","2","","","","","","","<div>
            <img class='stim' src=""pictures/food/0.jpg""></div><div class=""button_prompt"">
                        <b>请用数字键1-3回答</b>
                        </div>","","","","","","","","","","","","","","","","","","",""
"814","null","sub_response","html-keyboard-response","209","368098","0.0-1.0-7.0-3.0-2.50","10:12:02","2","","","","","","","<div style='text-align: center;'>
                            <span style=""color: green; font-size: 40px""><b>正确！+1 pts</b></span></div>
                            ","","learn","0","0","0","learn","0","0","[0, 1, 2]","50","5","setsize","10S3A","food","1","1","0","1",""
"null","null","fixation","html-keyboard-response","210","368601","0.0-1.0-7.0-3.0-0.51","10:12:02","2","","","","","","","fixation","","","","","","","","","","","","","","","","","","",""
"616","1","pic_response","html-keyboard-response","211","369217","0.0-1.0-7.0-3.0-1.51","10:12:02","2","","","","","","","<div>
            <img class='stim' src=""pictures/food/1.jpg""></div><div class=""button_prompt"">
                        <b>请用数字键1-3回答</b>
                        </div>","","","","","","","","","","","","","","","","","","",""
"616","null","sub_response","html-keyboard-response","212","370227","0.0-1.0-7.0-3.0-2.51","10:12:02","2","","","","","","","<div style='text-align: center;'>
                            <span style=""color: green; font-size: 40px""><b>正确！+1 pts</b></span></div>
                            ","","learn","1","1","1","learn","0","0","[0, 1, 2]","51","5","setsize","10S3A","food","1","2","0","1",""
"null","null","fixation","html-keyboard-response","213","370737","0.0-1.0-7.0-3.0-0.52","10:12:02","2","","","","","","","fixation","","","","","","","","","","","","","","","","","","",""
"772","1","pic_response","html-keyboard-response","214","371507","0.0-1.0-7.0-3.0-1.52","10:12:02","2","","","","","","","<div>
            <img class='stim' src=""pictures/food/6.jpg""></div><div class=""button_prompt"">
                        <b>请用数字键1-3回答</b>
                        </div>","","","","","","","","","","","","","","","","","","",""
"772","null","sub_response","html-keyboard-response","215","372516","0.0-1.0-7.0-3.0-2.52","10:12:02","2","","","","","","","<div style='text-align: center;'>
                            <span style=""color: red; font-size: 40px""><b>错误！+0 pts</b></span></div>
                            ","","learn","6","6","6","learn","2","2","[0, 1, 2]","52","5","setsize","10S3A","food","1","0","0","0",""
"null","null","fixation","html-keyboard-response","216","373020","0.0-1.0-7.0-3.0-0.53","10:12:02","2","","","","","","","fixation","","","","","","","","","","","","","","","","","","",""
"470","1","pic_response","html-keyboard-response","217","373490","0.0-1.0-7.0-3.0-1.53","10:12:02","2","","","","","","","<div>
            <img class='stim' src=""pictures/food/5.jpg""></div><div class=""button_prompt"">
                        <b>请用数字键1-3回答</b>
                        </div>","","","","","","","","","","","","","","","","","","",""
"470","null","sub_response","html-keyboard-response","218","374496","0.0-1.0-7.0-3.0-2.53","10:12:02","2","","","","","","","<div style='text-align: center;'>
                            <span style=""color: red; font-size: 40px""><b>错误！+0 pts</b></span></div>
                            ","","learn","5","5","5","learn","1","1","[0, 1, 2]","53","5","setsize","10S3A","food","1","0","0","0",""
"null","null","fixation","html-keyboard-response","219","375005","0.0-1.0-7.0-3.0-0.54","10:12:02","2","","","","","","","fixation","","","","","","","","","","","","","","","","","","",""
"530","1","pic_response","html-keyboard-response","220","375536","0.0-1.0-7.0-3.0-1.54","10:12:02","2","","","","","","","<div>
            <img class='stim' src=""pictures/food/3.jpg""></div><div class=""button_prompt"">
                        <b>请用数字键1-3回答</b>
                        </div>","","","","","","","","","","","","","","","","","","",""
"530","null","sub_response","html-keyboard-response","221","376542","0.0-1.0-7.0-3.0-2.54","10:12:02","2","","","","","","","<div style='text-align: center;'>
                            <span style=""color: red; font-size: 40px""><b>错误！+0 pts</b></span></div>
                            ","","learn","3","3","3","learn","1","1","[0, 1, 2]","54","5","setsize","10S3A","food","1","0","0","0",""
"null","null","fixation","html-keyboard-response","222","377044","0.0-1.0-7.0-3.0-0.55","10:12:02","2","","","","","","","fixation","","","","","","","","","","","","","","","","","","",""
"384","1","pic_response","html-keyboard-response","223","377429","0.0-1.0-7.0-3.0-1.55","10:12:02","2","","","","","","","<div>
            <img class='stim' src=""pictures/food/2.jpg""></div><div class=""button_prompt"">
                        <b>请用数字键1-3回答</b>
                        </div>","","","","","","","","","","","","","","","","","","",""
"384","null","sub_response","html-keyboard-response","224","378436","0.0-1.0-7.0-3.0-2.55","10:12:02","2","","","","","","","<div style='text-align: center;'>
                            <span style=""color: green; font-size: 40px""><b>正确！+1 pts</b></span></div>
                            ","","learn","2","2","2","learn","0","0","[0, 1, 2]","55","5","setsize","10S3A","food","1","1","0","1",""
"null","null","fixation","html-keyboard-response","225","378946","0.0-1.0-7.0-3.0-0.56","10:12:02","2","","","","","","","fixation","","","","","","","","","","","","","","","","","","",""
"310","1","pic_response","html-keyboard-response","226","379257","0.0-1.0-7.0-3.0-1.56","10:12:02","2","","","","","","","<div>
            <img class='stim' src=""pictures/food/9.jpg""></div><div class=""button_prompt"">
                        <b>请用数字键1-3回答</b>
                        </div>","","","","","","","","","","","","","","","","","","",""
"310","null","sub_response","html-keyboard-response","227","380263","0.0-1.0-7.0-3.0-2.56","10:12:02","2","","","","","","","<div style='text-align: center;'>
                            <span style=""color: red; font-size: 40px""><b>错误！+0 pts</b></span></div>
                            ","","learn","9","9","9","learn","2","2","[0, 1, 2]","56","5","setsize","10S3A","food","1","0","0","0",""
"null","null","fixation","html-keyboard-response","228","380764","0.0-1.0-7.0-3.0-0.57","10:12:02","2","","","","","","","fixation","","","","","","","","","","","","","","","","","","",""
"328","1","pic_response","html-keyboard-response","229","381093","0.0-1.0-7.0-3.0-1.57","10:12:02","2","","","","","","","<div>
            <img class='stim' src=""pictures/food/7.jpg""></div><div class=""button_prompt"">
                        <b>请用数字键1-3回答</b>
                        </div>","","","","","","","","","","","","","","","","","","",""
"328","null","sub_response","html-keyboard-response","230","382098","0.0-1.0-7.0-3.0-2.57","10:12:02","2","","","","","","","<div style='text-align: center;'>
                            <span style=""color: red; font-size: 40px""><b>错误！+0 pts</b></span></div>
                            ","","learn","7","7","7","learn","2","2","[0, 1, 2]","57","5","setsize","10S3A","food","1","0","0","0",""
"null","null","fixation","html-keyboard-response","231","382608","0.0-1.0-7.0-3.0-0.58","10:12:02","2","","","","","","","fixation","","","","","","","","","","","","","","","","","","",""
"239","1","pic_response","html-keyboard-response","232","382849","0.0-1.0-7.0-3.0-1.58","10:12:02","2","","","","","","","<div>
            <img class='stim' src=""pictures/food/4.jpg""></div><div class=""button_prompt"">
                        <b>请用数字键1-3回答</b>
                        </div>","","","","","","","","","","","","","","","","","","",""
"239","null","sub_response","html-keyboard-response","233","383853","0.0-1.0-7.0-3.0-2.58","10:12:02","2","","","","","","","<div style='text-align: center;'>
                            <span style=""color: red; font-size: 40px""><b>错误！+0 pts</b></span></div>
                            ","","learn","4","4","4","learn","1","1","[0, 1, 2]","58","5","setsize","10S3A","food","1","0","0","0",""
"null","null","fixation","html-keyboard-response","234","384366","0.0-1.0-7.0-3.0-0.59","10:12:02","2","","","","","","","fixation","","","","","","","","","","","","","","","","","","",""
"377","1","pic_response","html-keyboard-response","235","384743","0.0-1.0-7.0-3.0-1.59","10:12:02","2","","","","","","","<div>
            <img class='stim' src=""pictures/food/8.jpg""></div><div class=""button_prompt"">
                        <b>请用数字键1-3回答</b>
                        </div>","","","","","","","","","","","","","","","","","","",""
"377","null","sub_response","html-keyboard-response","236","385746","0.0-1.0-7.0-3.0-2.59","10:12:02","2","","","","","","","<div style='text-align: center;'>
                            <span style=""color: red; font-size: 40px""><b>错误！+0 pts</b></span></div>
                            ","","learn","8","8","8","learn","2","2","[0, 1, 2]","59","5","setsize","10S3A","food","1","0","0","0",""
"null","null","fixation","html-keyboard-response","237","386263","0.0-1.0-7.0-3.0-0.60","10:12:02","2","","","","","","","fixation","","","","","","","","","","","","","","","","","","",""
"337","1","pic_response","html-keyboard-response","238","386600","0.0-1.0-7.0-3.0-1.60","10:12:02","2","","","","","","","<div>
            <img class='stim' src=""pictures/food/1.jpg""></div><div class=""button_prompt"">
                        <b>请用数字键1-3回答</b>
                        </div>","","","","","","","","","","","","","","","","","","",""
"337","null","sub_response","html-keyboard-response","239","387617","0.0-1.0-7.0-3.0-2.60","10:12:02","2","","","","","","","<div style='text-align: center;'>
                            <span style=""color: green; font-size: 40px""><b>正确！+1 pts</b></span></div>
                            ","","learn","1","1","1","learn","0","0","[0, 1, 2]","60","6","setsize","10S3A","food","1","1","0","1",""
"null","null","fixation","html-keyboard-response","240","388128","0.0-1.0-7.0-3.0-0.61","10:12:02","2","","","","","","","fixation","","","","","","","","","","","","","","","","","","",""
"284","1","pic_response","html-keyboard-response","241","388413","0.0-1.0-7.0-3.0-1.61","10:12:02","2","","","","","","","<div>
            <img class='stim' src=""pictures/food/6.jpg""></div><div class=""button_prompt"">
                        <b>请用数字键1-3回答</b>
                        </div>","","","","","","","","","","","","","","","","","","",""
"284","null","sub_response","html-keyboard-response","242","389424","0.0-1.0-7.0-3.0-2.61","10:12:02","2","","","","","","","<div style='text-align: center;'>
                            <span style=""color: red; font-size: 40px""><b>错误！+0 pts</b></span></div>
                            ","","learn","6","6","6","learn","2","2","[0, 1, 2]","61","6","setsize","10S3A","food","1","0","0","0",""
"null","null","fixation","html-keyboard-response","243","389927","0.0-1.0-7.0-3.0-0.62","10:12:02","2","","","","","","","fixation","","","","","","","","","","","","","","","","","","",""
"242","1","pic_response","html-keyboard-response","244","390170","0.0-1.0-7.0-3.0-1.62","10:12:02","2","","","","","","","<div>
            <img class='stim' src=""pictures/food/3.jpg""></div><div class=""button_prompt"">
                        <b>请用数字键1-3回答</b>
                        </div>","","","","","","","","","","","","","","","","","","",""
"242","null","sub_response","html-keyboard-response","245","391173","0.0-1.0-7.0-3.0-2.62","10:12:02","2","","","","","","","<div style='text-align: center;'>
                            <span style=""color: red; font-size: 40px""><b>错误！+0 pts</b></span></div>
                            ","","learn","3","3","3","learn","1","1","[0, 1, 2]","62","6","setsize","10S3A","food","1","0","0","0",""
"null","null","fixation","html-keyboard-response","246","391674","0.0-1.0-7.0-3.0-0.63","10:12:02","2","","","","","","","fixation","","","","","","","","","","","","","","","","","","",""
"332","1","pic_response","html-keyboard-response","247","392007","0.0-1.0-7.0-3.0-1.63","10:12:02","2","","","","","","","<div>
            <img class='stim' src=""pictures/food/8.jpg""></div><div class=""button_prompt"">
                        <b>请用数字键1-3回答</b>
                        </div>","","","","","","","","","","","","","","","","","","",""
"332","null","sub_response","html-keyboard-response","248","393010","0.0-1.0-7.0-3.0-2.63","10:12:02","2","","","","","","","<div style='text-align: center;'>
                            <span style=""color: red; font-size: 40px""><b>错误！+0 pts</b></span></div>
                            ","","learn","8","8","8","learn","2","2","[0, 1, 2]","63","6","setsize","10S3A","food","1","0","0","0",""
"null","null","fixation","html-keyboard-response","249","393514","0.0-1.0-7.0-3.0-0.64","10:12:02","2","","","","","","","fixation","","","","","","","","","","","","","","","","","","",""
"342","1","pic_response","html-keyboard-response","250","393857","0.0-1.0-7.0-3.0-1.64","10:12:02","2","","","","","","","<div>
            <img class='stim' src=""pictures/food/0.jpg""></div><div class=""button_prompt"">
                        <b>请用数字键1-3回答</b>
                        </div>","","","","","","","","","","","","","","","","","","",""
"342","null","sub_response","html-keyboard-response","251","394874","0.0-1.0-7.0-3.0-2.64","10:12:02","2","","","","","","","<div style='text-align: center;'>
                            <span style=""color: green; font-size: 40px""><b>正确！+1 pts</b></span></div>
                            ","","learn","0","0","0","learn","0","0","[0, 1, 2]","64","6","setsize","10S3A","food","1","1","0","1",""
"null","null","fixation","html-keyboard-response","252","395385","0.0-1.0-7.0-3.0-0.65","10:12:02","2","","","","","","","fixation","","","","","","","","","","","","","","","","","","",""
"261","1","pic_response","html-keyboard-response","253","395646","0.0-1.0-7.0-3.0-1.65","10:12:02","2","","","","","","","<div>
            <img class='stim' src=""pictures/food/5.jpg""></div><div class=""button_prompt"">
                        <b>请用数字键1-3回答</b>
                        </div>","","","","","","","","","","","","","","","","","","",""
"261","null","sub_response","html-keyboard-response","254","396653","0.0-1.0-7.0-3.0-2.65","10:12:02","2","","","","","","","<div style='text-align: center;'>
                            <span style=""color: red; font-size: 40px""><b>错误！+0 pts</b></span></div>
                            ","","learn","5","5","5","learn","1","1","[0, 1, 2]","65","6","setsize","10S3A","food","1","0","0","0",""
"null","null","fixation","html-keyboard-response","255","397155","0.0-1.0-7.0-3.0-0.66","10:12:02","2","","","","","","","fixation","","","","","","","","","","","","","","","","","","",""
"243","1","pic_response","html-keyboard-response","256","397399","0.0-1.0-7.0-3.0-1.66","10:12:02","2","","","","","","","<div>
            <img class='stim' src=""pictures/food/9.jpg""></div><div class=""button_prompt"">
                        <b>请用数字键1-3回答</b>
                        </div>","","","","","","","","","","","","","","","","","","",""
"243","null","sub_response","html-keyboard-response","257","398401","0.0-1.0-7.0-3.0-2.66","10:12:02","2","","","","","","","<div style='text-align: center;'>
                            <span style=""color: red; font-size: 40px""><b>错误！+0 pts</b></span></div>
                            ","","learn","9","9","9","learn","2","2","[0, 1, 2]","66","6","setsize","10S3A","food","1","0","0","0",""
"null","null","fixation","html-keyboard-response","258","398910","0.0-1.0-7.0-3.0-0.67","10:12:02","2","","","","","","","fixation","","","","","","","","","","","","","","","","","","",""
"815","1","pic_response","html-keyboard-response","259","399727","0.0-1.0-7.0-3.0-1.67","10:12:02","2","","","","","","","<div>
            <img class='stim' src=""pictures/food/7.jpg""></div><div class=""button_prompt"">
                        <b>请用数字键1-3回答</b>
                        </div>","","","","","","","","","","","","","","","","","","",""
"815","null","sub_response","html-keyboard-response","260","400739","0.0-1.0-7.0-3.0-2.67","10:12:02","2","","","","","","","<div style='text-align: center;'>
                            <span style=""color: red; font-size: 40px""><b>错误！+0 pts</b></span></div>
                            ","","learn","7","7","7","learn","2","2","[0, 1, 2]","67","6","setsize","10S3A","food","1","0","0","0",""
"null","null","fixation","html-keyboard-response","261","401244","0.0-1.0-7.0-3.0-0.68","10:12:02","2","","","","","","","fixation","","","","","","","","","","","","","","","","","","",""
"629","1","pic_response","html-keyboard-response","262","401875","0.0-1.0-7.0-3.0-1.68","10:12:02","2","","","","","","","<div>
            <img class='stim' src=""pictures/food/2.jpg""></div><div class=""button_prompt"">
                        <b>请用数字键1-3回答</b>
                        </div>","","","","","","","","","","","","","","","","","","",""
"629","null","sub_response","html-keyboard-response","263","402881","0.0-1.0-7.0-3.0-2.68","10:12:02","2","","","","","","","<div style='text-align: center;'>
                            <span style=""color: green; font-size: 40px""><b>正确！+1 pts</b></span></div>
                            ","","learn","2","2","2","learn","0","0","[0, 1, 2]","68","6","setsize","10S3A","food","1","1","0","1",""
"null","null","fixation","html-keyboard-response","264","403384","0.0-1.0-7.0-3.0-0.69","10:12:02","2","","","","","","","fixation","","","","","","","","","","","","","","","","","","",""
"726","2","pic_response","html-keyboard-response","265","404111","0.0-1.0-7.0-3.0-1.69","10:12:02","2","","","","","","","<div>
            <img class='stim' src=""pictures/food/4.jpg""></div><div class=""button_prompt"">
                        <b>请用数字键1-3回答</b>
                        </div>","","","","","","","","","","","","","","","","","","",""
"726","null","sub_response","html-keyboard-response","266","405119","0.0-1.0-7.0-3.0-2.69","10:12:02","2","","","","","","","<div style='text-align: center;'>
                            <span style=""color: green; font-size: 40px""><b>正确！+1 pts</b></span></div>
                            ","","learn","4","4","4","learn","1","1","[0, 1, 2]","69","6","setsize","10S3A","food","1","2","1","1",""
"null","null","fixation","html-keyboard-response","267","405629","0.0-1.0-7.0-3.0-0.70","10:12:02","2","","","","","","","fixation","","","","","","","","","","","","","","","","","","",""
"957","3","pic_response","html-keyboard-response","268","406587","0.0-1.0-7.0-3.0-1.70","10:12:02","2","","","","","","","<div>
            <img class='stim' src=""pictures/food/9.jpg""></div><div class=""button_prompt"">
                        <b>请用数字键1-3回答</b>
                        </div>","","","","","","","","","","","","","","","","","","",""
"957","null","sub_response","html-keyboard-response","269","407593","0.0-1.0-7.0-3.0-2.70","10:12:02","2","","","","","","","<div style='text-align: center;'>
                            <span style=""color: green; font-size: 40px""><b>正确！+1 pts</b></span></div>
                            ","","learn","9","9","9","learn","2","2","[0, 1, 2]","70","7","setsize","10S3A","food","1","3","2","1",""
"null","null","fixation","html-keyboard-response","270","408096","0.0-1.0-7.0-3.0-0.71","10:12:02","2","","","","","","","fixation","","","","","","","","","","","","","","","","","","",""
"560","1","pic_response","html-keyboard-response","271","408657","0.0-1.0-7.0-3.0-1.71","10:12:02","2","","","","","","","<div>
            <img class='stim' src=""pictures/food/6.jpg""></div><div class=""button_prompt"">
                        <b>请用数字键1-3回答</b>
                        </div>","","","","","","","","","","","","","","","","","","",""
"560","null","sub_response","html-keyboard-response","272","409659","0.0-1.0-7.0-3.0-2.71","10:12:02","2","","","","","","","<div style='text-align: center;'>
                            <span style=""color: red; font-size: 40px""><b>错误！+0 pts</b></span></div>
                            ","","learn","6","6","6","learn","2","2","[0, 1, 2]","71","7","setsize","10S3A","food","1","0","0","0",""
"null","null","fixation","html-keyboard-response","273","410170","0.0-1.0-7.0-3.0-0.72","10:12:02","2","","","","","","","fixation","","","","","","","","","","","","","","","","","","",""
"651","2","pic_response","html-keyboard-response","274","410823","0.0-1.0-7.0-3.0-1.72","10:12:02","2","","","","","","","<div>
            <img class='stim' src=""pictures/food/8.jpg""></div><div class=""button_prompt"">
                        <b>请用数字键1-3回答</b>
                        </div>","","","","","","","","","","","","","","","","","","",""
"651","null","sub_response","html-keyboard-response","275","411831","0.0-1.0-7.0-3.0-2.72","10:12:02","2","","","","","","","<div style='text-align: center;'>
                            <span style=""color: red; font-size: 40px""><b>错误！+0 pts</b></span></div>
                            ","","learn","8","8","8","learn","2","2","[0, 1, 2]","72","7","setsize","10S3A","food","1","0","1","0",""
"null","null","fixation","html-keyboard-response","276","412341","0.0-1.0-7.0-3.0-0.73","10:12:02","2","","","","","","","fixation","","","","","","","","","","","","","","","","","","",""
"834","1","pic_response","html-keyboard-response","277","413176","0.0-1.0-7.0-3.0-1.73","10:12:02","2","","","","","","","<div>
            <img class='stim' src=""pictures/food/4.jpg""></div><div class=""button_prompt"">
                        <b>请用数字键1-3回答</b>
                        </div>","","","","","","","","","","","","","","","","","","",""
"834","null","sub_response","html-keyboard-response","278","414180","0.0-1.0-7.0-3.0-2.73","10:12:02","2","","","","","","","<div style='text-align: center;'>
                            <span style=""color: red; font-size: 40px""><b>错误！+0 pts</b></span></div>
                            ","","learn","4","4","4","learn","1","1","[0, 1, 2]","73","7","setsize","10S3A","food","1","0","0","0",""
"null","null","fixation","html-keyboard-response","279","414684","0.0-1.0-7.0-3.0-0.74","10:12:02","2","","","","","","","fixation","","","","","","","","","","","","","","","","","","",""
"983","1","pic_response","html-keyboard-response","280","415669","0.0-1.0-7.0-3.0-1.74","10:12:02","2","","","","","","","<div>
            <img class='stim' src=""pictures/food/3.jpg""></div><div class=""button_prompt"">
                        <b>请用数字键1-3回答</b>
                        </div>","","","","","","","","","","","","","","","","","","",""
"983","null","sub_response","html-keyboard-response","281","416681","0.0-1.0-7.0-3.0-2.74","10:12:02","2","","","","","","","<div style='text-align: center;'>
                            <span style=""color: red; font-size: 40px""><b>错误！+0 pts</b></span></div>
                            ","","learn","3","3","3","learn","1","1","[0, 1, 2]","74","7","setsize","10S3A","food","1","0","0","0",""
"null","null","fixation","html-keyboard-response","282","417191","0.0-1.0-7.0-3.0-0.75","10:12:02","2","","","","","","","fixation","","","","","","","","","","","","","","","","","","",""
"618","1","pic_response","html-keyboard-response","283","417810","0.0-1.0-7.0-3.0-1.75","10:12:02","2","","","","","","","<div>
            <img class='stim' src=""pictures/food/7.jpg""></div><div class=""button_prompt"">
                        <b>请用数字键1-3回答</b>
                        </div>","","","","","","","","","","","","","","","","","","",""
"618","null","sub_response","html-keyboard-response","284","418815","0.0-1.0-7.0-3.0-2.75","10:12:02","2","","","","","","","<div style='text-align: center;'>
                            <span style=""color: red; font-size: 40px""><b>错误！+0 pts</b></span></div>
                            ","","learn","7","7","7","learn","2","2","[0, 1, 2]","75","7","setsize","10S3A","food","1","0","0","0",""
"null","null","fixation","html-keyboard-response","285","419319","0.0-1.0-7.0-3.0-0.76","10:12:02","2","","","","","","","fixation","","","","","","","","","","","","","","","","","","",""
"650","1","pic_response","html-keyboard-response","286","419970","0.0-1.0-7.0-3.0-1.76","10:12:02","2","","","","","","","<div>
            <img class='stim' src=""pictures/food/1.jpg""></div><div class=""button_prompt"">
                        <b>请用数字键1-3回答</b>
                        </div>","","","","","","","","","","","","","","","","","","",""
"650","null","sub_response","html-keyboard-response","287","420977","0.0-1.0-7.0-3.0-2.76","10:12:02","2","","","","","","","<div style='text-align: center;'>
                            <span style=""color: green; font-size: 40px""><b>正确！+1 pts</b></span></div>
                            ","","learn","1","1","1","learn","0","0","[0, 1, 2]","76","7","setsize","10S3A","food","1","1","0","1",""
"null","null","fixation","html-keyboard-response","288","421480","0.0-1.0-7.0-3.0-0.77","10:12:02","2","","","","","","","fixation","","","","","","","","","","","","","","","","","","",""
"558","1","pic_response","html-keyboard-response","289","422039","0.0-1.0-7.0-3.0-1.77","10:12:02","2","","","","","","","<div>
            <img class='stim' src=""pictures/food/2.jpg""></div><div class=""button_prompt"">
                        <b>请用数字键1-3回答</b>
                        </div>","","","","","","","","","","","","","","","","","","",""
"558","null","sub_response","html-keyboard-response","290","423041","0.0-1.0-7.0-3.0-2.77","10:12:02","2","","","","","","","<div style='text-align: center;'>
                            <span style=""color: green; font-size: 40px""><b>正确！+1 pts</b></span></div>
                            ","","learn","2","2","2","learn","0","0","[0, 1, 2]","77","7","setsize","10S3A","food","1","2","0","1",""
"null","null","fixation","html-keyboard-response","291","423555","0.0-1.0-7.0-3.0-0.78","10:12:02","2","","","","","","","fixation","","","","","","","","","","","","","","","","","","",""
"503","2","pic_response","html-keyboard-response","292","424059","0.0-1.0-7.0-3.0-1.78","10:12:02","2","","","","","","","<div>
            <img class='stim' src=""pictures/food/5.jpg""></div><div class=""button_prompt"">
                        <b>请用数字键1-3回答</b>
                        </div>","","","","","","","","","","","","","","","","","","",""
"503","null","sub_response","html-keyboard-response","293","425075","0.0-1.0-7.0-3.0-2.78","10:12:02","2","","","","","","","<div style='text-align: center;'>
                            <span style=""color: green; font-size: 40px""><b>正确！+1 pts</b></span></div>
                            ","","learn","5","5","5","learn","1","1","[0, 1, 2]","78","7","setsize","10S3A","food","1","3","1","1",""
"null","null","fixation","html-keyboard-response","294","425577","0.0-1.0-7.0-3.0-0.79","10:12:02","2","","","","","","","fixation","","","","","","","","","","","","","","","","","","",""
"704","1","pic_response","html-keyboard-response","295","426283","0.0-1.0-7.0-3.0-1.79","10:12:02","2","","","","","","","<div>
            <img class='stim' src=""pictures/food/0.jpg""></div><div class=""button_prompt"">
                        <b>请用数字键1-3回答</b>
                        </div>","","","","","","","","","","","","","","","","","","",""
"704","null","sub_response","html-keyboard-response","296","427295","0.0-1.0-7.0-3.0-2.79","10:12:02","2","","","","","","","<div style='text-align: center;'>
                            <span style=""color: green; font-size: 40px""><b>正确！+1 pts</b></span></div>
                            ","","learn","0","0","0","learn","0","0","[0, 1, 2]","79","7","setsize","10S3A","food","1","4","0","1",""
"null","null","fixation","html-keyboard-response","297","427798","0.0-1.0-7.0-3.0-0.80","10:12:02","2","","","","","","","fixation","","","","","","","","","","","","","","","","","","",""
"805","3","pic_response","html-keyboard-response","298","428604","0.0-1.0-7.0-3.0-1.80","10:12:02","2","","","","","","","<div>
            <img class='stim' src=""pictures/food/3.jpg""></div><div class=""button_prompt"">
                        <b>请用数字键1-3回答</b>
                        </div>","","","","","","","","","","","","","","","","","","",""
"805","null","sub_response","html-keyboard-response","299","429613","0.0-1.0-7.0-3.0-2.80","10:12:02","2","","","","","","","<div style='text-align: center;'>
                            <span style=""color: red; font-size: 40px""><b>错误！+0 pts</b></span></div>
                            ","","learn","3","3","3","learn","1","1","[0, 1, 2]","80","8","setsize","10S3A","food","1","0","2","0",""
"null","null","fixation","html-keyboard-response","300","430123","0.0-1.0-7.0-3.0-0.81","10:12:02","2","","","","","","","fixation","","","","","","","","","","","","","","","","","","",""
"542","1","pic_response","html-keyboard-response","301","430666","0.0-1.0-7.0-3.0-1.81","10:12:02","2","","","","","","","<div>
            <img class='stim' src=""pictures/food/1.jpg""></div><div class=""button_prompt"">
                        <b>请用数字键1-3回答</b>
                        </div>","","","","","","","","","","","","","","","","","","",""
"542","null","sub_response","html-keyboard-response","302","431674","0.0-1.0-7.0-3.0-2.81","10:12:02","2","","","","","","","<div style='text-align: center;'>
                            <span style=""color: green; font-size: 40px""><b>正确！+1 pts</b></span></div>
                            ","","learn","1","1","1","learn","0","0","[0, 1, 2]","81","8","setsize","10S3A","food","1","1","0","1",""
"null","null","fixation","html-keyboard-response","303","432177","0.0-1.0-7.0-3.0-0.82","10:12:02","2","","","","","","","fixation","","","","","","","","","","","","","","","","","","",""
"595","1","pic_response","html-keyboard-response","304","432772","0.0-1.0-7.0-3.0-1.82","10:12:02","2","","","","","","","<div>
            <img class='stim' src=""pictures/food/8.jpg""></div><div class=""button_prompt"">
                        <b>请用数字键1-3回答</b>
                        </div>","","","","","","","","","","","","","","","","","","",""
"595","null","sub_response","html-keyboard-response","305","433789","0.0-1.0-7.0-3.0-2.82","10:12:02","2","","","","","","","<div style='text-align: center;'>
                            <span style=""color: red; font-size: 40px""><b>错误！+0 pts</b></span></div>
                            ","","learn","8","8","8","learn","2","2","[0, 1, 2]","82","8","setsize","10S3A","food","1","0","0","0",""
"null","null","fixation","html-keyboard-response","306","434293","0.0-1.0-7.0-3.0-0.83","10:12:02","2","","","","","","","fixation","","","","","","","","","","","","","","","","","","",""
"492","1","pic_response","html-keyboard-response","307","434785","0.0-1.0-7.0-3.0-1.83","10:12:02","2","","","","","","","<div>
            <img class='stim' src=""pictures/food/2.jpg""></div><div class=""button_prompt"">
                        <b>请用数字键1-3回答</b>
                        </div>","","","","","","","","","","","","","","","","","","",""
"492","null","sub_response","html-keyboard-response","308","435789","0.0-1.0-7.0-3.0-2.83","10:12:02","2","","","","","","","<div style='text-align: center;'>
                            <span style=""color: green; font-size: 40px""><b>正确！+1 pts</b></span></div>
                            ","","learn","2","2","2","learn","0","0","[0, 1, 2]","83","8","setsize","10S3A","food","1","1","0","1",""
"null","null","fixation","html-keyboard-response","309","436291","0.0-1.0-7.0-3.0-0.84","10:12:02","2","","","","","","","fixation","","","","","","","","","","","","","","","","","","",""
"578","1","pic_response","html-keyboard-response","310","436869","0.0-1.0-7.0-3.0-1.84","10:12:02","2","","","","","","","<div>
            <img class='stim' src=""pictures/food/0.jpg""></div><div class=""button_prompt"">
                        <b>请用数字键1-3回答</b>
                        </div>","","","","","","","","","","","","","","","","","","",""
"578","null","sub_response","html-keyboard-response","311","437871","0.0-1.0-7.0-3.0-2.84","10:12:02","2","","","","","","","<div style='text-align: center;'>
                            <span style=""color: green; font-size: 40px""><b>正确！+1 pts</b></span></div>
                            ","","learn","0","0","0","learn","0","0","[0, 1, 2]","84","8","setsize","10S3A","food","1","2","0","1",""
"null","null","fixation","html-keyboard-response","312","438382","0.0-1.0-7.0-3.0-0.85","10:12:02","2","","","","","","","fixation","","","","","","","","","","","","","","","","","","",""
"374","2","pic_response","html-keyboard-response","313","438757","0.0-1.0-7.0-3.0-1.85","10:12:02","2","","","","","","","<div>
            <img class='stim' src=""pictures/food/4.jpg""></div><div class=""button_prompt"">
                        <b>请用数字键1-3回答</b>
                        </div>","","","","","","","","","","","","","","","","","","",""
"374","null","sub_response","html-keyboard-response","314","439769","0.0-1.0-7.0-3.0-2.85","10:12:02","2","","","","","","","<div style='text-align: center;'>
                            <span style=""color: green; font-size: 40px""><b>正确！+1 pts</b></span></div>
                            ","","learn","4","4","4","learn","1","1","[0, 1, 2]","85","8","setsize","10S3A","food","1","3","1","1",""
"null","null","fixation","html-keyboard-response","315","440273","0.0-1.0-7.0-3.0-0.86","10:12:02","2","","","","","","","fixation","","","","","","","","","","","","","","","","","","",""
"604","2","pic_response","html-keyboard-response","316","440878","0.0-1.0-7.0-3.0-1.86","10:12:02","2","","","","","","","<div>
            <img class='stim' src=""pictures/food/7.jpg""></div><div class=""button_prompt"">
                        <b>请用数字键1-3回答</b>
                        </div>","","","","","","","","","","","","","","","","","","",""
"604","null","sub_response","html-keyboard-response","317","441884","0.0-1.0-7.0-3.0-2.86","10:12:02","2","","","","","","","<div style='text-align: center;'>
                            <span style=""color: red; font-size: 40px""><b>错误！+0 pts</b></span></div>
                            ","","learn","7","7","7","learn","2","2","[0, 1, 2]","86","8","setsize","10S3A","food","1","0","1","0",""
"null","null","fixation","html-keyboard-response","318","442398","0.0-1.0-7.0-3.0-0.87","10:12:02","2","","","","","","","fixation","","","","","","","","","","","","","","","","","","",""
"538","1","pic_response","html-keyboard-response","319","442937","0.0-1.0-7.0-3.0-1.87","10:12:02","2","","","","","","","<div>
            <img class='stim' src=""pictures/food/6.jpg""></div><div class=""button_prompt"">
                        <b>请用数字键1-3回答</b>
                        </div>","","","","","","","","","","","","","","","","","","",""
"538","null","sub_response","html-keyboard-response","320","443942","0.0-1.0-7.0-3.0-2.87","10:12:02","2","","","","","","","<div style='text-align: center;'>
                            <span style=""color: red; font-size: 40px""><b>错误！+0 pts</b></span></div>
                            ","","learn","6","6","6","learn","2","2","[0, 1, 2]","87","8","setsize","10S3A","food","1","0","0","0",""
"null","null","fixation","html-keyboard-response","321","444447","0.0-1.0-7.0-3.0-0.88","10:12:02","2","","","","","","","fixation","","","","","","","","","","","","","","","","","","",""
"480","1","pic_response","html-keyboard-response","322","444928","0.0-1.0-7.0-3.0-1.88","10:12:02","2","","","","","","","<div>
