"rt","response","screen_id","trial_type","trial_index","time_elapsed","internal_node_id","start_time","n_Prac","success","timeout","failed_images","failed_audio","failed_video","view_history","stimulus","question_order","stage","s","word","word_id","phase","a_cor","a_real","a_ava","trial","tps","task_type","block_typ","pic_typ","block_id","cum_r","a","r","plugin_name"
"94221","{""sub_id"":""12138"",""task_type"":""task1"",""name"":""郑登洲"",""gender"":""M""}","basic_info","survey-html-form","0","94222","0.0-0.0","17:58:51","4","","","","","","","","","","","","","","","","","","","","","","","","","",""
"","","","preload","1","94837","0.0-1.0-0.0","17:58:51","4","true","false","[]","[]","[]","","","","","","","","","","","","","","","","","","","","",""
"","","","preload","2","94942","0.0-1.0-1.0","17:58:51","4","true","false","[]","[]","[]","","","","","","","","","","","","","","","","","","","","",""
"","","","fullscreen","3","99349","0.0-1.0-2.0","17:58:51","4","true","","","","","","","","","","","","","","","","","","","","","","","","",""
"120971","","instruct","instructions","4","220320","0.0-1.0-3.0-0.0","17:58:51","4","","","","","","[{""page_index"":0,""viewing_time"":8023},{""page_index"":1,""viewing_time"":27396},{""page_index"":2,""viewing_time"":85551}]","","","","","","","","","","","","","","","","","","","",""
"18469","{""Q0"":"""",""task1"":""<span style='font-size: 24px'>学习图片和数字的对应关系</span>"",""task2"":""<span style='font-size: 24px'> 数字键1-3 </span>"",""task3"":""<span style='font-size: 24px'> 看到图片选出正确对应的数字 </span>""}","question","survey-multi-choice","5","238790","0.0-1.0-3.0-1.0","17:58:51","4","","","","","","","","[0,1,2,3]","","","","","","","","","","","","","","","","","",""
"3963"," ","inst_q","html-keyboard-response","6","242753","0.0-1.0-3.0-2.0","17:58:51","4","","","","","","","inst","","1","","","","","","","","","","","","","","","","",""
"15190","","instruct","instructions","7","257943","0.0-1.0-3.1-0.1","17:58:51","4","","","","","","[{""page_index"":0,""viewing_time"":7866},{""page_index"":1,""viewing_time"":4544},{""page_index"":2,""viewing_time"":2779}]","","","","","","","","","","","","","","","","","","","",""
"9908","{""Q0"":"""",""task1"":""<span style='font-size: 24px'>学习图片和数字的对应关系</span>"",""task2"":""<span style='font-size: 24px'> 图片下方标注为可用的数字键（数字键1-3或0-9） </span>"",""task3"":""<span style='font-size: 24px'> 看到图片选出正确对应的数字 </span>""}","question","survey-multi-choice","8","267852","0.0-1.0-3.1-1.1","17:58:51","4","","","","","","","","[0,1,2,3]","","","","","","","","","","","","","","","","","",""
"12912"," ","inst_q","html-keyboard-response","9","280764","0.0-1.0-3.1-2.1","17:58:51","4","","","","","","","inst","","1","","","","","","","","","","","","","","","","",""
"","","","preload","10","280833","0.0-1.0-4.0-0.0","17:58:51","4","true","false","[]","[]","[]","","","","","","","","","","","","","","","","","","","","",""
"4095"," ","","html-keyboard-response","11","284928","0.0-1.0-4.0-1.0","17:58:51","4","","","","","","","<div style='font-size: 32px; text-align: center;'
                    <p>请学习图片和数字之间的对应关系</p>
                    <p>我们将<span style='color: blue'><b> 告诉 </b></span>您选择的对错。请根据反馈学习。</p>
                    <p>请按""空格""继续实验。</p></div>","","","","","","","","","","","","","","","","","","",""
"5614"," ","inst","html-keyboard-response","12","290542","0.0-1.0-4.0-2.0","17:58:51","4","","","","","","","<img class='instruct_stim' src=""instruction/prac3.PNG""></div>","","","","","","","","","","","","","","","","","","",""
"null","null","fixation","html-keyboard-response","13","291043","0.0-1.0-4.0-3.0-0.0","17:58:51","4","","","","","","","fixation","","","","","","","","","","","","","","","","","","",""
"null","null","pic_response","html-keyboard-response","14","294046","0.0-1.0-4.0-3.0-1.0","17:58:51","4","","","","","","","<div>
            <img class='stim' src=""pictures/prac/1.jpg""></div><div class=""button_prompt"">
                        <b>请用数字键1-3回答</b>
                        </div>","","","","","","","","","","","","","","","","","","",""
"null","null","sub_response","html-keyboard-response","15","295054","0.0-1.0-4.0-3.0-2.0","17:58:51","4","","","","","","","<div style='text-align: center;'>
                            <span style=""color: red; font-size: 40px""><b>错误！+0 pts</b></span></div>
                            ","","learn","1","1","1","learn","0","0","[0, 1, 2]","0","0","setsize","99","prac","0","0","999","0",""
"null","null","fixation","html-keyboard-response","16","295561","0.0-1.0-4.0-3.0-0.1","17:58:51","4","","","","","","","fixation","","","","","","","","","","","","","","","","","","",""
"1987","3","pic_response","html-keyboard-response","17","297548","0.0-1.0-4.0-3.0-1.1","17:58:51","4","","","","","","","<div>
            <img class='stim' src=""pictures/prac/0.jpg""></div><div class=""button_prompt"">
                        <b>请用数字键1-3回答</b>
                        </div>","","","","","","","","","","","","","","","","","","",""
"1987","null","sub_response","html-keyboard-response","18","298552","0.0-1.0-4.0-3.0-2.1","17:58:51","4","","","","","","","<div style='text-align: center;'>
                            <span style=""color: red; font-size: 40px""><b>错误！+0 pts</b></span></div>
                            ","","learn","0","0","0","learn","0","0","[0, 1, 2]","1","0","setsize","99","prac","0","0","2","0",""
"null","null","fixation","html-keyboard-response","19","299059","0.0-1.0-4.0-3.0-0.2","17:58:51","4","","","","","","","fixation","","","","","","","","","","","","","","","","","","",""
"867","2","pic_response","html-keyboard-response","20","299926","0.0-1.0-4.0-3.0-1.2","17:58:51","4","","","","","","","<div>
            <img class='stim' src=""pictures/prac/2.jpg""></div><div class=""button_prompt"">
                        <b>请用数字键1-3回答</b>
                        </div>","","","","","","","","","","","","","","","","","","",""
"867","null","sub_response","html-keyboard-response","21","300927","0.0-1.0-4.0-3.0-2.2","17:58:51","4","","","","","","","<div style='text-align: center;'>
                            <span style=""color: red; font-size: 40px""><b>错误！+0 pts</b></span></div>
                            ","","learn","2","2","2","learn","2","2","[0, 1, 2]","2","0","setsize","99","prac","0","0","1","0",""
"null","null","fixation","html-keyboard-response","22","301433","0.0-1.0-4.0-3.0-0.3","17:58:51","4","","","","","","","fixation","","","","","","","","","","","","","","","","","","",""
"957","2","pic_response","html-keyboard-response","23","302390","0.0-1.0-4.0-3.0-1.3","17:58:51","4","","","","","","","<div>
            <img class='stim' src=""pictures/prac/2.jpg""></div><div class=""button_prompt"">
                        <b>请用数字键1-3回答</b>
                        </div>","","","","","","","","","","","","","","","","","","",""
"957","null","sub_response","html-keyboard-response","24","303392","0.0-1.0-4.0-3.0-2.3","17:58:51","4","","","","","","","<div style='text-align: center;'>
                            <span style=""color: red; font-size: 40px""><b>错误！+0 pts</b></span></div>
                            ","","learn","2","2","2","learn","2","2","[0, 1, 2]","3","1","setsize","99","prac","0","0","1","0",""
"null","null","fixation","html-keyboard-response","25","303893","0.0-1.0-4.0-3.0-0.4","17:58:51","4","","","","","","","fixation","","","","","","","","","","","","","","","","","","",""
"464","2","pic_response","html-keyboard-response","26","304358","0.0-1.0-4.0-3.0-1.4","17:58:51","4","","","","","","","<div>
            <img class='stim' src=""pictures/prac/0.jpg""></div><div class=""button_prompt"">
                        <b>请用数字键1-3回答</b>
                        </div>","","","","","","","","","","","","","","","","","","",""
"464","null","sub_response","html-keyboard-response","27","305359","0.0-1.0-4.0-3.0-2.4","17:58:51","4","","","","","","","<div style='text-align: center;'>
                            <span style=""color: red; font-size: 40px""><b>错误！+0 pts</b></span></div>
                            ","","learn","0","0","0","learn","0","0","[0, 1, 2]","4","1","setsize","99","prac","0","0","1","0",""
"null","null","fixation","html-keyboard-response","28","305860","0.0-1.0-4.0-3.0-0.5","17:58:51","4","","","","","","","fixation","","","","","","","","","","","","","","","","","","",""
"null","null","pic_response","html-keyboard-response","29","308862","0.0-1.0-4.0-3.0-1.5","17:58:51","4","","","","","","","<div>
            <img class='stim' src=""pictures/prac/1.jpg""></div><div class=""button_prompt"">
                        <b>请用数字键1-3回答</b>
                        </div>","","","","","","","","","","","","","","","","","","",""
"null","null","sub_response","html-keyboard-response","30","309863","0.0-1.0-4.0-3.0-2.5","17:58:51","4","","","","","","","<div style='text-align: center;'>
                            <span style=""color: red; font-size: 40px""><b>错误！+0 pts</b></span></div>
                            ","","learn","1","1","1","learn","0","0","[0, 1, 2]","5","1","setsize","99","prac","0","0","999","0",""
"","","","preload","31","309864","0.0-1.0-4.1-0.1","17:58:51","4","true","false","[]","[]","[]","","","","","","","","","","","","","","","","","","","","",""
"3790"," ","","html-keyboard-response","32","313655","0.0-1.0-4.1-1.1","17:58:51","4","","","","","","","<div style='font-size: 32px; text-align: center;'
                    <p>请学习图片和数字之间的对应关系</p>
                    <p>我们将<span style='color: blue'><b> 告诉 </b></span>您选择的对错。请根据反馈学习。</p>
                    <p>请按""空格""继续实验。</p></div>","","","","","","","","","","","","","","","","","","",""
"2694"," ","inst","html-keyboard-response","33","316360","0.0-1.0-4.1-2.1","17:58:51","4","","","","","","","<img class='instruct_stim' src=""instruction/prac3.PNG""></div>","","","","","","","","","","","","","","","","","","",""
"null","null","fixation","html-keyboard-response","34","316867","0.0-1.0-4.1-3.1-0.6","17:58:51","4","","","","","","","fixation","","","","","","","","","","","","","","","","","","",""
"846","1","pic_response","html-keyboard-response","35","317714","0.0-1.0-4.1-3.1-1.6","17:58:51","4","","","","","","","<div>
            <img class='stim' src=""pictures/prac/1.jpg""></div><div class=""button_prompt"">
                        <b>请用数字键1-3回答</b>
                        </div>","","","","","","","","","","","","","","","","","","",""
"846","null","sub_response","html-keyboard-response","36","318715","0.0-1.0-4.1-3.1-2.6","17:58:51","4","","","","","","","<div style='text-align: center;'>
                            <span style=""color: green; font-size: 40px""><b>正确！+1 pts</b></span></div>
                            ","","learn","1","1","1","learn","0","0","[0, 1, 2]","0","0","setsize","99","prac","0","1","0","1",""
"null","null","fixation","html-keyboard-response","37","319215","0.0-1.0-4.1-3.1-0.7","17:58:51","4","","","","","","","fixation","","","","","","","","","","","","","","","","","","",""
"820","2","pic_response","html-keyboard-response","38","320036","0.0-1.0-4.1-3.1-1.7","17:58:51","4","","","","","","","<div>
            <img class='stim' src=""pictures/prac/0.jpg""></div><div class=""button_prompt"">
                        <b>请用数字键1-3回答</b>
                        </div>","","","","","","","","","","","","","","","","","","",""
"820","null","sub_response","html-keyboard-response","39","321042","0.0-1.0-4.1-3.1-2.7","17:58:51","4","","","","","","","<div style='text-align: center;'>
                            <span style=""color: red; font-size: 40px""><b>错误！+0 pts</b></span></div>
                            ","","learn","0","0","0","learn","0","0","[0, 1, 2]","1","0","setsize","99","prac","0","0","1","0",""
"null","null","fixation","html-keyboard-response","40","321544","0.0-1.0-4.1-3.1-0.8","17:58:51","4","","","","","","","fixation","","","","","","","","","","","","","","","","","","",""
"394","1","pic_response","html-keyboard-response","41","321939","0.0-1.0-4.1-3.1-1.8","17:58:51","4","","","","","","","<div>
            <img class='stim' src=""pictures/prac/2.jpg""></div><div class=""button_prompt"">
                        <b>请用数字键1-3回答</b>
                        </div>","","","","","","","","","","","","","","","","","","",""
"394","null","sub_response","html-keyboard-response","42","322940","0.0-1.0-4.1-3.1-2.8","17:58:51","4","","","","","","","<div style='text-align: center;'>
                            <span style=""color: red; font-size: 40px""><b>错误！+0 pts</b></span></div>
                            ","","learn","2","2","2","learn","2","2","[0, 1, 2]","2","0","setsize","99","prac","0","0","0","0",""
"null","null","fixation","html-keyboard-response","43","323442","0.0-1.0-4.1-3.1-0.9","17:58:51","4","","","","","","","fixation","","","","","","","","","","","","","","","","","","",""
"268","3","pic_response","html-keyboard-response","44","323711","0.0-1.0-4.1-3.1-1.9","17:58:51","4","","","","","","","<div>
            <img class='stim' src=""pictures/prac/2.jpg""></div><div class=""button_prompt"">
                        <b>请用数字键1-3回答</b>
                        </div>","","","","","","","","","","","","","","","","","","",""
"268","null","sub_response","html-keyboard-response","45","324711","0.0-1.0-4.1-3.1-2.9","17:58:51","4","","","","","","","<div style='text-align: center;'>
                            <span style=""color: green; font-size: 40px""><b>正确！+1 pts</b></span></div>
                            ","","learn","2","2","2","learn","2","2","[0, 1, 2]","3","1","setsize","99","prac","0","1","2","1",""
"null","null","fixation","html-keyboard-response","46","325213","0.0-1.0-4.1-3.1-0.10","17:58:51","4","","","","","","","fixation","","","","","","","","","","","","","","","","","","",""
"369","2","pic_response","html-keyboard-response","47","325583","0.0-1.0-4.1-3.1-1.10","17:58:51","4","","","","","","","<div>
            <img class='stim' src=""pictures/prac/0.jpg""></div><div class=""button_prompt"">
                        <b>请用数字键1-3回答</b>
                        </div>","","","","","","","","","","","","","","","","","","",""
"369","null","sub_response","html-keyboard-response","48","326584","0.0-1.0-4.1-3.1-2.10","17:58:51","4","","","","","","","<div style='text-align: center;'>
                            <span style=""color: red; font-size: 40px""><b>错误！+0 pts</b></span></div>
                            ","","learn","0","0","0","learn","0","0","[0, 1, 2]","4","1","setsize","99","prac","0","0","1","0",""
"null","null","fixation","html-keyboard-response","49","327085","0.0-1.0-4.1-3.1-0.11","17:58:51","4","","","","","","","fixation","","","","","","","","","","","","","","","","","","",""
"327","3","pic_response","html-keyboard-response","50","327412","0.0-1.0-4.1-3.1-1.11","17:58:51","4","","","","","","","<div>
            <img class='stim' src=""pictures/prac/1.jpg""></div><div class=""button_prompt"">
                        <b>请用数字键1-3回答</b>
                        </div>","","","","","","","","","","","","","","","","","","",""
"327","null","sub_response","html-keyboard-response","51","328413","0.0-1.0-4.1-3.1-2.11","17:58:51","4","","","","","","","<div style='text-align: center;'>
                            <span style=""color: red; font-size: 40px""><b>错误！+0 pts</b></span></div>
                            ","","learn","1","1","1","learn","0","0","[0, 1, 2]","5","1","setsize","99","prac","0","0","2","0",""
"","","","preload","52","328413","0.0-1.0-4.2-0.2","17:58:51","4","true","false","[]","[]","[]","","","","","","","","","","","","","","","","","","","","",""
"2169"," ","","html-keyboard-response","53","330582","0.0-1.0-4.2-1.2","17:58:51","4","","","","","","","<div style='font-size: 32px; text-align: center;'
                    <p>请学习图片和数字之间的对应关系</p>
                    <p>我们将<span style='color: blue'><b> 告诉 </b></span>您选择的对错。请根据反馈学习。</p>
                    <p>请按""空格""继续实验。</p></div>","","","","","","","","","","","","","","","","","","",""
"3744"," ","inst","html-keyboard-response","54","334326","0.0-1.0-4.2-2.2","17:58:51","4","","","","","","","<img class='instruct_stim' src=""instruction/prac3.PNG""></div>","","","","","","","","","","","","","","","","","","",""
"null","null","fixation","html-keyboard-response","55","334827","0.0-1.0-4.2-3.2-0.12","17:58:51","4","","","","","","","fixation","","","","","","","","","","","","","","","","","","",""
"791","2","pic_response","html-keyboard-response","56","335619","0.0-1.0-4.2-3.2-1.12","17:58:51","4","","","","","","","<div>
            <img class='stim' src=""pictures/prac/1.jpg""></div><div class=""button_prompt"">
                        <b>请用数字键1-3回答</b>
                        </div>","","","","","","","","","","","","","","","","","","",""
"791","null","sub_response","html-keyboard-response","57","336622","0.0-1.0-4.2-3.2-2.12","17:58:51","4","","","","","","","<div style='text-align: center;'>
                            <span style=""color: red; font-size: 40px""><b>错误！+0 pts</b></span></div>
                            ","","learn","1","1","1","learn","0","0","[0, 1, 2]","0","0","setsize","99","prac","0","0","1","0",""
"null","null","fixation","html-keyboard-response","58","337130","0.0-1.0-4.2-3.2-0.13","17:58:51","4","","","","","","","fixation","","","","","","","","","","","","","","","","","","",""
"1603","3","pic_response","html-keyboard-response","59","338733","0.0-1.0-4.2-3.2-1.13","17:58:51","4","","","","","","","<div>
            <img class='stim' src=""pictures/prac/0.jpg""></div><div class=""button_prompt"">
                        <b>请用数字键1-3回答</b>
                        </div>","","","","","","","","","","","","","","","","","","",""
"1603","null","sub_response","html-keyboard-response","60","339735","0.0-1.0-4.2-3.2-2.13","17:58:51","4","","","","","","","<div style='text-align: center;'>
                            <span style=""color: red; font-size: 40px""><b>错误！+0 pts</b></span></div>
                            ","","learn","0","0","0","learn","0","0","[0, 1, 2]","1","0","setsize","99","prac","0","0","2","0",""
"null","null","fixation","html-keyboard-response","61","340236","0.0-1.0-4.2-3.2-0.14","17:58:51","4","","","","","","","fixation","","","","","","","","","","","","","","","","","","",""
"833","2","pic_response","html-keyboard-response","62","341070","0.0-1.0-4.2-3.2-1.14","17:58:51","4","","","","","","","<div>
            <img class='stim' src=""pictures/prac/2.jpg""></div><div class=""button_prompt"">
                        <b>请用数字键1-3回答</b>
                        </div>","","","","","","","","","","","","","","","","","","",""
"833","null","sub_response","html-keyboard-response","63","342071","0.0-1.0-4.2-3.2-2.14","17:58:51","4","","","","","","","<div style='text-align: center;'>
                            <span style=""color: red; font-size: 40px""><b>错误！+0 pts</b></span></div>
                            ","","learn","2","2","2","learn","2","2","[0, 1, 2]","2","0","setsize","99","prac","0","0","1","0",""
"null","null","fixation","html-keyboard-response","64","342573","0.0-1.0-4.2-3.2-0.15","17:58:51","4","","","","","","","fixation","","","","","","","","","","","","","","","","","","",""
"1044","2","pic_response","html-keyboard-response","65","343618","0.0-1.0-4.2-3.2-1.15","17:58:51","4","","","","","","","<div>
            <img class='stim' src=""pictures/prac/2.jpg""></div><div class=""button_prompt"">
                        <b>请用数字键1-3回答</b>
                        </div>","","","","","","","","","","","","","","","","","","",""
"1044","null","sub_response","html-keyboard-response","66","344618","0.0-1.0-4.2-3.2-2.15","17:58:51","4","","","","","","","<div style='text-align: center;'>
                            <span style=""color: red; font-size: 40px""><b>错误！+0 pts</b></span></div>
                            ","","learn","2","2","2","learn","2","2","[0, 1, 2]","3","1","setsize","99","prac","0","0","1","0",""
"null","null","fixation","html-keyboard-response","67","345120","0.0-1.0-4.2-3.2-0.16","17:58:51","4","","","","","","","fixation","","","","","","","","","","","","","","","","","","",""
"526","1","pic_response","html-keyboard-response","68","345647","0.0-1.0-4.2-3.2-1.16","17:58:51","4","","","","","","","<div>
            <img class='stim' src=""pictures/prac/0.jpg""></div><div class=""button_prompt"">
                        <b>请用数字键1-3回答</b>
                        </div>","","","","","","","","","","","","","","","","","","",""
"526","null","sub_response","html-keyboard-response","69","346649","0.0-1.0-4.2-3.2-2.16","17:58:51","4","","","","","","","<div style='text-align: center;'>
                            <span style=""color: green; font-size: 40px""><b>正确！+1 pts</b></span></div>
                            ","","learn","0","0","0","learn","0","0","[0, 1, 2]","4","1","setsize","99","prac","0","1","0","1",""
"null","null","fixation","html-keyboard-response","70","347153","0.0-1.0-4.2-3.2-0.17","17:58:51","4","","","","","","","fixation","","","","","","","","","","","","","","","","","","",""
"945","1","pic_response","html-keyboard-response","71","348103","0.0-1.0-4.2-3.2-1.17","17:58:51","4","","","","","","","<div>
            <img class='stim' src=""pictures/prac/1.jpg""></div><div class=""button_prompt"">
                        <b>请用数字键1-3回答</b>
                        </div>","","","","","","","","","","","","","","","","","","",""
"945","null","sub_response","html-keyboard-response","72","349110","0.0-1.0-4.2-3.2-2.17","17:58:51","4","","","","","","","<div style='text-align: center;'>
                            <span style=""color: green; font-size: 40px""><b>正确！+1 pts</b></span></div>
                            ","","learn","1","1","1","learn","0","0","[0, 1, 2]","5","1","setsize","99","prac","0","2","0","1",""
"","","","preload","73","349111","0.0-1.0-4.3-0.3","17:58:51","4","true","false","[]","[]","[]","","","","","","","","","","","","","","","","","","","","",""
"1178"," ","","html-keyboard-response","74","350290","0.0-1.0-4.3-1.3","17:58:51","4","","","","","","","<div style='font-size: 32px; text-align: center;'
                    <p>请学习图片和数字之间的对应关系</p>
                    <p>我们将<span style='color: blue'><b> 告诉 </b></span>您选择的对错。请根据反馈学习。</p>
                    <p>请按""空格""继续实验。</p></div>","","","","","","","","","","","","","","","","","","",""
"20992"," ","inst","html-keyboard-response","75","371283","0.0-1.0-4.3-2.3","17:58:51","4","","","","","","","<img class='instruct_stim' src=""instruction/prac3.PNG""></div>","","","","","","","","","","","","","","","","","","",""
"null","null","fixation","html-keyboard-response","76","371783","0.0-1.0-4.3-3.3-0.18","17:58:51","4","","","","","","","fixation","","","","","","","","","","","","","","","","","","",""
"478","1","pic_response","html-keyboard-response","77","372262","0.0-1.0-4.3-3.3-1.18","17:58:51","4","","","","","","","<div>
            <img class='stim' src=""pictures/prac/1.jpg""></div><div class=""button_prompt"">
                        <b>请用数字键1-3回答</b>
                        </div>","","","","","","","","","","","","","","","","","","",""
"478","null","sub_response","html-keyboard-response","78","373263","0.0-1.0-4.3-3.3-2.18","17:58:51","4","","","","","","","<div style='text-align: center;'>
                            <span style=""color: green; font-size: 40px""><b>正确！+1 pts</b></span></div>
                            ","","learn","1","1","1","learn","0","0","[0, 1, 2]","0","0","setsize","99","prac","0","3","0","1",""
"null","null","fixation","html-keyboard-response","79","373770","0.0-1.0-4.3-3.3-0.19","17:58:51","4","","","","","","","fixation","","","","","","","","","","","","","","","","","","",""
"601","1","pic_response","html-keyboard-response","80","374377","0.0-1.0-4.3-3.3-1.19","17:58:51","4","","","","","","","<div>
            <img class='stim' src=""pictures/prac/0.jpg""></div><div class=""button_prompt"">
                        <b>请用数字键1-3回答</b>
                        </div>","","","","","","","","","","","","","","","","","","",""
"601","null","sub_response","html-keyboard-response","81","375382","0.0-1.0-4.3-3.3-2.19","17:58:51","4","","","","","","","<div style='text-align: center;'>
                            <span style=""color: green; font-size: 40px""><b>正确！+1 pts</b></span></div>
                            ","","learn","0","0","0","learn","0","0","[0, 1, 2]","1","0","setsize","99","prac","0","4","0","1",""
"null","null","fixation","html-keyboard-response","82","375884","0.0-1.0-4.3-3.3-0.20","17:58:51","4","","","","","","","fixation","","","","","","","","","","","","","","","","","","",""
"813","1","pic_response","html-keyboard-response","83","376698","0.0-1.0-4.3-3.3-1.20","17:58:51","4","","","","","","","<div>
            <img class='stim' src=""pictures/prac/2.jpg""></div><div class=""button_prompt"">
                        <b>请用数字键1-3回答</b>
                        </div>","","","","","","","","","","","","","","","","","","",""
"813","null","sub_response","html-keyboard-response","84","377698","0.0-1.0-4.3-3.3-2.20","17:58:51","4","","","","","","","<div style='text-align: center;'>
                            <span style=""color: red; font-size: 40px""><b>错误！+0 pts</b></span></div>
                            ","","learn","2","2","2","learn","2","2","[0, 1, 2]","2","0","setsize","99","prac","0","0","0","0",""
"null","null","fixation","html-keyboard-response","85","378200","0.0-1.0-4.3-3.3-0.21","17:58:51","4","","","","","","","fixation","","","","","","","","","","","","","","","","","","",""
"949","3","pic_response","html-keyboard-response","86","379149","0.0-1.0-4.3-3.3-1.21","17:58:51","4","","","","","","","<div>
            <img class='stim' src=""pictures/prac/2.jpg""></div><div class=""button_prompt"">
                        <b>请用数字键1-3回答</b>
                        </div>","","","","","","","","","","","","","","","","","","",""
"949","null","sub_response","html-keyboard-response","87","380151","0.0-1.0-4.3-3.3-2.21","17:58:51","4","","","","","","","<div style='text-align: center;'>
                            <span style=""color: green; font-size: 40px""><b>正确！+1 pts</b></span></div>
                            ","","learn","2","2","2","learn","2","2","[0, 1, 2]","3","1","setsize","99","prac","0","1","2","1",""
"null","null","fixation","html-keyboard-response","88","380652","0.0-1.0-4.3-3.3-0.22","17:58:51","4","","","","","","","fixation","","","","","","","","","","","","","","","","","","",""
"835","1","pic_response","html-keyboard-response","89","381488","0.0-1.0-4.3-3.3-1.22","17:58:51","4","","","","","","","<div>
            <img class='stim' src=""pictures/prac/0.jpg""></div><div class=""button_prompt"">
                        <b>请用数字键1-3回答</b>
                        </div>","","","","","","","","","","","","","","","","","","",""
"835","null","sub_response","html-keyboard-response","90","382489","0.0-1.0-4.3-3.3-2.22","17:58:51","4","","","","","","","<div style='text-align: center;'>
                            <span style=""color: green; font-size: 40px""><b>正确！+1 pts</b></span></div>
                            ","","learn","0","0","0","learn","0","0","[0, 1, 2]","4","1","setsize","99","prac","0","2","0","1",""
"null","null","fixation","html-keyboard-response","91","382991","0.0-1.0-4.3-3.3-0.23","17:58:51","4","","","","","","","fixation","","","","","","","","","","","","","","","","","","",""
"683","1","pic_response","html-keyboard-response","92","383674","0.0-1.0-4.3-3.3-1.23","17:58:51","4","","","","","","","<div>
            <img class='stim' src=""pictures/prac/1.jpg""></div><div class=""button_prompt"">
                        <b>请用数字键1-3回答</b>
                        </div>","","","","","","","","","","","","","","","","","","",""
"683","null","sub_response","html-keyboard-response","93","384676","0.0-1.0-4.3-3.3-2.23","17:58:51","4","","","","","","","<div style='text-align: center;'>
                            <span style=""color: green; font-size: 40px""><b>正确！+1 pts</b></span></div>
                            ","","learn","1","1","1","learn","0","0","[0, 1, 2]","5","1","setsize","99","prac","0","3","0","1",""
"9709"," ","","html-keyboard-response","94","394385","0.0-1.0-5.0","17:58:51","4","","","","","","","<div style=""font-size: 25px""><p>距下一个实验开始还有</p><div style=""font-size: 50px; color: blue""><p><span id=""clock"">1:00</span></div></p><p>按""空格""跳过休息</p></div>","","","","","","","","","","","","","","","","","","",""
"1260"," ","","html-keyboard-response","95","395645","0.0-1.0-6.0","17:58:51","4","","","","","","","<div style='font-size: 32px; text-align: center;'
                    <p>请按""空格""继续正式实验。</p></div>","","","","","","","","","","","","","","","","","","",""
"","","","preload","96","395891","0.0-1.0-7.0-0.0","17:58:51","4","true","false","[]","[]","[]","","","","","","","","","","","","","","","","","","","","",""
"1086"," ","","html-keyboard-response","97","396977","0.0-1.0-7.0-1.0","17:58:51","4","","","","","","","<div style='font-size: 32px; text-align: center;'
                    <p>请学习图片和数字之间的对应关系</p>
                    <p>我们将<span style='color: blue'><b> 告诉 </b></span>您选择的对错。请根据反馈学习。</p>
                    <p>请按""空格""继续实验。</p></div>","","","","","","","","","","","","","","","","","","",""
"11024"," ","inst","html-keyboard-response","98","408002","0.0-1.0-7.0-2.0","17:58:51","4","","","","","","","<img class='instruct_stim' src=""instruction/food10.PNG""></div>","","","","","","","","","","","","","","","","","","",""
"null","null","fixation","html-keyboard-response","99","408502","0.0-1.0-7.0-3.0-0.0","17:58:51","4","","","","","","","fixation","","","","","","","","","","","","","","","","","","",""
"2810","1","pic_response","html-keyboard-response","100","411313","0.0-1.0-7.0-3.0-1.0","17:58:51","4","","","","","","","<div>
            <img class='stim' src=""pictures/food/3.jpg""></div><div class=""button_prompt"">
                    <b>请用数字键0-9回答</b>
                    </div>","","","","","","","","","","","","","","","","","","",""
"2810","null","sub_response","html-keyboard-response","101","412314","0.0-1.0-7.0-3.0-2.0","17:58:51","4","","","","","","","<div style='text-align: center;'>
                            <span style=""color: red; font-size: 40px""><b>错误！+0 pts</b></span></div>
                            ","","learn","3","3","3","learn","3","3","[0, 1, 2, 3, 4, 5, 6, 7, 8, 9]","0","0","setsize","10S10A","food","1","0","0","0",""
"null","null","fixation","html-keyboard-response","102","412815","0.0-1.0-7.0-3.0-0.1","17:58:51","4","","","","","","","fixation","","","","","","","","","","","","","","","","","","",""
"765","1","pic_response","html-keyboard-response","103","413581","0.0-1.0-7.0-3.0-1.1","17:58:51","4","","","","","","","<div>
            <img class='stim' src=""pictures/food/0.jpg""></div><div class=""button_prompt"">
                    <b>请用数字键0-9回答</b>
                    </div>","","","","","","","","","","","","","","","","","","",""
"765","null","sub_response","html-keyboard-response","104","414581","0.0-1.0-7.0-3.0-2.1","17:58:51","4","","","","","","","<div style='text-align: center;'>
                            <span style=""color: green; font-size: 40px""><b>正确！+1 pts</b></span></div>
                            ","","learn","0","0","0","learn","0","0","[0, 1, 2, 3, 4, 5, 6, 7, 8, 9]","1","0","setsize","10S10A","food","1","1","0","1",""
"null","null","fixation","html-keyboard-response","105","415082","0.0-1.0-7.0-3.0-0.2","17:58:51","4","","","","","","","fixation","","","","","","","","","","","","","","","","","","",""
"1967","3","pic_response","html-keyboard-response","106","417050","0.0-1.0-7.0-3.0-1.2","17:58:51","4","","","","","","","<div>
            <img class='stim' src=""pictures/food/4.jpg""></div><div class=""button_prompt"">
                    <b>请用数字键0-9回答</b>
                    </div>","","","","","","","","","","","","","","","","","","",""
"1967","null","sub_response","html-keyboard-response","107","418052","0.0-1.0-7.0-3.0-2.2","17:58:51","4","","","","","","","<div style='text-align: center;'>
                            <span style=""color: red; font-size: 40px""><b>错误！+0 pts</b></span></div>
                            ","","learn","4","4","4","learn","4","4","[0, 1, 2, 3, 4, 5, 6, 7, 8, 9]","2","0","setsize","10S10A","food","1","0","2","0",""
"null","null","fixation","html-keyboard-response","108","418554","0.0-1.0-7.0-3.0-0.3","17:58:51","4","","","","","","","fixation","","","","","","","","","","","","","","","","","","",""
"1256","3","pic_response","html-keyboard-response","109","419813","0.0-1.0-7.0-3.0-1.3","17:58:51","4","","","","","","","<div>
            <img class='stim' src=""pictures/food/9.jpg""></div><div class=""button_prompt"">
                    <b>请用数字键0-9回答</b>
                    </div>","","","","","","","","","","","","","","","","","","",""
"1256","null","sub_response","html-keyboard-response","110","420814","0.0-1.0-7.0-3.0-2.3","17:58:51","4","","","","","","","<div style='text-align: center;'>
                            <span style=""color: red; font-size: 40px""><b>错误！+0 pts</b></span></div>
                            ","","learn","9","9","9","learn","9","9","[0, 1, 2, 3, 4, 5, 6, 7, 8, 9]","3","0","setsize","10S10A","food","1","0","2","0",""
"null","null","fixation","html-keyboard-response","111","421316","0.0-1.0-7.0-3.0-0.4","17:58:51","4","","","","","","","fixation","","","","","","","","","","","","","","","","","","",""
"1780","1","pic_response","html-keyboard-response","112","423097","0.0-1.0-7.0-3.0-1.4","17:58:51","4","","","","","","","<div>
            <img class='stim' src=""pictures/food/5.jpg""></div><div class=""button_prompt"">
                    <b>请用数字键0-9回答</b>
                    </div>","","","","","","","","","","","","","","","","","","",""
"1780","null","sub_response","html-keyboard-response","113","424100","0.0-1.0-7.0-3.0-2.4","17:58:51","4","","","","","","","<div style='text-align: center;'>
                            <span style=""color: red; font-size: 40px""><b>错误！+0 pts</b></span></div>
                            ","","learn","5","5","5","learn","5","5","[0, 1, 2, 3, 4, 5, 6, 7, 8, 9]","4","0","setsize","10S10A","food","1","0","0","0",""
"null","null","fixation","html-keyboard-response","114","424601","0.0-1.0-7.0-3.0-0.5","17:58:51","4","","","","","","","fixation","","","","","","","","","","","","","","","","","","",""
"1122","1","pic_response","html-keyboard-response","115","425724","0.0-1.0-7.0-3.0-1.5","17:58:51","4","","","","","","","<div>
            <img class='stim' src=""pictures/food/8.jpg""></div><div class=""button_prompt"">
                    <b>请用数字键0-9回答</b>
                    </div>","","","","","","","","","","","","","","","","","","",""
"1122","null","sub_response","html-keyboard-response","116","426725","0.0-1.0-7.0-3.0-2.5","17:58:51","4","","","","","","","<div style='text-align: center;'>
                            <span style=""color: red; font-size: 40px""><b>错误！+0 pts</b></span></div>
                            ","","learn","8","8","8","learn","8","8","[0, 1, 2, 3, 4, 5, 6, 7, 8, 9]","5","0","setsize","10S10A","food","1","0","0","0",""
"null","null","fixation","html-keyboard-response","117","427227","0.0-1.0-7.0-3.0-0.6","17:58:51","4","","","","","","","fixation","","","","","","","","","","","","","","","","","","",""
"null","null","pic_response","html-keyboard-response","118","430228","0.0-1.0-7.0-3.0-1.6","17:58:51","4","","","","","","","<div>
            <img class='stim' src=""pictures/food/6.jpg""></div><div class=""button_prompt"">
                    <b>请用数字键0-9回答</b>
                    </div>","","","","","","","","","","","","","","","","","","",""
"null","null","sub_response","html-keyboard-response","119","431230","0.0-1.0-7.0-3.0-2.6","17:58:51","4","","","","","","","<div style='text-align: center;'>
                            <span style=""color: red; font-size: 40px""><b>错误！+0 pts</b></span></div>
                            ","","learn","6","6","6","learn","6","6","[0, 1, 2, 3, 4, 5, 6, 7, 8, 9]","6","0","setsize","10S10A","food","1","0","999","0",""
"null","null","fixation","html-keyboard-response","120","431731","0.0-1.0-7.0-3.0-0.7","17:58:51","4","","","","","","","fixation","","","","","","","","","","","","","","","","","","",""
"null","null","pic_response","html-keyboard-response","121","434737","0.0-1.0-7.0-3.0-1.7","17:58:51","4","","","","","","","<div>
            <img class='stim' src=""pictures/food/2.jpg""></div><div class=""button_prompt"">
                    <b>请用数字键0-9回答</b>
                    </div>","","","","","","","","","","","","","","","","","","",""
"null","null","sub_response","html-keyboard-response","122","435738","0.0-1.0-7.0-3.0-2.7","17:58:51","4","","","","","","","<div style='text-align: center;'>
                            <span style=""color: red; font-size: 40px""><b>错误！+0 pts</b></span></div>
                            ","","learn","2","2","2","learn","2","2","[0, 1, 2, 3, 4, 5, 6, 7, 8, 9]","7","0","setsize","10S10A","food","1","0","999","0",""
"null","null","fixation","html-keyboard-response","123","436240","0.0-1.0-7.0-3.0-0.8","17:58:51","4","","","","","","","fixation","","","","","","","","","","","","","","","","","","",""
"1068","3","pic_response","html-keyboard-response","124","437309","0.0-1.0-7.0-3.0-1.8","17:58:51","4","","","","","","","<div>
            <img class='stim' src=""pictures/food/7.jpg""></div><div class=""button_prompt"">
                    <b>请用数字键0-9回答</b>
                    </div>","","","","","","","","","","","","","","","","","","",""
"1068","null","sub_response","html-keyboard-response","125","438310","0.0-1.0-7.0-3.0-2.8","17:58:51","4","","","","","","","<div style='text-align: center;'>
                            <span style=""color: red; font-size: 40px""><b>错误！+0 pts</b></span></div>
                            ","","learn","7","7","7","learn","7","7","[0, 1, 2, 3, 4, 5, 6, 7, 8, 9]","8","0","setsize","10S10A","food","1","0","2","0",""
"null","null","fixation","html-keyboard-response","126","438811","0.0-1.0-7.0-3.0-0.9","17:58:51","4","","","","","","","fixation","","","","","","","","","","","","","","","","","","",""
"1836","2","pic_response","html-keyboard-response","127","440652","0.0-1.0-7.0-3.0-1.9","17:58:51","4","","","","","","","<div>
            <img class='stim' src=""pictures/food/1.jpg""></div><div class=""button_prompt"">
                    <b>请用数字键0-9回答</b>
                    </div>","","","","","","","","","","","","","","","","","","",""
"1836","null","sub_response","html-keyboard-response","128","441654","0.0-1.0-7.0-3.0-2.9","17:58:51","4","","","","","","","<div style='text-align: center;'>
                            <span style=""color: green; font-size: 40px""><b>正确！+1 pts</b></span></div>
                            ","","learn","1","1","1","learn","1","1","[0, 1, 2, 3, 4, 5, 6, 7, 8, 9]","9","0","setsize","10S10A","food","1","1","1","1",""
"null","null","fixation","html-keyboard-response","129","442156","0.0-1.0-7.0-3.0-0.10","17:58:51","4","","","","","","","fixation","","","","","","","","","","","","","","","","","","",""
"1156","1","pic_response","html-keyboard-response","130","443312","0.0-1.0-7.0-3.0-1.10","17:58:51","4","","","","","","","<div>
            <img class='stim' src=""pictures/food/6.jpg""></div><div class=""button_prompt"">
                    <b>请用数字键0-9回答</b>
                    </div>","","","","","","","","","","","","","","","","","","",""
"1156","null","sub_response","html-keyboard-response","131","444314","0.0-1.0-7.0-3.0-2.10","17:58:51","4","","","","","","","<div style='text-align: center;'>
                            <span style=""color: red; font-size: 40px""><b>错误！+0 pts</b></span></div>
                            ","","learn","6","6","6","learn","6","6","[0, 1, 2, 3, 4, 5, 6, 7, 8, 9]","10","1","setsize","10S10A","food","1","0","0","0",""
"null","null","fixation","html-keyboard-response","132","444816","0.0-1.0-7.0-3.0-0.11","17:58:51","4","","","","","","","fixation","","","","","","","","","","","","","","","","","","",""
"2822","1","pic_response","html-keyboard-response","133","447639","0.0-1.0-7.0-3.0-1.11","17:58:51","4","","","","","","","<div>
            <img class='stim' src=""pictures/food/0.jpg""></div><div class=""button_prompt"">
                    <b>请用数字键0-9回答</b>
                    </div>","","","","","","","","","","","","","","","","","","",""
"2822","null","sub_response","html-keyboard-response","134","448642","0.0-1.0-7.0-3.0-2.11","17:58:51","4","","","","","","","<div style='text-align: center;'>
                            <span style=""color: green; font-size: 40px""><b>正确！+1 pts</b></span></div>
                            ","","learn","0","0","0","learn","0","0","[0, 1, 2, 3, 4, 5, 6, 7, 8, 9]","11","1","setsize","10S10A","food","1","1","0","1",""
"null","null","fixation","html-keyboard-response","135","449144","0.0-1.0-7.0-3.0-0.12","17:58:51","4","","","","","","","fixation","","","","","","","","","","","","","","","","","","",""
"1233","2","pic_response","html-keyboard-response","136","450378","0.0-1.0-7.0-3.0-1.12","17:58:51","4","","","","","","","<div>
            <img class='stim' src=""pictures/food/4.jpg""></div><div class=""button_prompt"">
                    <b>请用数字键0-9回答</b>
                    </div>","","","","","","","","","","","","","","","","","","",""
"1233","null","sub_response","html-keyboard-response","137","451380","0.0-1.0-7.0-3.0-2.12","17:58:51","4","","","","","","","<div style='text-align: center;'>
                            <span style=""color: red; font-size: 40px""><b>错误！+0 pts</b></span></div>
                            ","","learn","4","4","4","learn","4","4","[0, 1, 2, 3, 4, 5, 6, 7, 8, 9]","12","1","setsize","10S10A","food","1","0","1","0",""
"null","null","fixation","html-keyboard-response","138","451880","0.0-1.0-7.0-3.0-0.13","17:58:51","4","","","","","","","fixation","","","","","","","","","","","","","","","","","","",""
"1096","1","pic_response","html-keyboard-response","139","452977","0.0-1.0-7.0-3.0-1.13","17:58:51","4","","","","","","","<div>
            <img class='stim' src=""pictures/food/1.jpg""></div><div class=""button_prompt"">
                    <b>请用数字键0-9回答</b>
                    </div>","","","","","","","","","","","","","","","","","","",""
"1096","null","sub_response","html-keyboard-response","140","453978","0.0-1.0-7.0-3.0-2.13","17:58:51","4","","","","","","","<div style='text-align: center;'>
                            <span style=""color: red; font-size: 40px""><b>错误！+0 pts</b></span></div>
                            ","","learn","1","1","1","learn","1","1","[0, 1, 2, 3, 4, 5, 6, 7, 8, 9]","13","1","setsize","10S10A","food","1","0","0","0",""
"null","null","fixation","html-keyboard-response","141","454480","0.0-1.0-7.0-3.0-0.14","17:58:51","4","","","","","","","fixation","","","","","","","","","","","","","","","","","","",""
"1394","1","pic_response","html-keyboard-response","142","455880","0.0-1.0-7.0-3.0-1.14","17:58:51","4","","","","","","","<div>
            <img class='stim' src=""pictures/food/5.jpg""></div><div class=""button_prompt"">
                    <b>请用数字键0-9回答</b>
                    </div>","","","","","","","","","","","","","","","","","","",""
"1394","null","sub_response","html-keyboard-response","143","456888","0.0-1.0-7.0-3.0-2.14","17:58:51","4","","","","","","","<div style='text-align: center;'>
                            <span style=""color: red; font-size: 40px""><b>错误！+0 pts</b></span></div>
                            ","","learn","5","5","5","learn","5","5","[0, 1, 2, 3, 4, 5, 6, 7, 8, 9]","14","1","setsize","10S10A","food","1","0","0","0",""
"null","null","fixation","html-keyboard-response","144","457389","0.0-1.0-7.0-3.0-0.15","17:58:51","4","","","","","","","fixation","","","","","","","","","","","","","","","","","","",""
"1147","3","pic_response","html-keyboard-response","145","458538","0.0-1.0-7.0-3.0-1.15","17:58:51","4","","","","","","","<div>
            <img class='stim' src=""pictures/food/8.jpg""></div><div class=""button_prompt"">
                    <b>请用数字键0-9回答</b>
                    </div>","","","","","","","","","","","","","","","","","","",""
"1147","null","sub_response","html-keyboard-response","146","459539","0.0-1.0-7.0-3.0-2.15","17:58:51","4","","","","","","","<div style='text-align: center;'>
                            <span style=""color: red; font-size: 40px""><b>错误！+0 pts</b></span></div>
                            ","","learn","8","8","8","learn","8","8","[0, 1, 2, 3, 4, 5, 6, 7, 8, 9]","15","1","setsize","10S10A","food","1","0","2","0",""
"null","null","fixation","html-keyboard-response","147","460047","0.0-1.0-7.0-3.0-0.16","17:58:51","4","","","","","","","fixation","","","","","","","","","","","","","","","","","","",""
"1022","1","pic_response","html-keyboard-response","148","461073","0.0-1.0-7.0-3.0-1.16","17:58:51","4","","","","","","","<div>
            <img class='stim' src=""pictures/food/9.jpg""></div><div class=""button_prompt"">
                    <b>请用数字键0-9回答</b>
                    </div>","","","","","","","","","","","","","","","","","","",""
"1022","null","sub_response","html-keyboard-response","149","462074","0.0-1.0-7.0-3.0-2.16","17:58:51","4","","","","","","","<div style='text-align: center;'>
                            <span style=""color: red; font-size: 40px""><b>错误！+0 pts</b></span></div>
                            ","","learn","9","9","9","learn","9","9","[0, 1, 2, 3, 4, 5, 6, 7, 8, 9]","16","1","setsize","10S10A","food","1","0","0","0",""
"null","null","fixation","html-keyboard-response","150","462581","0.0-1.0-7.0-3.0-0.17","17:58:51","4","","","","","","","fixation","","","","","","","","","","","","","","","","","","",""
"919","3","pic_response","html-keyboard-response","151","463502","0.0-1.0-7.0-3.0-1.17","17:58:51","4","","","","","","","<div>
            <img class='stim' src=""pictures/food/7.jpg""></div><div class=""button_prompt"">
                    <b>请用数字键0-9回答</b>
                    </div>","","","","","","","","","","","","","","","","","","",""
"919","null","sub_response","html-keyboard-response","152","464503","0.0-1.0-7.0-3.0-2.17","17:58:51","4","","","","","","","<div style='text-align: center;'>
                            <span style=""color: red; font-size: 40px""><b>错误！+0 pts</b></span></div>
                            ","","learn","7","7","7","learn","7","7","[0, 1, 2, 3, 4, 5, 6, 7, 8, 9]","17","1","setsize","10S10A","food","1","0","2","0",""
"null","null","fixation","html-keyboard-response","153","465004","0.0-1.0-7.0-3.0-0.18","17:58:51","4","","","","","","","fixation","","","","","","","","","","","","","","","","","","",""
"2307","2","pic_response","html-keyboard-response","154","467312","0.0-1.0-7.0-3.0-1.18","17:58:51","4","","","","","","","<div>
            <img class='stim' src=""pictures/food/3.jpg""></div><div class=""button_prompt"">
                    <b>请用数字键0-9回答</b>
                    </div>","","","","","","","","","","","","","","","","","","",""
"2307","null","sub_response","html-keyboard-response","155","468314","0.0-1.0-7.0-3.0-2.18","17:58:51","4","","","","","","","<div style='text-align: center;'>
                            <span style=""color: red; font-size: 40px""><b>错误！+0 pts</b></span></div>
                            ","","learn","3","3","3","learn","3","3","[0, 1, 2, 3, 4, 5, 6, 7, 8, 9]","18","1","setsize","10S10A","food","1","0","1","0",""
"null","null","fixation","html-keyboard-response","156","468816","0.0-1.0-7.0-3.0-0.19","17:58:51","4","","","","","","","fixation","","","","","","","","","","","","","","","","","","",""
"1145","2","pic_response","html-keyboard-response","157","469962","0.0-1.0-7.0-3.0-1.19","17:58:51","4","","","","","","","<div>
            <img class='stim' src=""pictures/food/2.jpg""></div><div class=""button_prompt"">
                    <b>请用数字键0-9回答</b>
                    </div>","","","","","","","","","","","","","","","","","","",""
"1145","null","sub_response","html-keyboard-response","158","470972","0.0-1.0-7.0-3.0-2.19","17:58:51","4","","","","","","","<div style='text-align: center;'>
                            <span style=""color: red; font-size: 40px""><b>错误！+0 pts</b></span></div>
                            ","","learn","2","2","2","learn","2","2","[0, 1, 2, 3, 4, 5, 6, 7, 8, 9]","19","1","setsize","10S10A","food","1","0","1","0",""
"null","null","fixation","html-keyboard-response","159","471479","0.0-1.0-7.0-3.0-0.20","17:58:51","4","","","","","","","fixation","","","","","","","","","","","","","","","","","","",""
"804","3","pic_response","html-keyboard-response","160","472283","0.0-1.0-7.0-3.0-1.20","17:58:51","4","","","","","","","<div>
            <img class='stim' src=""pictures/food/5.jpg""></div><div class=""button_prompt"">
                    <b>请用数字键0-9回答</b>
                    </div>","","","","","","","","","","","","","","","","","","",""
"804","null","sub_response","html-keyboard-response","161","473285","0.0-1.0-7.0-3.0-2.20","17:58:51","4","","","","","","","<div style='text-align: center;'>
                            <span style=""color: red; font-size: 40px""><b>错误！+0 pts</b></span></div>
                            ","","learn","5","5","5","learn","5","5","[0, 1, 2, 3, 4, 5, 6, 7, 8, 9]","20","2","setsize","10S10A","food","1","0","2","0",""
"null","null","fixation","html-keyboard-response","162","473801","0.0-1.0-7.0-3.0-0.21","17:58:51","4","","","","","","","fixation","","","","","","","","","","","","","","","","","","",""
"1177","3","pic_response","html-keyboard-response","163","474979","0.0-1.0-7.0-3.0-1.21","17:58:51","4","","","","","","","<div>
            <img class='stim' src=""pictures/food/8.jpg""></div><div class=""button_prompt"">
                    <b>请用数字键0-9回答</b>
                    </div>","","","","","","","","","","","","","","","","","","",""
"1177","null","sub_response","html-keyboard-response","164","475981","0.0-1.0-7.0-3.0-2.21","17:58:51","4","","","","","","","<div style='text-align: center;'>
                            <span style=""color: red; font-size: 40px""><b>错误！+0 pts</b></span></div>
                            ","","learn","8","8","8","learn","8","8","[0, 1, 2, 3, 4, 5, 6, 7, 8, 9]","21","2","setsize","10S10A","food","1","0","2","0",""
"null","null","fixation","html-keyboard-response","165","476483","0.0-1.0-7.0-3.0-0.22","17:58:51","4","","","","","","","fixation","","","","","","","","","","","","","","","","","","",""
"994","2","pic_response","html-keyboard-response","166","477477","0.0-1.0-7.0-3.0-1.22","17:58:51","4","","","","","","","<div>
            <img class='stim' src=""pictures/food/9.jpg""></div><div class=""button_prompt"">
                    <b>请用数字键0-9回答</b>
                    </div>","","","","","","","","","","","","","","","","","","",""
"994","null","sub_response","html-keyboard-response","167","478480","0.0-1.0-7.0-3.0-2.22","17:58:51","4","","","","","","","<div style='text-align: center;'>
                            <span style=""color: red; font-size: 40px""><b>错误！+0 pts</b></span></div>
                            ","","learn","9","9","9","learn","9","9","[0, 1, 2, 3, 4, 5, 6, 7, 8, 9]","22","2","setsize","10S10A","food","1","0","1","0",""
"null","null","fixation","html-keyboard-response","168","478981","0.0-1.0-7.0-3.0-0.23","17:58:51","4","","","","","","","fixation","","","","","","","","","","","","","","","","","","",""
"2061","1","pic_response","html-keyboard-response","169","481042","0.0-1.0-7.0-3.0-1.23","17:58:51","4","","","","","","","<div>
            <img class='stim' src=""pictures/food/6.jpg""></div><div class=""button_prompt"">
                    <b>请用数字键0-9回答</b>
                    </div>","","","","","","","","","","","","","","","","","","",""
"2061","null","sub_response","html-keyboard-response","170","482044","0.0-1.0-7.0-3.0-2.23","17:58:51","4","","","","","","","<div style='text-align: center;'>
                            <span style=""color: red; font-size: 40px""><b>错误！+0 pts</b></span></div>
                            ","","learn","6","6","6","learn","6","6","[0, 1, 2, 3, 4, 5, 6, 7, 8, 9]","23","2","setsize","10S10A","food","1","0","0","0",""
"null","null","fixation","html-keyboard-response","171","482545","0.0-1.0-7.0-3.0-0.24","17:58:51","4","","","","","","","fixation","","","","","","","","","","","","","","","","","","",""
"1161","3","pic_response","html-keyboard-response","172","483706","0.0-1.0-7.0-3.0-1.24","17:58:51","4","","","","","","","<div>
            <img class='stim' src=""pictures/food/7.jpg""></div><div class=""button_prompt"">
                    <b>请用数字键0-9回答</b>
                    </div>","","","","","","","","","","","","","","","","","","",""
"1161","null","sub_response","html-keyboard-response","173","484708","0.0-1.0-7.0-3.0-2.24","17:58:51","4","","","","","","","<div style='text-align: center;'>
                            <span style=""color: red; font-size: 40px""><b>错误！+0 pts</b></span></div>
                            ","","learn","7","7","7","learn","7","7","[0, 1, 2, 3, 4, 5, 6, 7, 8, 9]","24","2","setsize","10S10A","food","1","0","2","0",""
"null","null","fixation","html-keyboard-response","174","485209","0.0-1.0-7.0-3.0-0.25","17:58:51","4","","","","","","","fixation","","","","","","","","","","","","","","","","","","",""
"1944","3","pic_response","html-keyboard-response","175","487160","0.0-1.0-7.0-3.0-1.25","17:58:51","4","","","","","","","<div>
            <img class='stim' src=""pictures/food/1.jpg""></div><div class=""button_prompt"">
                    <b>请用数字键0-9回答</b>
                    </div>","","","","","","","","","","","","","","","","","","",""
"1944","null","sub_response","html-keyboard-response","176","488160","0.0-1.0-7.0-3.0-2.25","17:58:51","4","","","","","","","<div style='text-align: center;'>
                            <span style=""color: red; font-size: 40px""><b>错误！+0 pts</b></span></div>
                            ","","learn","1","1","1","learn","1","1","[0, 1, 2, 3, 4, 5, 6, 7, 8, 9]","25","2","setsize","10S10A","food","1","0","2","0",""
"null","null","fixation","html-keyboard-response","177","488677","0.0-1.0-7.0-3.0-0.26","17:58:51","4","","","","","","","fixation","","","","","","","","","","","","","","","","","","",""
"1687","1","pic_response","html-keyboard-response","178","490369","0.0-1.0-7.0-3.0-1.26","17:58:51","4","","","","","","","<div>
            <img class='stim' src=""pictures/food/2.jpg""></div><div class=""button_prompt"">
                    <b>请用数字键0-9回答</b>
                    </div>","","","","","","","","","","","","","","","","","","",""
"1687","null","sub_response","html-keyboard-response","179","491371","0.0-1.0-7.0-3.0-2.26","17:58:51","4","","","","","","","<div style='text-align: center;'>
                            <span style=""color: red; font-size: 40px""><b>错误！+0 pts</b></span></div>
                            ","","learn","2","2","2","learn","2","2","[0, 1, 2, 3, 4, 5, 6, 7, 8, 9]","26","2","setsize","10S10A","food","1","0","0","0",""
"null","null","fixation","html-keyboard-response","180","491872","0.0-1.0-7.0-3.0-0.27","17:58:51","4","","","","","","","fixation","","","","","","","","","","","","","","","","","","",""
"884","3","pic_response","html-keyboard-response","181","492763","0.0-1.0-7.0-3.0-1.27","17:58:51","4","","","","","","","<div>
            <img class='stim' src=""pictures/food/4.jpg""></div><div class=""button_prompt"">
                    <b>请用数字键0-9回答</b>
                    </div>","","","","","","","","","","","","","","","","","","",""
"884","null","sub_response","html-keyboard-response","182","493763","0.0-1.0-7.0-3.0-2.27","17:58:51","4","","","","","","","<div style='text-align: center;'>
                            <span style=""color: red; font-size: 40px""><b>错误！+0 pts</b></span></div>
                            ","","learn","4","4","4","learn","4","4","[0, 1, 2, 3, 4, 5, 6, 7, 8, 9]","27","2","setsize","10S10A","food","1","0","2","0",""
"null","null","fixation","html-keyboard-response","183","494266","0.0-1.0-7.0-3.0-0.28","17:58:51","4","","","","","","","fixation","","","","","","","","","","","","","","","","","","",""
"870","2","pic_response","html-keyboard-response","184","495142","0.0-1.0-7.0-3.0-1.28","17:58:51","4","","","","","","","<div>
            <img class='stim' src=""pictures/food/3.jpg""></div><div class=""button_prompt"">
                    <b>请用数字键0-9回答</b>
                    </div>","","","","","","","","","","","","","","","","","","",""
"870","null","sub_response","html-keyboard-response","185","496143","0.0-1.0-7.0-3.0-2.28","17:58:51","4","","","","","","","<div style='text-align: center;'>
                            <span style=""color: red; font-size: 40px""><b>错误！+0 pts</b></span></div>
                            ","","learn","3","3","3","learn","3","3","[0, 1, 2, 3, 4, 5, 6, 7, 8, 9]","28","2","setsize","10S10A","food","1","0","1","0",""
"null","null","fixation","html-keyboard-response","186","496650","0.0-1.0-7.0-3.0-0.29","17:58:51","4","","","","","","","fixation","","","","","","","","","","","","","","","","","","",""
"1031","1","pic_response","html-keyboard-response","187","497682","0.0-1.0-7.0-3.0-1.29","17:58:51","4","","","","","","","<div>
            <img class='stim' src=""pictures/food/0.jpg""></div><div class=""button_prompt"">
                    <b>请用数字键0-9回答</b>
                    </div>","","","","","","","","","","","","","","","","","","",""
"1031","null","sub_response","html-keyboard-response","188","498684","0.0-1.0-7.0-3.0-2.29","17:58:51","4","","","","","","","<div style='text-align: center;'>
                            <span style=""color: green; font-size: 40px""><b>正确！+1 pts</b></span></div>
                            ","","learn","0","0","0","learn","0","0","[0, 1, 2, 3, 4, 5, 6, 7, 8, 9]","29","2","setsize","10S10A","food","1","1","0","1",""
"null","null","fixation","html-keyboard-response","189","499202","0.0-1.0-7.0-3.0-0.30","17:58:51","4","","","","","","","fixation","","","","","","","","","","","","","","","","","","",""
"933","3","pic_response","html-keyboard-response","190","500136","0.0-1.0-7.0-3.0-1.30","17:58:51","4","","","","","","","<div>
            <img class='stim' src=""pictures/food/6.jpg""></div><div class=""button_prompt"">
                    <b>请用数字键0-9回答</b>
                    </div>","","","","","","","","","","","","","","","","","","",""
"933","null","sub_response","html-keyboard-response","191","501137","0.0-1.0-7.0-3.0-2.30","17:58:51","4","","","","","","","<div style='text-align: center;'>
                            <span style=""color: red; font-size: 40px""><b>错误！+0 pts</b></span></div>
                            ","","learn","6","6","6","learn","6","6","[0, 1, 2, 3, 4, 5, 6, 7, 8, 9]","30","3","setsize","10S10A","food","1","0","2","0",""
"null","null","fixation","html-keyboard-response","192","501638","0.0-1.0-7.0-3.0-0.31","17:58:51","4","","","","","","","fixation","","","","","","","","","","","","","","","","","","",""
"805","1","pic_response","html-keyboard-response","193","502443","0.0-1.0-7.0-3.0-1.31","17:58:51","4","","","","","","","<div>
            <img class='stim' src=""pictures/food/9.jpg""></div><div class=""button_prompt"">
                    <b>请用数字键0-9回答</b>
                    </div>","","","","","","","","","","","","","","","","","","",""
"805","null","sub_response","html-keyboard-response","194","503451","0.0-1.0-7.0-3.0-2.31","17:58:51","4","","","","","","","<div style='text-align: center;'>
                            <span style=""color: red; font-size: 40px""><b>错误！+0 pts</b></span></div>
                            ","","learn","9","9","9","learn","9","9","[0, 1, 2, 3, 4, 5, 6, 7, 8, 9]","31","3","setsize","10S10A","food","1","0","0","0",""
"null","null","fixation","html-keyboard-response","195","503952","0.0-1.0-7.0-3.0-0.32","17:58:51","4","","","","","","","fixation","","","","","","","","","","","","","","","","","","",""
"1946","1","pic_response","html-keyboard-response","196","505898","0.0-1.0-7.0-3.0-1.32","17:58:51","4","","","","","","","<div>
            <img class='stim' src=""pictures/food/2.jpg""></div><div class=""button_prompt"">
                    <b>请用数字键0-9回答</b>
                    </div>","","","","","","","","","","","","","","","","","","",""
"1946","null","sub_response","html-keyboard-response","197","506899","0.0-1.0-7.0-3.0-2.32","17:58:51","4","","","","","","","<div style='text-align: center;'>
                            <span style=""color: red; font-size: 40px""><b>错误！+0 pts</b></span></div>
                            ","","learn","2","2","2","learn","2","2","[0, 1, 2, 3, 4, 5, 6, 7, 8, 9]","32","3","setsize","10S10A","food","1","0","0","0",""
"null","null","fixation","html-keyboard-response","198","507401","0.0-1.0-7.0-3.0-0.33","17:58:51","4","","","","","","","fixation","","","","","","","","","","","","","","","","","","",""
"2498","1","pic_response","html-keyboard-response","199","509899","0.0-1.0-7.0-3.0-1.33","17:58:51","4","","","","","","","<div>
            <img class='stim' src=""pictures/food/0.jpg""></div><div class=""button_prompt"">
                    <b>请用数字键0-9回答</b>
                    </div>","","","","","","","","","","","","","","","","","","",""
"2498","null","sub_response","html-keyboard-response","200","510901","0.0-1.0-7.0-3.0-2.33","17:58:51","4","","","","","","","<div style='text-align: center;'>
                            <span style=""color: green; font-size: 40px""><b>正确！+1 pts</b></span></div>
                            ","","learn","0","0","0","learn","0","0","[0, 1, 2, 3, 4, 5, 6, 7, 8, 9]","33","3","setsize","10S10A","food","1","1","0","1",""
"null","null","fixation","html-keyboard-response","201","511401","0.0-1.0-7.0-3.0-0.34","17:58:51","4","","","","","","","fixation","","","","","","","","","","","","","","","","","","",""
"1982","1","pic_response","html-keyboard-response","202","513383","0.0-1.0-7.0-3.0-1.34","17:58:51","4","","","","","","","<div>
            <img class='stim' src=""pictures/food/7.jpg""></div><div class=""button_prompt"">
                    <b>请用数字键0-9回答</b>
                    </div>","","","","","","","","","","","","","","","","","","",""
"1982","null","sub_response","html-keyboard-response","203","514385","0.0-1.0-7.0-3.0-2.34","17:58:51","4","","","","","","","<div style='text-align: center;'>
                            <span style=""color: red; font-size: 40px""><b>错误！+0 pts</b></span></div>
                            ","","learn","7","7","7","learn","7","7","[0, 1, 2, 3, 4, 5, 6, 7, 8, 9]","34","3","setsize","10S10A","food","1","0","0","0",""
"null","null","fixation","html-keyboard-response","204","514886","0.0-1.0-7.0-3.0-0.35","17:58:51","4","","","","","","","fixation","","","","","","","","","","","","","","","","","","",""
"null","null","pic_response","html-keyboard-response","205","517887","0.0-1.0-7.0-3.0-1.35","17:58:51","4","","","","","","","<div>
            <img class='stim' src=""pictures/food/8.jpg""></div><div class=""button_prompt"">
                    <b>请用数字键0-9回答</b>
                    </div>","","","","","","","","","","","","","","","","","","",""
"null","null","sub_response","html-keyboard-response","206","518893","0.0-1.0-7.0-3.0-2.35","17:58:51","4","","","","","","","<div style='text-align: center;'>
                            <span style=""color: red; font-size: 40px""><b>错误！+0 pts</b></span></div>
                            ","","learn","8","8","8","learn","8","8","[0, 1, 2, 3, 4, 5, 6, 7, 8, 9]","35","3","setsize","10S10A","food","1","0","999","0",""
"null","null","fixation","html-keyboard-response","207","519394","0.0-1.0-7.0-3.0-0.36","17:58:51","4","","","","","","","fixation","","","","","","","","","","","","","","","","","","",""
"1031","3","pic_response","html-keyboard-response","208","520431","0.0-1.0-7.0-3.0-1.36","17:58:51","4","","","","","","","<div>
            <img class='stim' src=""pictures/food/5.jpg""></div><div class=""button_prompt"">
                    <b>请用数字键0-9回答</b>
                    </div>","","","","","","","","","","","","","","","","","","",""
"1031","null","sub_response","html-keyboard-response","209","521439","0.0-1.0-7.0-3.0-2.36","17:58:51","4","","","","","","","<div style='text-align: center;'>
                            <span style=""color: red; font-size: 40px""><b>错误！+0 pts</b></span></div>
                            ","","learn","5","5","5","learn","5","5","[0, 1, 2, 3, 4, 5, 6, 7, 8, 9]","36","3","setsize","10S10A","food","1","0","2","0",""
"null","null","fixation","html-keyboard-response","210","521941","0.0-1.0-7.0-3.0-0.37","17:58:51","4","","","","","","","fixation","","","","","","","","","","","","","","","","","","",""
"null","null","pic_response","html-keyboard-response","211","524942","0.0-1.0-7.0-3.0-1.37","17:58:51","4","","","","","","","<div>
            <img class='stim' src=""pictures/food/4.jpg""></div><div class=""button_prompt"">
                    <b>请用数字键0-9回答</b>
                    </div>","","","","","","","","","","","","","","","","","","",""
"null","null","sub_response","html-keyboard-response","212","525944","0.0-1.0-7.0-3.0-2.37","17:58:51","4","","","","","","","<div style='text-align: center;'>
                            <span style=""color: red; font-size: 40px""><b>错误！+0 pts</b></span></div>
                            ","","learn","4","4","4","learn","4","4","[0, 1, 2, 3, 4, 5, 6, 7, 8, 9]","37","3","setsize","10S10A","food","1","0","999","0",""
"null","null","fixation","html-keyboard-response","213","526445","0.0-1.0-7.0-3.0-0.38","17:58:51","4","","","","","","","fixation","","","","","","","","","","","","","","","","","","",""
"1478","8","pic_response","html-keyboard-response","214","527923","0.0-1.0-7.0-3.0-1.38","17:58:51","4","","","","","","","<div>
            <img class='stim' src=""pictures/food/1.jpg""></div><div class=""button_prompt"">
                    <b>请用数字键0-9回答</b>
                    </div>","","","","","","","","","","","","","","","","","","",""
"1478","null","sub_response","html-keyboard-response","215","528925","0.0-1.0-7.0-3.0-2.38","17:58:51","4","","","","","","","<div style='text-align: center;'>
                            <span style=""color: red; font-size: 40px""><b>错误！+0 pts</b></span></div>
                            ","","learn","1","1","1","learn","1","1","[0, 1, 2, 3, 4, 5, 6, 7, 8, 9]","38","3","setsize","10S10A","food","1","0","7","0",""
"null","null","fixation","html-keyboard-response","216","529426","0.0-1.0-7.0-3.0-0.39","17:58:51","4","","","","","","","fixation","","","","","","","","","","","","","","","","","","",""
"1085","1","pic_response","html-keyboard-response","217","530511","0.0-1.0-7.0-3.0-1.39","17:58:51","4","","","","","","","<div>
            <img class='stim' src=""pictures/food/3.jpg""></div><div class=""button_prompt"">
                    <b>请用数字键0-9回答</b>
                    </div>","","","","","","","","","","","","","","","","","","",""
"1085","null","sub_response","html-keyboard-response","218","531514","0.0-1.0-7.0-3.0-2.39","17:58:51","4","","","","","","","<div style='text-align: center;'>
                            <span style=""color: red; font-size: 40px""><b>错误！+0 pts</b></span></div>
                            ","","learn","3","3","3","learn","3","3","[0, 1, 2, 3, 4, 5, 6, 7, 8, 9]","39","3","setsize","10S10A","food","1","0","0","0",""
"null","null","fixation","html-keyboard-response","219","532014","0.0-1.0-7.0-3.0-0.40","17:58:51","4","","","","","","","fixation","","","","","","","","","","","","","","","","","","",""
"682","4","pic_response","html-keyboard-response","220","532702","0.0-1.0-7.0-3.0-1.40","17:58:51","4","","","","","","","<div>
            <img class='stim' src=""pictures/food/2.jpg""></div><div class=""button_prompt"">
                    <b>请用数字键0-9回答</b>
                    </div>","","","","","","","","","","","","","","","","","","",""
"682","null","sub_response","html-keyboard-response","221","533707","0.0-1.0-7.0-3.0-2.40","17:58:51","4","","","","","","","<div style='text-align: center;'>
                            <span style=""color: red; font-size: 40px""><b>错误！+0 pts</b></span></div>
                            ","","learn","2","2","2","learn","2","2","[0, 1, 2, 3, 4, 5, 6, 7, 8, 9]","40","4","setsize","10S10A","food","1","0","3","0",""
"null","null","fixation","html-keyboard-response","222","534208","0.0-1.0-7.0-3.0-0.41","17:58:51","4","","","","","","","fixation","","","","","","","","","","","","","","","","","","",""
"266","8","pic_response","html-keyboard-response","223","534480","0.0-1.0-7.0-3.0-1.41","17:58:51","4","","","","","","","<div>
            <img class='stim' src=""pictures/food/7.jpg""></div><div class=""button_prompt"">
                    <b>请用数字键0-9回答</b>
                    </div>","","","","","","","","","","","","","","","","","","",""
"266","null","sub_response","html-keyboard-response","224","535482","0.0-1.0-7.0-3.0-2.41","17:58:51","4","","","","","","","<div style='text-align: center;'>
                            <span style=""color: green; font-size: 40px""><b>正确！+1 pts</b></span></div>
                            ","","learn","7","7","7","learn","7","7","[0, 1, 2, 3, 4, 5, 6, 7, 8, 9]","41","4","setsize","10S10A","food","1","1","7","1",""
"null","null","fixation","html-keyboard-response","225","535983","0.0-1.0-7.0-3.0-0.42","17:58:51","4","","","","","","","fixation","","","","","","","","","","","","","","","","","","",""
"952","7","pic_response","html-keyboard-response","226","536936","0.0-1.0-7.0-3.0-1.42","17:58:51","4","","","","","","","<div>
            <img class='stim' src=""pictures/food/0.jpg""></div><div class=""button_prompt"">
                    <b>请用数字键0-9回答</b>
                    </div>","","","","","","","","","","","","","","","","","","",""
"952","null","sub_response","html-keyboard-response","227","537937","0.0-1.0-7.0-3.0-2.42","17:58:51","4","","","","","","","<div style='text-align: center;'>
                            <span style=""color: red; font-size: 40px""><b>错误！+0 pts</b></span></div>
                            ","","learn","0","0","0","learn","0","0","[0, 1, 2, 3, 4, 5, 6, 7, 8, 9]","42","4","setsize","10S10A","food","1","0","6","0",""
"null","null","fixation","html-keyboard-response","228","538439","0.0-1.0-7.0-3.0-0.43","17:58:51","4","","","","","","","fixation","","","","","","","","","","","","","","","","","","",""
"null","null","pic_response","html-keyboard-response","229","541440","0.0-1.0-7.0-3.0-1.43","17:58:51","4","","","","","","","<div>
            <img class='stim' src=""pictures/food/3.jpg""></div><div class=""button_prompt"">
                    <b>请用数字键0-9回答</b>
                    </div>","","","","","","","","","","","","","","","","","","",""
"null","null","sub_response","html-keyboard-response","230","542441","0.0-1.0-7.0-3.0-2.43","17:58:51","4","","","","","","","<div style='text-align: center;'>
                            <span style=""color: red; font-size: 40px""><b>错误！+0 pts</b></span></div>
                            ","","learn","3","3","3","learn","3","3","[0, 1, 2, 3, 4, 5, 6, 7, 8, 9]","43","4","setsize","10S10A","food","1","0","999","0",""
"null","null","fixation","html-keyboard-response","231","542943","0.0-1.0-7.0-3.0-0.44","17:58:51","4","","","","","","","fixation","","","","","","","","","","","","","","","","","","",""
"170","6","pic_response","html-keyboard-response","232","543113","0.0-1.0-7.0-3.0-1.44","17:58:51","4","","","","","","","<div>
            <img class='stim' src=""pictures/food/6.jpg""></div><div class=""button_prompt"">
                    <b>请用数字键0-9回答</b>
                    </div>","","","","","","","","","","","","","","","","","","",""
"170","null","sub_response","html-keyboard-response","233","544114","0.0-1.0-7.0-3.0-2.44","17:58:51","4","","","","","","","<div style='text-align: center;'>
                            <span style=""color: red; font-size: 40px""><b>错误！+0 pts</b></span></div>
                            ","","learn","6","6","6","learn","6","6","[0, 1, 2, 3, 4, 5, 6, 7, 8, 9]","44","4","setsize","10S10A","food","1","0","5","0",""
"null","null","fixation","html-keyboard-response","234","544614","0.0-1.0-7.0-3.0-0.45","17:58:51","4","","","","","","","fixation","","","","","","","","","","","","","","","","","","",""
"628","9","pic_response","html-keyboard-response","235","545243","0.0-1.0-7.0-3.0-1.45","17:58:51","4","","","","","","","<div>
            <img class='stim' src=""pictures/food/8.jpg""></div><div class=""button_prompt"">
                    <b>请用数字键0-9回答</b>
                    </div>","","","","","","","","","","","","","","","","","","",""
"628","null","sub_response","html-keyboard-response","236","546244","0.0-1.0-7.0-3.0-2.45","17:58:51","4","","","","","","","<div style='text-align: center;'>
                            <span style=""color: green; font-size: 40px""><b>正确！+1 pts</b></span></div>
                            ","","learn","8","8","8","learn","8","8","[0, 1, 2, 3, 4, 5, 6, 7, 8, 9]","45","4","setsize","10S10A","food","1","1","8","1",""
"null","null","fixation","html-keyboard-response","237","546745","0.0-1.0-7.0-3.0-0.46","17:58:51","4","","","","","","","fixation","","","","","","","","","","","","","","","","","","",""
"465","8","pic_response","html-keyboard-response","238","547211","0.0-1.0-7.0-3.0-1.46","17:58:51","4","","","","","","","<div>
            <img class='stim' src=""pictures/food/4.jpg""></div><div class=""button_prompt"">
                    <b>请用数字键0-9回答</b>
                    </div>","","","","","","","","","","","","","","","","","","",""
"465","null","sub_response","html-keyboard-response","239","548212","0.0-1.0-7.0-3.0-2.46","17:58:51","4","","","","","","","<div style='text-align: center;'>
                            <span style=""color: red; font-size: 40px""><b>错误！+0 pts</b></span></div>
                            ","","learn","4","4","4","learn","4","4","[0, 1, 2, 3, 4, 5, 6, 7, 8, 9]","46","4","setsize","10S10A","food","1","0","7","0",""
"null","null","fixation","html-keyboard-response","240","548713","0.0-1.0-7.0-3.0-0.47","17:58:51","4","","","","","","","fixation","","","","","","","","","","","","","","","","","","",""
"697","6","pic_response","html-keyboard-response","241","549410","0.0-1.0-7.0-3.0-1.47","17:58:51","4","","","","","","","<div>
            <img class='stim' src=""pictures/food/1.jpg""></div><div class=""button_prompt"">
                    <b>请用数字键0-9回答</b>
                    </div>","","","","","","","","","","","","","","","","","","",""
"697","null","sub_response","html-keyboard-response","242","550415","0.0-1.0-7.0-3.0-2.47","17:58:51","4","","","","","","","<div style='text-align: center;'>
                            <span style=""color: red; font-size: 40px""><b>错误！+0 pts</b></span></div>
                            ","","learn","1","1","1","learn","1","1","[0, 1, 2, 3, 4, 5, 6, 7, 8, 9]","47","4","setsize","10S10A","food","1","0","5","0",""
"null","null","fixation","html-keyboard-response","243","550916","0.0-1.0-7.0-3.0-0.48","17:58:51","4","","","","","","","fixation","","","","","","","","","","","","","","","","","","",""
"1218","9","pic_response","html-keyboard-response","244","552134","0.0-1.0-7.0-3.0-1.48","17:58:51","4","","","","","","","<div>
            <img class='stim' src=""pictures/food/5.jpg""></div><div class=""button_prompt"">
                    <b>请用数字键0-9回答</b>
                    </div>","","","","","","","","","","","","","","","","","","",""
"1218","null","sub_response","html-keyboard-response","245","553136","0.0-1.0-7.0-3.0-2.48","17:58:51","4","","","","","","","<div style='text-align: center;'>
                            <span style=""color: red; font-size: 40px""><b>错误！+0 pts</b></span></div>
                            ","","learn","5","5","5","learn","5","5","[0, 1, 2, 3, 4, 5, 6, 7, 8, 9]","48","4","setsize","10S10A","food","1","0","8","0",""
"null","null","fixation","html-keyboard-response","246","553637","0.0-1.0-7.0-3.0-0.49","17:58:51","4","","","","","","","fixation","","","","","","","","","","","","","","","","","","",""
"1514","7","pic_response","html-keyboard-response","247","555152","0.0-1.0-7.0-3.0-1.49","17:58:51","4","","","","","","","<div>
            <img class='stim' src=""pictures/food/9.jpg""></div><div class=""button_prompt"">
                    <b>请用数字键0-9回答</b>
                    </div>","","","","","","","","","","","","","","","","","","",""
"1514","null","sub_response","html-keyboard-response","248","556153","0.0-1.0-7.0-3.0-2.49","17:58:51","4","","","","","","","<div style='text-align: center;'>
                            <span style=""color: red; font-size: 40px""><b>错误！+0 pts</b></span></div>
                            ","","learn","9","9","9","learn","9","9","[0, 1, 2, 3, 4, 5, 6, 7, 8, 9]","49","4","setsize","10S10A","food","1","0","6","0",""
"null","null","fixation","html-keyboard-response","249","556654","0.0-1.0-7.0-3.0-0.50","17:58:51","4","","","","","","","fixation","","","","","","","","","","","","","","","","","","",""
"626","8","pic_response","html-keyboard-response","250","557281","0.0-1.0-7.0-3.0-1.50","17:58:51","4","","","","","","","<div>
            <img class='stim' src=""pictures/food/9.jpg""></div><div class=""button_prompt"">
                    <b>请用数字键0-9回答</b>
                    </div>","","","","","","","","","","","","","","","","","","",""
"626","null","sub_response","html-keyboard-response","251","558282","0.0-1.0-7.0-3.0-2.50","17:58:51","4","","","","","","","<div style='text-align: center;'>
                            <span style=""color: red; font-size: 40px""><b>错误！+0 pts</b></span></div>
                            ","","learn","9","9","9","learn","9","9","[0, 1, 2, 3, 4, 5, 6, 7, 8, 9]","50","5","setsize","10S10A","food","1","0","7","0",""
"null","null","fixation","html-keyboard-response","252","558784","0.0-1.0-7.0-3.0-0.51","17:58:51","4","","","","","","","fixation","","","","","","","","","","","","","","","","","","",""
"724","2","pic_response","html-keyboard-response","253","559509","0.0-1.0-7.0-3.0-1.51","17:58:51","4","","","","","","","<div>
            <img class='stim' src=""pictures/food/6.jpg""></div><div class=""button_prompt"">
                    <b>请用数字键0-9回答</b>
                    </div>","","","","","","","","","","","","","","","","","","",""
"724","null","sub_response","html-keyboard-response","254","560511","0.0-1.0-7.0-3.0-2.51","17:58:51","4","","","","","","","<div style='text-align: center;'>
                            <span style=""color: red; font-size: 40px""><b>错误！+0 pts</b></span></div>
                            ","","learn","6","6","6","learn","6","6","[0, 1, 2, 3, 4, 5, 6, 7, 8, 9]","51","5","setsize","10S10A","food","1","0","1","0",""
"null","null","fixation","html-keyboard-response","255","561013","0.0-1.0-7.0-3.0-0.52","17:58:51","4","","","","","","","fixation","","","","","","","","","","","","","","","","","","",""
"594","3","pic_response","html-keyboard-response","256","561608","0.0-1.0-7.0-3.0-1.52","17:58:51","4","","","","","","","<div>
            <img class='stim' src=""pictures/food/0.jpg""></div><div class=""button_prompt"">
                    <b>请用数字键0-9回答</b>
                    </div>","","","","","","","","","","","","","","","","","","",""
"594","null","sub_response","html-keyboard-response","257","562609","0.0-1.0-7.0-3.0-2.52","17:58:51","4","","","","","","","<div style='text-align: center;'>
                            <span style=""color: red; font-size: 40px""><b>错误！+0 pts</b></span></div>
                            ","","learn","0","0","0","learn","0","0","[0, 1, 2, 3, 4, 5, 6, 7, 8, 9]","52","5","setsize","10S10A","food","1","0","2","0",""
"null","null","fixation","html-keyboard-response","258","563112","0.0-1.0-7.0-3.0-0.53","17:58:51","4","","","","","","","fixation","","","","","","","","","","","","","","","","","","",""
"711","6","pic_response","html-keyboard-response","259","563824","0.0-1.0-7.0-3.0-1.53","17:58:51","4","","","","","","","<div>
            <img class='stim' src=""pictures/food/8.jpg""></div><div class=""button_prompt"">
                    <b>请用数字键0-9回答</b>
                    </div>","","","","","","","","","","","","","","","","","","",""
"711","null","sub_response","html-keyboard-response","260","564832","0.0-1.0-7.0-3.0-2.53","17:58:51","4","","","","","","","<div style='text-align: center;'>
                            <span style=""color: red; font-size: 40px""><b>错误！+0 pts</b></span></div>
                            ","","learn","8","8","8","learn","8","8","[0, 1, 2, 3, 4, 5, 6, 7, 8, 9]","53","5","setsize","10S10A","food","1","0","5","0",""
"null","null","fixation","html-keyboard-response","261","565339","0.0-1.0-7.0-3.0-0.54","17:58:51","4","","","","","","","fixation","","","","","","","","","","","","","","","","","","",""
"857","7","pic_response","html-keyboard-response","262","566197","0.0-1.0-7.0-3.0-1.54","17:58:51","4","","","","","","","<div>
            <img class='stim' src=""pictures/food/1.jpg""></div><div class=""button_prompt"">
                    <b>请用数字键0-9回答</b>
                    </div>","","","","","","","","","","","","","","","","","","",""
"857","null","sub_response","html-keyboard-response","263","567197","0.0-1.0-7.0-3.0-2.54","17:58:51","4","","","","","","","<div style='text-align: center;'>
                            <span style=""color: red; font-size: 40px""><b>错误！+0 pts</b></span></div>
                            ","","learn","1","1","1","learn","1","1","[0, 1, 2, 3, 4, 5, 6, 7, 8, 9]","54","5","setsize","10S10A","food","1","0","6","0",""
"null","null","fixation","html-keyboard-response","264","567706","0.0-1.0-7.0-3.0-0.55","17:58:51","4","","","","","","","fixation","","","","","","","","","","","","","","","","","","",""
"1665","5","pic_response","html-keyboard-response","265","569371","0.0-1.0-7.0-3.0-1.55","17:58:51","4","","","","","","","<div>
            <img class='stim' src=""pictures/food/5.jpg""></div><div class=""button_prompt"">
                    <b>请用数字键0-9回答</b>
                    </div>","","","","","","","","","","","","","","","","","","",""
"1665","null","sub_response","html-keyboard-response","266","570379","0.0-1.0-7.0-3.0-2.55","17:58:51","4","","","","","","","<div style='text-align: center;'>
                            <span style=""color: red; font-size: 40px""><b>错误！+0 pts</b></span></div>
                            ","","learn","5","5","5","learn","5","5","[0, 1, 2, 3, 4, 5, 6, 7, 8, 9]","55","5","setsize","10S10A","food","1","0","4","0",""
"null","null","fixation","html-keyboard-response","267","570886","0.0-1.0-7.0-3.0-0.56","17:58:51","4","","","","","","","fixation","","","","","","","","","","","","","","","","","","",""
"null","null","pic_response","html-keyboard-response","268","573887","0.0-1.0-7.0-3.0-1.56","17:58:51","4","","","","","","","<div>
            <img class='stim' src=""pictures/food/3.jpg""></div><div class=""button_prompt"">
                    <b>请用数字键0-9回答</b>
                    </div>","","","","","","","","","","","","","","","","","","",""
"null","null","sub_response","html-keyboard-response","269","574890","0.0-1.0-7.0-3.0-2.56","17:58:51","4","","","","","","","<div style='text-align: center;'>
                            <span style=""color: red; font-size: 40px""><b>错误！+0 pts</b></span></div>
                            ","","learn","3","3","3","learn","3","3","[0, 1, 2, 3, 4, 5, 6, 7, 8, 9]","56","5","setsize","10S10A","food","1","0","999","0",""
"null","null","fixation","html-keyboard-response","270","575390","0.0-1.0-7.0-3.0-0.57","17:58:51","4","","","","","","","fixation","","","","","","","","","","","","","","","","","","",""
"234","8","pic_response","html-keyboard-response","271","575630","0.0-1.0-7.0-3.0-1.57","17:58:51","4","","","","","","","<div>
            <img class='stim' src=""pictures/food/4.jpg""></div><div class=""button_prompt"">
                    <b>请用数字键0-9回答</b>
                    </div>","","","","","","","","","","","","","","","","","","",""
"234","null","sub_response","html-keyboard-response","272","576632","0.0-1.0-7.0-3.0-2.57","17:58:51","4","","","","","","","<div style='text-align: center;'>
                            <span style=""color: red; font-size: 40px""><b>错误！+0 pts</b></span></div>
                            ","","learn","4","4","4","learn","4","4","[0, 1, 2, 3, 4, 5, 6, 7, 8, 9]","57","5","setsize","10S10A","food","1","0","7","0",""
"null","null","fixation","html-keyboard-response","273","577132","0.0-1.0-7.0-3.0-0.58","17:58:51","4","","","","","","","fixation","","","","","","","","","","","","","","","","","","",""
"178","5","pic_response","html-keyboard-response","274","577311","0.0-1.0-7.0-3.0-1.58","17:58:51","4","","","","","","","<div>
            <img class='stim' src=""pictures/food/7.jpg""></div><div class=""button_prompt"">
                    <b>请用数字键0-9回答</b>
                    </div>","","","","","","","","","","","","","","","","","","",""
"178","null","sub_response","html-keyboard-response","275","578312","0.0-1.0-7.0-3.0-2.58","17:58:51","4","","","","","","","<div style='text-align: center;'>
                            <span style=""color: red; font-size: 40px""><b>错误！+0 pts</b></span></div>
                            ","","learn","7","7","7","learn","7","7","[0, 1, 2, 3, 4, 5, 6, 7, 8, 9]","58","5","setsize","10S10A","food","1","0","4","0",""
"null","null","fixation","html-keyboard-response","276","578819","0.0-1.0-7.0-3.0-0.59","17:58:51","4","","","","","","","fixation","","","","","","","","","","","","","","","","","","",""
"1589","9","pic_response","html-keyboard-response","277","580408","0.0-1.0-7.0-3.0-1.59","17:58:51","4","","","","","","","<div>
            <img class='stim' src=""pictures/food/2.jpg""></div><div class=""button_prompt"">
                    <b>请用数字键0-9回答</b>
                    </div>","","","","","","","","","","","","","","","","","","",""
"1589","null","sub_response","html-keyboard-response","278","581410","0.0-1.0-7.0-3.0-2.59","17:58:51","4","","","","","","","<div style='text-align: center;'>
                            <span style=""color: red; font-size: 40px""><b>错误！+0 pts</b></span></div>
                            ","","learn","2","2","2","learn","2","2","[0, 1, 2, 3, 4, 5, 6, 7, 8, 9]","59","5","setsize","10S10A","food","1","0","8","0",""
"null","null","fixation","html-keyboard-response","279","581911","0.0-1.0-7.0-3.0-0.60","17:58:51","4","","","","","","","fixation","","","","","","","","","","","","","","","","","","",""
"356","8","pic_response","html-keyboard-response","280","582267","0.0-1.0-7.0-3.0-1.60","17:58:51","4","","","","","","","<div>
            <img class='stim' src=""pictures/food/3.jpg""></div><div class=""button_prompt"">
                    <b>请用数字键0-9回答</b>
                    </div>","","","","","","","","","","","","","","","","","","",""
"356","null","sub_response","html-keyboard-response","281","583268","0.0-1.0-7.0-3.0-2.60","17:58:51","4","","","","","","","<div style='text-align: center;'>
                            <span style=""color: red; font-size: 40px""><b>错误！+0 pts</b></span></div>
                            ","","learn","3","3","3","learn","3","3","[0, 1, 2, 3, 4, 5, 6, 7, 8, 9]","60","6","setsize","10S10A","food","1","0","7","0",""
"null","null","fixation","html-keyboard-response","282","583770","0.0-1.0-7.0-3.0-0.61","17:58:51","4","","","","","","","fixation","","","","","","","","","","","","","","","","","","",""
"738","3","pic_response","html-keyboard-response","283","584509","0.0-1.0-7.0-3.0-1.61","17:58:51","4","","","","","","","<div>
            <img class='stim' src=""pictures/food/0.jpg""></div><div class=""button_prompt"">
                    <b>请用数字键0-9回答</b>
                    </div>","","","","","","","","","","","","","","","","","","",""
"738","null","sub_response","html-keyboard-response","284","585510","0.0-1.0-7.0-3.0-2.61","17:58:51","4","","","","","","","<div style='text-align: center;'>
                            <span style=""color: red; font-size: 40px""><b>错误！+0 pts</b></span></div>
                            ","","learn","0","0","0","learn","0","0","[0, 1, 2, 3, 4, 5, 6, 7, 8, 9]","61","6","setsize","10S10A","food","1","0","2","0",""
"null","null","fixation","html-keyboard-response","285","586012","0.0-1.0-7.0-3.0-0.62","17:58:51","4","","","","","","","fixation","","","","","","","","","","","","","","","","","","",""
"28","5","pic_response","html-keyboard-response","286","586040","0.0-1.0-7.0-3.0-1.62","17:58:51","4","","","","","","","<div>
            <img class='stim' src=""pictures/food/1.jpg""></div><div class=""button_prompt"">
                    <b>请用数字键0-9回答</b>
                    </div>","","","","","","","","","","","","","","","","","","",""
"28","null","sub_response","html-keyboard-response","287","587042","0.0-1.0-7.0-3.0-2.62","17:58:51","4","","","","","","","<div style='text-align: center;'>
                            <span style=""color: red; font-size: 40px""><b>错误！+0 pts</b></span></div>
                            ","","learn","1","1","1","learn","1","1","[0, 1, 2, 3, 4, 5, 6, 7, 8, 9]","62","6","setsize","10S10A","food","1","0","4","0",""
"null","null","fixation","html-keyboard-response","288","587543","0.0-1.0-7.0-3.0-0.63","17:58:51","4","","","","","","","fixation","","","","","","","","","","","","","","","","","","",""
"333","4","pic_response","html-keyboard-response","289","587882","0.0-1.0-7.0-3.0-1.63","17:58:51","4","","","","","","","<div>
            <img class='stim' src=""pictures/food/8.jpg""></div><div class=""button_prompt"">
                    <b>请用数字键0-9回答</b>
                    </div>","","","","","","","","","","","","","","","","","","",""
"333","null","sub_response","html-keyboard-response","290","588882","0.0-1.0-7.0-3.0-2.63","17:58:51","4","","","","","","","<div style='text-align: center;'>
                            <span style=""color: red; font-size: 40px""><b>错误！+0 pts</b></span></div>
                            ","","learn","8","8","8","learn","8","8","[0, 1, 2, 3, 4, 5, 6, 7, 8, 9]","63","6","setsize","10S10A","food","1","0","3","0",""
"null","null","fixation","html-keyboard-response","291","589387","0.0-1.0-7.0-3.0-0.64","17:58:51","4","","","","","","","fixation","","","","","","","","","","","","","","","","","","",""
"979","9","pic_response","html-keyboard-response","292","590367","0.0-1.0-7.0-3.0-1.64","17:58:51","4","","","","","","","<div>
            <img class='stim' src=""pictures/food/6.jpg""></div><div class=""button_prompt"">
                    <b>请用数字键0-9回答</b>
                    </div>","","","","","","","","","","","","","","","","","","",""
"979","null","sub_response","html-keyboard-response","293","591368","0.0-1.0-7.0-3.0-2.64","17:58:51","4","","","","","","","<div style='text-align: center;'>
                            <span style=""color: red; font-size: 40px""><b>错误！+0 pts</b></span></div>
                            ","","learn","6","6","6","learn","6","6","[0, 1, 2, 3, 4, 5, 6, 7, 8, 9]","64","6","setsize","10S10A","food","1","0","8","0",""
"null","null","fixation","html-keyboard-response","294","591876","0.0-1.0-7.0-3.0-0.65","17:58:51","4","","","","","","","fixation","","","","","","","","","","","","","","","","","","",""
"1056","3","pic_response","html-keyboard-response","295","592933","0.0-1.0-7.0-3.0-1.65","17:58:51","4","","","","","","","<div>
            <img class='stim' src=""pictures/food/2.jpg""></div><div class=""button_prompt"">
                    <b>请用数字键0-9回答</b>
                    </div>","","","","","","","","","","","","","","","","","","",""
"1056","null","sub_response","html-keyboard-response","296","593933","0.0-1.0-7.0-3.0-2.65","17:58:51","4","","","","","","","<div style='text-align: center;'>
                            <span style=""color: green; font-size: 40px""><b>正确！+1 pts</b></span></div>
                            ","","learn","2","2","2","learn","2","2","[0, 1, 2, 3, 4, 5, 6, 7, 8, 9]","65","6","setsize","10S10A","food","1","1","2","1",""
"null","null","fixation","html-keyboard-response","297","594435","0.0-1.0-7.0-3.0-0.66","17:58:51","4","","","","","","","fixation","","","","","","","","","","","","","","","","","","",""
"1744","9","pic_response","html-keyboard-response","298","596179","0.0-1.0-7.0-3.0-1.66","17:58:51","4","","","","","","","<div>
            <img class='stim' src=""pictures/food/9.jpg""></div><div class=""button_prompt"">
                    <b>请用数字键0-9回答</b>
                    </div>","","","","","","","","","","","","","","","","","","",""
"1744","null","sub_response","html-keyboard-response","299","597180","0.0-1.0-7.0-3.0-2.66","17:58:51","4","","","","","","","<div style='text-align: center;'>
                            <span style=""color: red; font-size: 40px""><b>错误！+0 pts</b></span></div>
                            ","","learn","9","9","9","learn","9","9","[0, 1, 2, 3, 4, 5, 6, 7, 8, 9]","66","6","setsize","10S10A","food","1","0","8","0",""
"null","null","fixation","html-keyboard-response","300","597682","0.0-1.0-7.0-3.0-0.67","17:58:51","4","","","","","","","fixation","","","","","","","","","","","","","","","","","","",""
"1245","9","pic_response","html-keyboard-response","301","598927","0.0-1.0-7.0-3.0-1.67","17:58:51","4","","","","","","","<div>
            <img class='stim' src=""pictures/food/7.jpg""></div><div class=""button_prompt"">
                    <b>请用数字键0-9回答</b>
                    </div>","","","","","","","","","","","","","","","","","","",""
"1245","null","sub_response","html-keyboard-response","302","599929","0.0-1.0-7.0-3.0-2.67","17:58:51","4","","","","","","","<div style='text-align: center;'>
                            <span style=""color: red; font-size: 40px""><b>错误！+0 pts</b></span></div>
                            ","","learn","7","7","7","learn","7","7","[0, 1, 2, 3, 4, 5, 6, 7, 8, 9]","67","6","setsize","10S10A","food","1","0","8","0",""
"null","null","fixation","html-keyboard-response","303","600437","0.0-1.0-7.0-3.0-0.68","17:58:51","4","","","","","","","fixation","","","","","","","","","","","","","","","","","","",""
"442","7","pic_response","html-keyboard-response","304","600879","0.0-1.0-7.0-3.0-1.68","17:58:51","4","","","","","","","<div>
            <img class='stim' src=""pictures/food/5.jpg""></div><div class=""button_prompt"">
                    <b>请用数字键0-9回答</b>
                    </div>","","","","","","","","","","","","","","","","","","",""
"442","null","sub_response","html-keyboard-response","305","601883","0.0-1.0-7.0-3.0-2.68","17:58:51","4","","","","","","","<div style='text-align: center;'>
                            <span style=""color: red; font-size: 40px""><b>错误！+0 pts</b></span></div>
                            ","","learn","5","5","5","learn","5","5","[0, 1, 2, 3, 4, 5, 6, 7, 8, 9]","68","6","setsize","10S10A","food","1","0","6","0",""
"null","null","fixation","html-keyboard-response","306","602384","0.0-1.0-7.0-3.0-0.69","17:58:51","4","","","","","","","fixation","","","","","","","","","","","","","","","","","","",""
"1250","6","pic_response","html-keyboard-response","307","603635","0.0-1.0-7.0-3.0-1.69","17:58:51","4","","","","","","","<div>
            <img class='stim' src=""pictures/food/4.jpg""></div><div class=""button_prompt"">
                    <b>请用数字键0-9回答</b>
                    </div>","","","","","","","","","","","","","","","","","","",""
"1250","null","sub_response","html-keyboard-response","308","604637","0.0-1.0-7.0-3.0-2.69","17:58:51","4","","","","","","","<div style='text-align: center;'>
                            <span style=""color: red; font-size: 40px""><b>错误！+0 pts</b></span></div>
                            ","","learn","4","4","4","learn","4","4","[0, 1, 2, 3, 4, 5, 6, 7, 8, 9]","69","6","setsize","10S10A","food","1","0","5","0",""
"null","null","fixation","html-keyboard-response","309","605142","0.0-1.0-7.0-3.0-0.70","17:58:51","4","","","","","","","fixation","","","","","","","","","","","","","","","","","","",""
"598","8","pic_response","html-keyboard-response","310","605742","0.0-1.0-7.0-3.0-1.70","17:58:51","4","","","","","","","<div>
            <img class='stim' src=""pictures/food/6.jpg""></div><div class=""button_prompt"">
                    <b>请用数字键0-9回答</b>
                    </div>","","","","","","","","","","","","","","","","","","",""
"598","null","sub_response","html-keyboard-response","311","606742","0.0-1.0-7.0-3.0-2.70","17:58:51","4","","","","","","","<div style='text-align: center;'>
                            <span style=""color: red; font-size: 40px""><b>错误！+0 pts</b></span></div>
                            ","","learn","6","6","6","learn","6","6","[0, 1, 2, 3, 4, 5, 6, 7, 8, 9]","70","7","setsize","10S10A","food","1","0","7","0",""
"null","null","fixation","html-keyboard-response","312","607243","0.0-1.0-7.0-3.0-0.71","17:58:51","4","","","","","","","fixation","","","","","","","","","","","","","","","","","","",""
"387","2","pic_response","html-keyboard-response","313","607631","0.0-1.0-7.0-3.0-1.71","17:58:51","4","","","","","","","<div>
            <img class='stim' src=""pictures/food/8.jpg""></div><div class=""button_prompt"">
                    <b>请用数字键0-9回答</b>
                    </div>","","","","","","","","","","","","","","","","","","",""
"387","null","sub_response","html-keyboard-response","314","608632","0.0-1.0-7.0-3.0-2.71","17:58:51","4","","","","","","","<div style='text-align: center;'>
                            <span style=""color: red; font-size: 40px""><b>错误！+0 pts</b></span></div>
                            ","","learn","8","8","8","learn","8","8","[0, 1, 2, 3, 4, 5, 6, 7, 8, 9]","71","7","setsize","10S10A","food","1","0","1","0",""
"null","null","fixation","html-keyboard-response","315","609140","0.0-1.0-7.0-3.0-0.72","17:58:51","4","","","","","","","fixation","","","","","","","","","","","","","","","","","","",""
"716","9","pic_response","html-keyboard-response","316","609856","0.0-1.0-7.0-3.0-1.72","17:58:51","4","","","","","","","<div>
            <img class='stim' src=""pictures/food/0.jpg""></div><div class=""button_prompt"">
                    <b>请用数字键0-9回答</b>
                    </div>","","","","","","","","","","","","","","","","","","",""
"716","null","sub_response","html-keyboard-response","317","610863","0.0-1.0-7.0-3.0-2.72","17:58:51","4","","","","","","","<div style='text-align: center;'>
                            <span style=""color: red; font-size: 40px""><b>错误！+0 pts</b></span></div>
                            ","","learn","0","0","0","learn","0","0","[0, 1, 2, 3, 4, 5, 6, 7, 8, 9]","72","7","setsize","10S10A","food","1","0","8","0",""
"null","null","fixation","html-keyboard-response","318","611365","0.0-1.0-7.0-3.0-0.73","17:58:51","4","","","","","","","fixation","","","","","","","","","","","","","","","","","","",""
"1396","6","pic_response","html-keyboard-response","319","612767","0.0-1.0-7.0-3.0-1.73","17:58:51","4","","","","","","","<div>
            <img class='stim' src=""pictures/food/9.jpg""></div><div class=""button_prompt"">
                    <b>请用数字键0-9回答</b>
                    </div>","","","","","","","","","","","","","","","","","","",""
