"rt","response","screen_id","trial_type","trial_index","time_elapsed","internal_node_id","start_time","n_Prac","success","timeout","failed_images","failed_audio","failed_video","view_history","stimulus","question_order","stage","s","word","word_id","phase","a_cor","a_real","a_ava","trial","tps","task_type","block_typ","pic_typ","block_id","cum_r","a","r","plugin_name"
"35805","{""sub_id"":""111"",""task_type"":""task1"",""name"":""钟鸣祥"",""gender"":""M""}","basic_info","survey-html-form","0","35807","0.0-0.0","17:55:39","2","","","","","","","","","","","","","","","","","","","","","","","","","",""
"","","","preload","1","36109","0.0-1.0-0.0","17:55:39","2","true","false","[]","[]","[]","","","","","","","","","","","","","","","","","","","","",""
"","","","preload","2","36183","0.0-1.0-1.0","17:55:39","2","true","false","[]","[]","[]","","","","","","","","","","","","","","","","","","","","",""
"","","","fullscreen","3","39613","0.0-1.0-2.0","17:55:39","2","true","","","","","","","","","","","","","","","","","","","","","","","","",""
"154218","","instruct","instructions","4","193831","0.0-1.0-3.0-0.0","17:55:39","2","","","","","","[{""page_index"":0,""viewing_time"":4326},{""page_index"":1,""viewing_time"":86793},{""page_index"":2,""viewing_time"":63099}]","","","","","","","","","","","","","","","","","","","",""
"61350","{""Q0"":"""",""task1"":""<span style='font-size: 24px'>学习图片和数字的对应关系</span>"",""task2"":""<span style='font-size: 24px'> 图片下方标注为可用的数字键（数字键1-3或0-9） </span>"",""task3"":""<span style='font-size: 24px'> 看到图片选出正确对应的数字 </span>""}","question","survey-multi-choice","5","255184","0.0-1.0-3.0-1.0","17:55:39","2","","","","","","","","[0,1,2,3]","","","","","","","","","","","","","","","","","",""
"4789"," ","inst_q","html-keyboard-response","6","259974","0.0-1.0-3.0-2.0","17:55:39","2","","","","","","","inst","","1","","","","","","","","","","","","","","","","",""
"","","","preload","7","260285","0.0-1.0-4.0-0.0","17:55:39","2","true","false","[]","[]","[]","","","","","","","","","","","","","","","","","","","","",""
"14105"," ","","html-keyboard-response","8","274391","0.0-1.0-4.0-1.0","17:55:39","2","","","","","","","<div style='font-size: 32px; text-align: center;'
                    <p>请学习图片和数字之间的对应关系</p>
                    <p>我们将<span style='color: blue'><b> 告诉 </b></span>您选择的对错。请根据反馈学习。</p>
                    <p>请按""空格""继续实验。</p></div>","","","","","","","","","","","","","","","","","","",""
"4672"," ","inst","html-keyboard-response","9","279063","0.0-1.0-4.0-2.0","17:55:39","2","","","","","","","<img class='instruct_stim' src=""instruction/prac3.PNG""></div>","","","","","","","","","","","","","","","","","","",""
"null","null","fixation","html-keyboard-response","10","279564","0.0-1.0-4.0-3.0-0.0","17:55:39","2","","","","","","","fixation","","","","","","","","","","","","","","","","","","",""
"1377","1","pic_response","html-keyboard-response","11","280942","0.0-1.0-4.0-3.0-1.0","17:55:39","2","","","","","","","<div>
            <img class='stim' src=""pictures/prac/0.jpg""></div><div class=""button_prompt"">
                        <b>请用数字键1-3回答</b>
                        </div>","","","","","","","","","","","","","","","","","","",""
"1377","null","sub_response","html-keyboard-response","12","281943","0.0-1.0-4.0-3.0-2.0","17:55:39","2","","","","","","","<div style='text-align: center;'>
                            <span style=""color: green; font-size: 40px""><b>正确！+1 pts</b></span></div>
                            ","","learn","0","0","0","learn","0","0","[0, 1, 2]","0","0","setsize","99","prac","0","1","0","1",""
"null","null","fixation","html-keyboard-response","13","282457","0.0-1.0-4.0-3.0-0.1","17:55:39","2","","","","","","","fixation","","","","","","","","","","","","","","","","","","",""
"540","1","pic_response","html-keyboard-response","14","282998","0.0-1.0-4.0-3.0-1.1","17:55:39","2","","","","","","","<div>
            <img class='stim' src=""pictures/prac/1.jpg""></div><div class=""button_prompt"">
                        <b>请用数字键1-3回答</b>
                        </div>","","","","","","","","","","","","","","","","","","",""
"540","null","sub_response","html-keyboard-response","15","283999","0.0-1.0-4.0-3.0-2.1","17:55:39","2","","","","","","","<div style='text-align: center;'>
                            <span style=""color: green; font-size: 40px""><b>正确！+1 pts</b></span></div>
                            ","","learn","1","1","1","learn","0","0","[0, 1, 2]","1","0","setsize","99","prac","0","2","0","1",""
"null","null","fixation","html-keyboard-response","16","284500","0.0-1.0-4.0-3.0-0.2","17:55:39","2","","","","","","","fixation","","","","","","","","","","","","","","","","","","",""
"395","1","pic_response","html-keyboard-response","17","284896","0.0-1.0-4.0-3.0-1.2","17:55:39","2","","","","","","","<div>
            <img class='stim' src=""pictures/prac/2.jpg""></div><div class=""button_prompt"">
                        <b>请用数字键1-3回答</b>
                        </div>","","","","","","","","","","","","","","","","","","",""
"395","null","sub_response","html-keyboard-response","18","285897","0.0-1.0-4.0-3.0-2.2","17:55:39","2","","","","","","","<div style='text-align: center;'>
                            <span style=""color: red; font-size: 40px""><b>错误！+0 pts</b></span></div>
                            ","","learn","2","2","2","learn","2","2","[0, 1, 2]","2","0","setsize","99","prac","0","0","0","0",""
"null","null","fixation","html-keyboard-response","19","286398","0.0-1.0-4.0-3.0-0.3","17:55:39","2","","","","","","","fixation","","","","","","","","","","","","","","","","","","",""
"704","1","pic_response","html-keyboard-response","20","287102","0.0-1.0-4.0-3.0-1.3","17:55:39","2","","","","","","","<div>
            <img class='stim' src=""pictures/prac/1.jpg""></div><div class=""button_prompt"">
                        <b>请用数字键1-3回答</b>
                        </div>","","","","","","","","","","","","","","","","","","",""
"704","null","sub_response","html-keyboard-response","21","288105","0.0-1.0-4.0-3.0-2.3","17:55:39","2","","","","","","","<div style='text-align: center;'>
                            <span style=""color: green; font-size: 40px""><b>正确！+1 pts</b></span></div>
                            ","","learn","1","1","1","learn","0","0","[0, 1, 2]","3","1","setsize","99","prac","0","1","0","1",""
"null","null","fixation","html-keyboard-response","22","288607","0.0-1.0-4.0-3.0-0.4","17:55:39","2","","","","","","","fixation","","","","","","","","","","","","","","","","","","",""
"576","1","pic_response","html-keyboard-response","23","289183","0.0-1.0-4.0-3.0-1.4","17:55:39","2","","","","","","","<div>
            <img class='stim' src=""pictures/prac/0.jpg""></div><div class=""button_prompt"">
                        <b>请用数字键1-3回答</b>
                        </div>","","","","","","","","","","","","","","","","","","",""
"576","null","sub_response","html-keyboard-response","24","290185","0.0-1.0-4.0-3.0-2.4","17:55:39","2","","","","","","","<div style='text-align: center;'>
                            <span style=""color: green; font-size: 40px""><b>正确！+1 pts</b></span></div>
                            ","","learn","0","0","0","learn","0","0","[0, 1, 2]","4","1","setsize","99","prac","0","2","0","1",""
"null","null","fixation","html-keyboard-response","25","290686","0.0-1.0-4.0-3.0-0.5","17:55:39","2","","","","","","","fixation","","","","","","","","","","","","","","","","","","",""
"729","2","pic_response","html-keyboard-response","26","291415","0.0-1.0-4.0-3.0-1.5","17:55:39","2","","","","","","","<div>
            <img class='stim' src=""pictures/prac/2.jpg""></div><div class=""button_prompt"">
                        <b>请用数字键1-3回答</b>
                        </div>","","","","","","","","","","","","","","","","","","",""
"729","null","sub_response","html-keyboard-response","27","292416","0.0-1.0-4.0-3.0-2.5","17:55:39","2","","","","","","","<div style='text-align: center;'>
                            <span style=""color: red; font-size: 40px""><b>错误！+0 pts</b></span></div>
                            ","","learn","2","2","2","learn","2","2","[0, 1, 2]","5","1","setsize","99","prac","0","0","1","0",""
"","","","preload","28","292419","0.0-1.0-4.1-0.1","17:55:39","2","true","false","[]","[]","[]","","","","","","","","","","","","","","","","","","","","",""
"1115"," ","","html-keyboard-response","29","293534","0.0-1.0-4.1-1.1","17:55:39","2","","","","","","","<div style='font-size: 32px; text-align: center;'
                    <p>请学习图片和数字之间的对应关系</p>
                    <p>我们将<span style='color: blue'><b> 告诉 </b></span>您选择的对错。请根据反馈学习。</p>
                    <p>请按""空格""继续实验。</p></div>","","","","","","","","","","","","","","","","","","",""
"1016"," ","inst","html-keyboard-response","30","294551","0.0-1.0-4.1-2.1","17:55:39","2","","","","","","","<img class='instruct_stim' src=""instruction/prac3.PNG""></div>","","","","","","","","","","","","","","","","","","",""
"null","null","fixation","html-keyboard-response","31","295052","0.0-1.0-4.1-3.1-0.6","17:55:39","2","","","","","","","fixation","","","","","","","","","","","","","","","","","","",""
"578","1","pic_response","html-keyboard-response","32","295631","0.0-1.0-4.1-3.1-1.6","17:55:39","2","","","","","","","<div>
            <img class='stim' src=""pictures/prac/0.jpg""></div><div class=""button_prompt"">
                        <b>请用数字键1-3回答</b>
                        </div>","","","","","","","","","","","","","","","","","","",""
"578","null","sub_response","html-keyboard-response","33","296632","0.0-1.0-4.1-3.1-2.6","17:55:39","2","","","","","","","<div style='text-align: center;'>
                            <span style=""color: green; font-size: 40px""><b>正确！+1 pts</b></span></div>
                            ","","learn","0","0","0","learn","0","0","[0, 1, 2]","0","0","setsize","99","prac","0","1","0","1",""
"null","null","fixation","html-keyboard-response","34","297133","0.0-1.0-4.1-3.1-0.7","17:55:39","2","","","","","","","fixation","","","","","","","","","","","","","","","","","","",""
"784","1","pic_response","html-keyboard-response","35","297918","0.0-1.0-4.1-3.1-1.7","17:55:39","2","","","","","","","<div>
            <img class='stim' src=""pictures/prac/1.jpg""></div><div class=""button_prompt"">
                        <b>请用数字键1-3回答</b>
                        </div>","","","","","","","","","","","","","","","","","","",""
"784","null","sub_response","html-keyboard-response","36","298920","0.0-1.0-4.1-3.1-2.7","17:55:39","2","","","","","","","<div style='text-align: center;'>
                            <span style=""color: green; font-size: 40px""><b>正确！+1 pts</b></span></div>
                            ","","learn","1","1","1","learn","0","0","[0, 1, 2]","1","0","setsize","99","prac","0","2","0","1",""
"null","null","fixation","html-keyboard-response","37","299421","0.0-1.0-4.1-3.1-0.8","17:55:39","2","","","","","","","fixation","","","","","","","","","","","","","","","","","","",""
"625","3","pic_response","html-keyboard-response","38","300046","0.0-1.0-4.1-3.1-1.8","17:55:39","2","","","","","","","<div>
            <img class='stim' src=""pictures/prac/2.jpg""></div><div class=""button_prompt"">
                        <b>请用数字键1-3回答</b>
                        </div>","","","","","","","","","","","","","","","","","","",""
"625","null","sub_response","html-keyboard-response","39","301048","0.0-1.0-4.1-3.1-2.8","17:55:39","2","","","","","","","<div style='text-align: center;'>
                            <span style=""color: green; font-size: 40px""><b>正确！+1 pts</b></span></div>
                            ","","learn","2","2","2","learn","2","2","[0, 1, 2]","2","0","setsize","99","prac","0","3","2","1",""
"null","null","fixation","html-keyboard-response","40","301549","0.0-1.0-4.1-3.1-0.9","17:55:39","2","","","","","","","fixation","","","","","","","","","","","","","","","","","","",""
"505","1","pic_response","html-keyboard-response","41","302055","0.0-1.0-4.1-3.1-1.9","17:55:39","2","","","","","","","<div>
            <img class='stim' src=""pictures/prac/1.jpg""></div><div class=""button_prompt"">
                        <b>请用数字键1-3回答</b>
                        </div>","","","","","","","","","","","","","","","","","","",""
"505","null","sub_response","html-keyboard-response","42","303056","0.0-1.0-4.1-3.1-2.9","17:55:39","2","","","","","","","<div style='text-align: center;'>
                            <span style=""color: green; font-size: 40px""><b>正确！+1 pts</b></span></div>
                            ","","learn","1","1","1","learn","0","0","[0, 1, 2]","3","1","setsize","99","prac","0","4","0","1",""
"null","null","fixation","html-keyboard-response","43","303557","0.0-1.0-4.1-3.1-0.10","17:55:39","2","","","","","","","fixation","","","","","","","","","","","","","","","","","","",""
"387","1","pic_response","html-keyboard-response","44","303944","0.0-1.0-4.1-3.1-1.10","17:55:39","2","","","","","","","<div>
            <img class='stim' src=""pictures/prac/0.jpg""></div><div class=""button_prompt"">
                        <b>请用数字键1-3回答</b>
                        </div>","","","","","","","","","","","","","","","","","","",""
"387","null","sub_response","html-keyboard-response","45","304946","0.0-1.0-4.1-3.1-2.10","17:55:39","2","","","","","","","<div style='text-align: center;'>
                            <span style=""color: green; font-size: 40px""><b>正确！+1 pts</b></span></div>
                            ","","learn","0","0","0","learn","0","0","[0, 1, 2]","4","1","setsize","99","prac","0","5","0","1",""
"null","null","fixation","html-keyboard-response","46","305448","0.0-1.0-4.1-3.1-0.11","17:55:39","2","","","","","","","fixation","","","","","","","","","","","","","","","","","","",""
"841","3","pic_response","html-keyboard-response","47","306289","0.0-1.0-4.1-3.1-1.11","17:55:39","2","","","","","","","<div>
            <img class='stim' src=""pictures/prac/2.jpg""></div><div class=""button_prompt"">
                        <b>请用数字键1-3回答</b>
                        </div>","","","","","","","","","","","","","","","","","","",""
"841","null","sub_response","html-keyboard-response","48","307290","0.0-1.0-4.1-3.1-2.11","17:55:39","2","","","","","","","<div style='text-align: center;'>
                            <span style=""color: green; font-size: 40px""><b>正确！+1 pts</b></span></div>
                            ","","learn","2","2","2","learn","2","2","[0, 1, 2]","5","1","setsize","99","prac","0","6","2","1",""
"30789"," ","","html-keyboard-response","49","338079","0.0-1.0-5.0","17:55:39","2","","","","","","","<div style=""font-size: 25px""><p>距下一个实验开始还有</p><div style=""font-size: 50px; color: blue""><p><span id=""clock"">1:00</span></div></p><p>按""空格""跳过休息</p></div>","","","","","","","","","","","","","","","","","","",""
"1303"," ","","html-keyboard-response","50","339382","0.0-1.0-6.0","17:55:39","2","","","","","","","<div style='font-size: 32px; text-align: center;'
                    <p>请按""空格""继续正式实验。</p></div>","","","","","","","","","","","","","","","","","","",""
"","","","preload","51","339734","0.0-1.0-7.0-0.0","17:55:39","2","true","false","[]","[]","[]","","","","","","","","","","","","","","","","","","","","",""
"1745"," ","","html-keyboard-response","52","341479","0.0-1.0-7.0-1.0","17:55:39","2","","","","","","","<div style='font-size: 32px; text-align: center;'
                    <p>请学习图片和数字之间的对应关系</p>
                    <p>我们将<span style='color: blue'><b> 告诉 </b></span>您选择的对错。请根据反馈学习。</p>
                    <p>请按""空格""继续实验。</p></div>","","","","","","","","","","","","","","","","","","",""
"6142"," ","inst","html-keyboard-response","53","347622","0.0-1.0-7.0-2.0","17:55:39","2","","","","","","","<img class='instruct_stim' src=""instruction/furniture10.PNG""></div>","","","","","","","","","","","","","","","","","","",""
"null","null","fixation","html-keyboard-response","54","348124","0.0-1.0-7.0-3.0-0.0","17:55:39","2","","","","","","","fixation","","","","","","","","","","","","","","","","","","",""
"1355","0","pic_response","html-keyboard-response","55","349479","0.0-1.0-7.0-3.0-1.0","17:55:39","2","","","","","","","<div>
            <img class='stim' src=""pictures/furniture/1.jpg""></div><div class=""button_prompt"">
                    <b>请用数字键0-9回答</b>
                    </div>","","","","","","","","","","","","","","","","","","",""
"1355","null","sub_response","html-keyboard-response","56","350481","0.0-1.0-7.0-3.0-2.0","17:55:39","2","","","","","","","<div style='text-align: center;'>
                            <span style=""color: red; font-size: 40px""><b>错误！+0 pts</b></span></div>
                            ","","learn","1","1","1","learn","1","1","[0, 1, 2, 3, 4, 5, 6, 7, 8, 9]","0","0","setsize","10S10A","furniture","1","0","9","0",""
"null","null","fixation","html-keyboard-response","57","350982","0.0-1.0-7.0-3.0-0.1","17:55:39","2","","","","","","","fixation","","","","","","","","","","","","","","","","","","",""
"815","0","pic_response","html-keyboard-response","58","351798","0.0-1.0-7.0-3.0-1.1","17:55:39","2","","","","","","","<div>
            <img class='stim' src=""pictures/furniture/4.jpg""></div><div class=""button_prompt"">
                    <b>请用数字键0-9回答</b>
                    </div>","","","","","","","","","","","","","","","","","","",""
"815","null","sub_response","html-keyboard-response","59","352799","0.0-1.0-7.0-3.0-2.1","17:55:39","2","","","","","","","<div style='text-align: center;'>
                            <span style=""color: red; font-size: 40px""><b>错误！+0 pts</b></span></div>
                            ","","learn","4","4","4","learn","4","4","[0, 1, 2, 3, 4, 5, 6, 7, 8, 9]","1","0","setsize","10S10A","furniture","1","0","9","0",""
"null","null","fixation","html-keyboard-response","60","353300","0.0-1.0-7.0-3.0-0.2","17:55:39","2","","","","","","","fixation","","","","","","","","","","","","","","","","","","",""
"708","0","pic_response","html-keyboard-response","61","354009","0.0-1.0-7.0-3.0-1.2","17:55:39","2","","","","","","","<div>
            <img class='stim' src=""pictures/furniture/9.jpg""></div><div class=""button_prompt"">
                    <b>请用数字键0-9回答</b>
                    </div>","","","","","","","","","","","","","","","","","","",""
"708","null","sub_response","html-keyboard-response","62","355020","0.0-1.0-7.0-3.0-2.2","17:55:39","2","","","","","","","<div style='text-align: center;'>
                            <span style=""color: green; font-size: 40px""><b>正确！+1 pts</b></span></div>
                            ","","learn","9","9","9","learn","9","9","[0, 1, 2, 3, 4, 5, 6, 7, 8, 9]","2","0","setsize","10S10A","furniture","1","1","9","1",""
"null","null","fixation","html-keyboard-response","63","355522","0.0-1.0-7.0-3.0-0.3","17:55:39","2","","","","","","","fixation","","","","","","","","","","","","","","","","","","",""
"604","1","pic_response","html-keyboard-response","64","356126","0.0-1.0-7.0-3.0-1.3","17:55:39","2","","","","","","","<div>
            <img class='stim' src=""pictures/furniture/8.jpg""></div><div class=""button_prompt"">
                    <b>请用数字键0-9回答</b>
                    </div>","","","","","","","","","","","","","","","","","","",""
"604","null","sub_response","html-keyboard-response","65","357128","0.0-1.0-7.0-3.0-2.3","17:55:39","2","","","","","","","<div style='text-align: center;'>
                            <span style=""color: red; font-size: 40px""><b>错误！+0 pts</b></span></div>
                            ","","learn","8","8","8","learn","8","8","[0, 1, 2, 3, 4, 5, 6, 7, 8, 9]","3","0","setsize","10S10A","furniture","1","0","0","0",""
"null","null","fixation","html-keyboard-response","66","357630","0.0-1.0-7.0-3.0-0.4","17:55:39","2","","","","","","","fixation","","","","","","","","","","","","","","","","","","",""
"577","2","pic_response","html-keyboard-response","67","358207","0.0-1.0-7.0-3.0-1.4","17:55:39","2","","","","","","","<div>
            <img class='stim' src=""pictures/furniture/6.jpg""></div><div class=""button_prompt"">
                    <b>请用数字键0-9回答</b>
                    </div>","","","","","","","","","","","","","","","","","","",""
"577","null","sub_response","html-keyboard-response","68","359209","0.0-1.0-7.0-3.0-2.4","17:55:39","2","","","","","","","<div style='text-align: center;'>
                            <span style=""color: red; font-size: 40px""><b>错误！+0 pts</b></span></div>
                            ","","learn","6","6","6","learn","6","6","[0, 1, 2, 3, 4, 5, 6, 7, 8, 9]","4","0","setsize","10S10A","furniture","1","0","1","0",""
"null","null","fixation","html-keyboard-response","69","359710","0.0-1.0-7.0-3.0-0.5","17:55:39","2","","","","","","","fixation","","","","","","","","","","","","","","","","","","",""
"865","3","pic_response","html-keyboard-response","70","360575","0.0-1.0-7.0-3.0-1.5","17:55:39","2","","","","","","","<div>
            <img class='stim' src=""pictures/furniture/5.jpg""></div><div class=""button_prompt"">
                    <b>请用数字键0-9回答</b>
                    </div>","","","","","","","","","","","","","","","","","","",""
"865","null","sub_response","html-keyboard-response","71","361576","0.0-1.0-7.0-3.0-2.5","17:55:39","2","","","","","","","<div style='text-align: center;'>
                            <span style=""color: red; font-size: 40px""><b>错误！+0 pts</b></span></div>
                            ","","learn","5","5","5","learn","5","5","[0, 1, 2, 3, 4, 5, 6, 7, 8, 9]","5","0","setsize","10S10A","furniture","1","0","2","0",""
"null","null","fixation","html-keyboard-response","72","362078","0.0-1.0-7.0-3.0-0.6","17:55:39","2","","","","","","","fixation","","","","","","","","","","","","","","","","","","",""
"1015","1","pic_response","html-keyboard-response","73","363093","0.0-1.0-7.0-3.0-1.6","17:55:39","2","","","","","","","<div>
            <img class='stim' src=""pictures/furniture/0.jpg""></div><div class=""button_prompt"">
                    <b>请用数字键0-9回答</b>
                    </div>","","","","","","","","","","","","","","","","","","",""
"1015","null","sub_response","html-keyboard-response","74","364096","0.0-1.0-7.0-3.0-2.6","17:55:39","2","","","","","","","<div style='text-align: center;'>
                            <span style=""color: green; font-size: 40px""><b>正确！+1 pts</b></span></div>
                            ","","learn","0","0","0","learn","0","0","[0, 1, 2, 3, 4, 5, 6, 7, 8, 9]","6","0","setsize","10S10A","furniture","1","1","0","1",""
"null","null","fixation","html-keyboard-response","75","364597","0.0-1.0-7.0-3.0-0.7","17:55:39","2","","","","","","","fixation","","","","","","","","","","","","","","","","","","",""
"961","2","pic_response","html-keyboard-response","76","365558","0.0-1.0-7.0-3.0-1.7","17:55:39","2","","","","","","","<div>
            <img class='stim' src=""pictures/furniture/2.jpg""></div><div class=""button_prompt"">
                    <b>请用数字键0-9回答</b>
                    </div>","","","","","","","","","","","","","","","","","","",""
"961","null","sub_response","html-keyboard-response","77","366560","0.0-1.0-7.0-3.0-2.7","17:55:39","2","","","","","","","<div style='text-align: center;'>
                            <span style=""color: red; font-size: 40px""><b>错误！+0 pts</b></span></div>
                            ","","learn","2","2","2","learn","2","2","[0, 1, 2, 3, 4, 5, 6, 7, 8, 9]","7","0","setsize","10S10A","furniture","1","0","1","0",""
"null","null","fixation","html-keyboard-response","78","367067","0.0-1.0-7.0-3.0-0.8","17:55:39","2","","","","","","","fixation","","","","","","","","","","","","","","","","","","",""
"1004","3","pic_response","html-keyboard-response","79","368072","0.0-1.0-7.0-3.0-1.8","17:55:39","2","","","","","","","<div>
            <img class='stim' src=""pictures/furniture/7.jpg""></div><div class=""button_prompt"">
                    <b>请用数字键0-9回答</b>
                    </div>","","","","","","","","","","","","","","","","","","",""
"1004","null","sub_response","html-keyboard-response","80","369072","0.0-1.0-7.0-3.0-2.8","17:55:39","2","","","","","","","<div style='text-align: center;'>
                            <span style=""color: red; font-size: 40px""><b>错误！+0 pts</b></span></div>
                            ","","learn","7","7","7","learn","7","7","[0, 1, 2, 3, 4, 5, 6, 7, 8, 9]","8","0","setsize","10S10A","furniture","1","0","2","0",""
"null","null","fixation","html-keyboard-response","81","369574","0.0-1.0-7.0-3.0-0.9","17:55:39","2","","","","","","","fixation","","","","","","","","","","","","","","","","","","",""
"657","2","pic_response","html-keyboard-response","82","370231","0.0-1.0-7.0-3.0-1.9","17:55:39","2","","","","","","","<div>
            <img class='stim' src=""pictures/furniture/3.jpg""></div><div class=""button_prompt"">
                    <b>请用数字键0-9回答</b>
                    </div>","","","","","","","","","","","","","","","","","","",""
"657","null","sub_response","html-keyboard-response","83","371233","0.0-1.0-7.0-3.0-2.9","17:55:39","2","","","","","","","<div style='text-align: center;'>
                            <span style=""color: red; font-size: 40px""><b>错误！+0 pts</b></span></div>
                            ","","learn","3","3","3","learn","3","3","[0, 1, 2, 3, 4, 5, 6, 7, 8, 9]","9","0","setsize","10S10A","furniture","1","0","1","0",""
"null","null","fixation","html-keyboard-response","84","371735","0.0-1.0-7.0-3.0-0.10","17:55:39","2","","","","","","","fixation","","","","","","","","","","","","","","","","","","",""
"752","3","pic_response","html-keyboard-response","85","372488","0.0-1.0-7.0-3.0-1.10","17:55:39","2","","","","","","","<div>
            <img class='stim' src=""pictures/furniture/5.jpg""></div><div class=""button_prompt"">
                    <b>请用数字键0-9回答</b>
                    </div>","","","","","","","","","","","","","","","","","","",""
"752","null","sub_response","html-keyboard-response","86","373490","0.0-1.0-7.0-3.0-2.10","17:55:39","2","","","","","","","<div style='text-align: center;'>
                            <span style=""color: red; font-size: 40px""><b>错误！+0 pts</b></span></div>
                            ","","learn","5","5","5","learn","5","5","[0, 1, 2, 3, 4, 5, 6, 7, 8, 9]","10","1","setsize","10S10A","furniture","1","0","2","0",""
"null","null","fixation","html-keyboard-response","87","373991","0.0-1.0-7.0-3.0-0.11","17:55:39","2","","","","","","","fixation","","","","","","","","","","","","","","","","","","",""
"1112","4","pic_response","html-keyboard-response","88","375103","0.0-1.0-7.0-3.0-1.11","17:55:39","2","","","","","","","<div>
            <img class='stim' src=""pictures/furniture/3.jpg""></div><div class=""button_prompt"">
                    <b>请用数字键0-9回答</b>
                    </div>","","","","","","","","","","","","","","","","","","",""
"1112","null","sub_response","html-keyboard-response","89","376104","0.0-1.0-7.0-3.0-2.11","17:55:39","2","","","","","","","<div style='text-align: center;'>
                            <span style=""color: green; font-size: 40px""><b>正确！+1 pts</b></span></div>
                            ","","learn","3","3","3","learn","3","3","[0, 1, 2, 3, 4, 5, 6, 7, 8, 9]","11","1","setsize","10S10A","furniture","1","1","3","1",""
"null","null","fixation","html-keyboard-response","90","376606","0.0-1.0-7.0-3.0-0.12","17:55:39","2","","","","","","","fixation","","","","","","","","","","","","","","","","","","",""
"768","2","pic_response","html-keyboard-response","91","377375","0.0-1.0-7.0-3.0-1.12","17:55:39","2","","","","","","","<div>
            <img class='stim' src=""pictures/furniture/8.jpg""></div><div class=""button_prompt"">
                    <b>请用数字键0-9回答</b>
                    </div>","","","","","","","","","","","","","","","","","","",""
"768","null","sub_response","html-keyboard-response","92","378376","0.0-1.0-7.0-3.0-2.12","17:55:39","2","","","","","","","<div style='text-align: center;'>
                            <span style=""color: red; font-size: 40px""><b>错误！+0 pts</b></span></div>
                            ","","learn","8","8","8","learn","8","8","[0, 1, 2, 3, 4, 5, 6, 7, 8, 9]","12","1","setsize","10S10A","furniture","1","0","1","0",""
"null","null","fixation","html-keyboard-response","93","378877","0.0-1.0-7.0-3.0-0.13","17:55:39","2","","","","","","","fixation","","","","","","","","","","","","","","","","","","",""
"728","5","pic_response","html-keyboard-response","94","379606","0.0-1.0-7.0-3.0-1.13","17:55:39","2","","","","","","","<div>
            <img class='stim' src=""pictures/furniture/7.jpg""></div><div class=""button_prompt"">
                    <b>请用数字键0-9回答</b>
                    </div>","","","","","","","","","","","","","","","","","","",""
"728","null","sub_response","html-keyboard-response","95","380608","0.0-1.0-7.0-3.0-2.13","17:55:39","2","","","","","","","<div style='text-align: center;'>
                            <span style=""color: red; font-size: 40px""><b>错误！+0 pts</b></span></div>
                            ","","learn","7","7","7","learn","7","7","[0, 1, 2, 3, 4, 5, 6, 7, 8, 9]","13","1","setsize","10S10A","furniture","1","0","4","0",""
"null","null","fixation","html-keyboard-response","96","381109","0.0-1.0-7.0-3.0-0.14","17:55:39","2","","","","","","","fixation","","","","","","","","","","","","","","","","","","",""
"675","6","pic_response","html-keyboard-response","97","381784","0.0-1.0-7.0-3.0-1.14","17:55:39","2","","","","","","","<div>
            <img class='stim' src=""pictures/furniture/6.jpg""></div><div class=""button_prompt"">
                    <b>请用数字键0-9回答</b>
                    </div>","","","","","","","","","","","","","","","","","","",""
"675","null","sub_response","html-keyboard-response","98","382786","0.0-1.0-7.0-3.0-2.14","17:55:39","2","","","","","","","<div style='text-align: center;'>
                            <span style=""color: red; font-size: 40px""><b>错误！+0 pts</b></span></div>
                            ","","learn","6","6","6","learn","6","6","[0, 1, 2, 3, 4, 5, 6, 7, 8, 9]","14","1","setsize","10S10A","furniture","1","0","5","0",""
"null","null","fixation","html-keyboard-response","99","383287","0.0-1.0-7.0-3.0-0.15","17:55:39","2","","","","","","","fixation","","","","","","","","","","","","","","","","","","",""
"1935","2","pic_response","html-keyboard-response","100","385223","0.0-1.0-7.0-3.0-1.15","17:55:39","2","","","","","","","<div>
            <img class='stim' src=""pictures/furniture/1.jpg""></div><div class=""button_prompt"">
                    <b>请用数字键0-9回答</b>
                    </div>","","","","","","","","","","","","","","","","","","",""
"1935","null","sub_response","html-keyboard-response","101","386225","0.0-1.0-7.0-3.0-2.15","17:55:39","2","","","","","","","<div style='text-align: center;'>
                            <span style=""color: green; font-size: 40px""><b>正确！+1 pts</b></span></div>
                            ","","learn","1","1","1","learn","1","1","[0, 1, 2, 3, 4, 5, 6, 7, 8, 9]","15","1","setsize","10S10A","furniture","1","1","1","1",""
"null","null","fixation","html-keyboard-response","102","386726","0.0-1.0-7.0-3.0-0.16","17:55:39","2","","","","","","","fixation","","","","","","","","","","","","","","","","","","",""
"809","3","pic_response","html-keyboard-response","103","387535","0.0-1.0-7.0-3.0-1.16","17:55:39","2","","","","","","","<div>
            <img class='stim' src=""pictures/furniture/4.jpg""></div><div class=""button_prompt"">
                    <b>请用数字键0-9回答</b>
                    </div>","","","","","","","","","","","","","","","","","","",""
"809","null","sub_response","html-keyboard-response","104","388536","0.0-1.0-7.0-3.0-2.16","17:55:39","2","","","","","","","<div style='text-align: center;'>
                            <span style=""color: red; font-size: 40px""><b>错误！+0 pts</b></span></div>
                            ","","learn","4","4","4","learn","4","4","[0, 1, 2, 3, 4, 5, 6, 7, 8, 9]","16","1","setsize","10S10A","furniture","1","0","2","0",""
"null","null","fixation","html-keyboard-response","105","389037","0.0-1.0-7.0-3.0-0.17","17:55:39","2","","","","","","","fixation","","","","","","","","","","","","","","","","","","",""
"834","1","pic_response","html-keyboard-response","106","389872","0.0-1.0-7.0-3.0-1.17","17:55:39","2","","","","","","","<div>
            <img class='stim' src=""pictures/furniture/0.jpg""></div><div class=""button_prompt"">
                    <b>请用数字键0-9回答</b>
                    </div>","","","","","","","","","","","","","","","","","","",""
"834","null","sub_response","html-keyboard-response","107","390873","0.0-1.0-7.0-3.0-2.17","17:55:39","2","","","","","","","<div style='text-align: center;'>
                            <span style=""color: green; font-size: 40px""><b>正确！+1 pts</b></span></div>
                            ","","learn","0","0","0","learn","0","0","[0, 1, 2, 3, 4, 5, 6, 7, 8, 9]","17","1","setsize","10S10A","furniture","1","1","0","1",""
"null","null","fixation","html-keyboard-response","108","391375","0.0-1.0-7.0-3.0-0.18","17:55:39","2","","","","","","","fixation","","","","","","","","","","","","","","","","","","",""
"768","0","pic_response","html-keyboard-response","109","392143","0.0-1.0-7.0-3.0-1.18","17:55:39","2","","","","","","","<div>
            <img class='stim' src=""pictures/furniture/9.jpg""></div><div class=""button_prompt"">
                    <b>请用数字键0-9回答</b>
                    </div>","","","","","","","","","","","","","","","","","","",""
"768","null","sub_response","html-keyboard-response","110","393145","0.0-1.0-7.0-3.0-2.18","17:55:39","2","","","","","","","<div style='text-align: center;'>
                            <span style=""color: green; font-size: 40px""><b>正确！+1 pts</b></span></div>
                            ","","learn","9","9","9","learn","9","9","[0, 1, 2, 3, 4, 5, 6, 7, 8, 9]","18","1","setsize","10S10A","furniture","1","2","9","1",""
"null","null","fixation","html-keyboard-response","111","393647","0.0-1.0-7.0-3.0-0.19","17:55:39","2","","","","","","","fixation","","","","","","","","","","","","","","","","","","",""
"984","3","pic_response","html-keyboard-response","112","394632","0.0-1.0-7.0-3.0-1.19","17:55:39","2","","","","","","","<div>
            <img class='stim' src=""pictures/furniture/2.jpg""></div><div class=""button_prompt"">
                    <b>请用数字键0-9回答</b>
                    </div>","","","","","","","","","","","","","","","","","","",""
"984","null","sub_response","html-keyboard-response","113","395634","0.0-1.0-7.0-3.0-2.19","17:55:39","2","","","","","","","<div style='text-align: center;'>
                            <span style=""color: green; font-size: 40px""><b>正确！+1 pts</b></span></div>
                            ","","learn","2","2","2","learn","2","2","[0, 1, 2, 3, 4, 5, 6, 7, 8, 9]","19","1","setsize","10S10A","furniture","1","3","2","1",""
"null","null","fixation","html-keyboard-response","114","396135","0.0-1.0-7.0-3.0-0.20","17:55:39","2","","","","","","","fixation","","","","","","","","","","","","","","","","","","",""
"783","3","pic_response","html-keyboard-response","115","396918","0.0-1.0-7.0-3.0-1.20","17:55:39","2","","","","","","","<div>
            <img class='stim' src=""pictures/furniture/2.jpg""></div><div class=""button_prompt"">
                    <b>请用数字键0-9回答</b>
                    </div>","","","","","","","","","","","","","","","","","","",""
"783","null","sub_response","html-keyboard-response","116","397920","0.0-1.0-7.0-3.0-2.20","17:55:39","2","","","","","","","<div style='text-align: center;'>
                            <span style=""color: green; font-size: 40px""><b>正确！+1 pts</b></span></div>
                            ","","learn","2","2","2","learn","2","2","[0, 1, 2, 3, 4, 5, 6, 7, 8, 9]","20","2","setsize","10S10A","furniture","1","4","2","1",""
"null","null","fixation","html-keyboard-response","117","398421","0.0-1.0-7.0-3.0-0.21","17:55:39","2","","","","","","","fixation","","","","","","","","","","","","","","","","","","",""
"1993","4","pic_response","html-keyboard-response","118","400415","0.0-1.0-7.0-3.0-1.21","17:55:39","2","","","","","","","<div>
            <img class='stim' src=""pictures/furniture/6.jpg""></div><div class=""button_prompt"">
                    <b>请用数字键0-9回答</b>
                    </div>","","","","","","","","","","","","","","","","","","",""
"1993","null","sub_response","html-keyboard-response","119","401416","0.0-1.0-7.0-3.0-2.21","17:55:39","2","","","","","","","<div style='text-align: center;'>
                            <span style=""color: red; font-size: 40px""><b>错误！+0 pts</b></span></div>
                            ","","learn","6","6","6","learn","6","6","[0, 1, 2, 3, 4, 5, 6, 7, 8, 9]","21","2","setsize","10S10A","furniture","1","0","3","0",""
"null","null","fixation","html-keyboard-response","120","401918","0.0-1.0-7.0-3.0-0.22","17:55:39","2","","","","","","","fixation","","","","","","","","","","","","","","","","","","",""
"null","null","pic_response","html-keyboard-response","121","404919","0.0-1.0-7.0-3.0-1.22","17:55:39","2","","","","","","","<div>
            <img class='stim' src=""pictures/furniture/3.jpg""></div><div class=""button_prompt"">
                    <b>请用数字键0-9回答</b>
                    </div>","","","","","","","","","","","","","","","","","","",""
"null","null","sub_response","html-keyboard-response","122","405921","0.0-1.0-7.0-3.0-2.22","17:55:39","2","","","","","","","<div style='text-align: center;'>
                            <span style=""color: red; font-size: 40px""><b>错误！+0 pts</b></span></div>
                            ","","learn","3","3","3","learn","3","3","[0, 1, 2, 3, 4, 5, 6, 7, 8, 9]","22","2","setsize","10S10A","furniture","1","0","999","0",""
"null","null","fixation","html-keyboard-response","123","406422","0.0-1.0-7.0-3.0-0.23","17:55:39","2","","","","","","","fixation","","","","","","","","","","","","","","","","","","",""
"1272","5","pic_response","html-keyboard-response","124","407696","0.0-1.0-7.0-3.0-1.23","17:55:39","2","","","","","","","<div>
            <img class='stim' src=""pictures/furniture/7.jpg""></div><div class=""button_prompt"">
                    <b>请用数字键0-9回答</b>
                    </div>","","","","","","","","","","","","","","","","","","",""
"1272","null","sub_response","html-keyboard-response","125","408697","0.0-1.0-7.0-3.0-2.23","17:55:39","2","","","","","","","<div style='text-align: center;'>
                            <span style=""color: red; font-size: 40px""><b>错误！+0 pts</b></span></div>
                            ","","learn","7","7","7","learn","7","7","[0, 1, 2, 3, 4, 5, 6, 7, 8, 9]","23","2","setsize","10S10A","furniture","1","0","4","0",""
"null","null","fixation","html-keyboard-response","126","409199","0.0-1.0-7.0-3.0-0.24","17:55:39","2","","","","","","","fixation","","","","","","","","","","","","","","","","","","",""
"1687","7","pic_response","html-keyboard-response","127","410887","0.0-1.0-7.0-3.0-1.24","17:55:39","2","","","","","","","<div>
            <img class='stim' src=""pictures/furniture/8.jpg""></div><div class=""button_prompt"">
                    <b>请用数字键0-9回答</b>
                    </div>","","","","","","","","","","","","","","","","","","",""
"1687","null","sub_response","html-keyboard-response","128","411887","0.0-1.0-7.0-3.0-2.24","17:55:39","2","","","","","","","<div style='text-align: center;'>
                            <span style=""color: red; font-size: 40px""><b>错误！+0 pts</b></span></div>
                            ","","learn","8","8","8","learn","8","8","[0, 1, 2, 3, 4, 5, 6, 7, 8, 9]","24","2","setsize","10S10A","furniture","1","0","6","0",""
"null","null","fixation","html-keyboard-response","129","412389","0.0-1.0-7.0-3.0-0.25","17:55:39","2","","","","","","","fixation","","","","","","","","","","","","","","","","","","",""
"1177","5","pic_response","html-keyboard-response","130","413567","0.0-1.0-7.0-3.0-1.25","17:55:39","2","","","","","","","<div>
            <img class='stim' src=""pictures/furniture/4.jpg""></div><div class=""button_prompt"">
                    <b>请用数字键0-9回答</b>
                    </div>","","","","","","","","","","","","","","","","","","",""
"1177","null","sub_response","html-keyboard-response","131","414569","0.0-1.0-7.0-3.0-2.25","17:55:39","2","","","","","","","<div style='text-align: center;'>
                            <span style=""color: green; font-size: 40px""><b>正确！+1 pts</b></span></div>
                            ","","learn","4","4","4","learn","4","4","[0, 1, 2, 3, 4, 5, 6, 7, 8, 9]","25","2","setsize","10S10A","furniture","1","1","4","1",""
"null","null","fixation","html-keyboard-response","132","415071","0.0-1.0-7.0-3.0-0.26","17:55:39","2","","","","","","","fixation","","","","","","","","","","","","","","","","","","",""
"2282","0","pic_response","html-keyboard-response","133","417354","0.0-1.0-7.0-3.0-1.26","17:55:39","2","","","","","","","<div>
            <img class='stim' src=""pictures/furniture/9.jpg""></div><div class=""button_prompt"">
                    <b>请用数字键0-9回答</b>
                    </div>","","","","","","","","","","","","","","","","","","",""
"2282","null","sub_response","html-keyboard-response","134","418360","0.0-1.0-7.0-3.0-2.26","17:55:39","2","","","","","","","<div style='text-align: center;'>
                            <span style=""color: green; font-size: 40px""><b>正确！+1 pts</b></span></div>
                            ","","learn","9","9","9","learn","9","9","[0, 1, 2, 3, 4, 5, 6, 7, 8, 9]","26","2","setsize","10S10A","furniture","1","2","9","1",""
"null","null","fixation","html-keyboard-response","135","418861","0.0-1.0-7.0-3.0-0.27","17:55:39","2","","","","","","","fixation","","","","","","","","","","","","","","","","","","",""
"1626","2","pic_response","html-keyboard-response","136","420488","0.0-1.0-7.0-3.0-1.27","17:55:39","2","","","","","","","<div>
            <img class='stim' src=""pictures/furniture/1.jpg""></div><div class=""button_prompt"">
                    <b>请用数字键0-9回答</b>
                    </div>","","","","","","","","","","","","","","","","","","",""
"1626","null","sub_response","html-keyboard-response","137","421488","0.0-1.0-7.0-3.0-2.27","17:55:39","2","","","","","","","<div style='text-align: center;'>
                            <span style=""color: green; font-size: 40px""><b>正确！+1 pts</b></span></div>
                            ","","learn","1","1","1","learn","1","1","[0, 1, 2, 3, 4, 5, 6, 7, 8, 9]","27","2","setsize","10S10A","furniture","1","3","1","1",""
"null","null","fixation","html-keyboard-response","138","421989","0.0-1.0-7.0-3.0-0.28","17:55:39","2","","","","","","","fixation","","","","","","","","","","","","","","","","","","",""
"1209","6","pic_response","html-keyboard-response","139","423199","0.0-1.0-7.0-3.0-1.28","17:55:39","2","","","","","","","<div>
            <img class='stim' src=""pictures/furniture/5.jpg""></div><div class=""button_prompt"">
                    <b>请用数字键0-9回答</b>
                    </div>","","","","","","","","","","","","","","","","","","",""
"1209","null","sub_response","html-keyboard-response","140","424200","0.0-1.0-7.0-3.0-2.28","17:55:39","2","","","","","","","<div style='text-align: center;'>
                            <span style=""color: green; font-size: 40px""><b>正确！+1 pts</b></span></div>
                            ","","learn","5","5","5","learn","5","5","[0, 1, 2, 3, 4, 5, 6, 7, 8, 9]","28","2","setsize","10S10A","furniture","1","4","5","1",""
"null","null","fixation","html-keyboard-response","141","424701","0.0-1.0-7.0-3.0-0.29","17:55:39","2","","","","","","","fixation","","","","","","","","","","","","","","","","","","",""
"1177","1","pic_response","html-keyboard-response","142","425879","0.0-1.0-7.0-3.0-1.29","17:55:39","2","","","","","","","<div>
            <img class='stim' src=""pictures/furniture/0.jpg""></div><div class=""button_prompt"">
                    <b>请用数字键0-9回答</b>
                    </div>","","","","","","","","","","","","","","","","","","",""
"1177","null","sub_response","html-keyboard-response","143","426881","0.0-1.0-7.0-3.0-2.29","17:55:39","2","","","","","","","<div style='text-align: center;'>
                            <span style=""color: green; font-size: 40px""><b>正确！+1 pts</b></span></div>
                            ","","learn","0","0","0","learn","0","0","[0, 1, 2, 3, 4, 5, 6, 7, 8, 9]","29","2","setsize","10S10A","furniture","1","5","0","1",""
"null","null","fixation","html-keyboard-response","144","427382","0.0-1.0-7.0-3.0-0.30","17:55:39","2","","","","","","","fixation","","","","","","","","","","","","","","","","","","",""
"1809","5","pic_response","html-keyboard-response","145","429191","0.0-1.0-7.0-3.0-1.30","17:55:39","2","","","","","","","<div>
            <img class='stim' src=""pictures/furniture/7.jpg""></div><div class=""button_prompt"">
                    <b>请用数字键0-9回答</b>
                    </div>","","","","","","","","","","","","","","","","","","",""
"1809","null","sub_response","html-keyboard-response","146","430192","0.0-1.0-7.0-3.0-2.30","17:55:39","2","","","","","","","<div style='text-align: center;'>
                            <span style=""color: red; font-size: 40px""><b>错误！+0 pts</b></span></div>
                            ","","learn","7","7","7","learn","7","7","[0, 1, 2, 3, 4, 5, 6, 7, 8, 9]","30","3","setsize","10S10A","furniture","1","0","4","0",""
"null","null","fixation","html-keyboard-response","147","430693","0.0-1.0-7.0-3.0-0.31","17:55:39","2","","","","","","","fixation","","","","","","","","","","","","","","","","","","",""
"1121","2","pic_response","html-keyboard-response","148","431814","0.0-1.0-7.0-3.0-1.31","17:55:39","2","","","","","","","<div>
            <img class='stim' src=""pictures/furniture/1.jpg""></div><div class=""button_prompt"">
                    <b>请用数字键0-9回答</b>
                    </div>","","","","","","","","","","","","","","","","","","",""
"1121","null","sub_response","html-keyboard-response","149","432815","0.0-1.0-7.0-3.0-2.31","17:55:39","2","","","","","","","<div style='text-align: center;'>
                            <span style=""color: green; font-size: 40px""><b>正确！+1 pts</b></span></div>
                            ","","learn","1","1","1","learn","1","1","[0, 1, 2, 3, 4, 5, 6, 7, 8, 9]","31","3","setsize","10S10A","furniture","1","1","1","1",""
"null","null","fixation","html-keyboard-response","150","433316","0.0-1.0-7.0-3.0-0.32","17:55:39","2","","","","","","","fixation","","","","","","","","","","","","","","","","","","",""
"1202","6","pic_response","html-keyboard-response","151","434518","0.0-1.0-7.0-3.0-1.32","17:55:39","2","","","","","","","<div>
            <img class='stim' src=""pictures/furniture/5.jpg""></div><div class=""button_prompt"">
                    <b>请用数字键0-9回答</b>
                    </div>","","","","","","","","","","","","","","","","","","",""
"1202","null","sub_response","html-keyboard-response","152","435520","0.0-1.0-7.0-3.0-2.32","17:55:39","2","","","","","","","<div style='text-align: center;'>
                            <span style=""color: green; font-size: 40px""><b>正确！+1 pts</b></span></div>
                            ","","learn","5","5","5","learn","5","5","[0, 1, 2, 3, 4, 5, 6, 7, 8, 9]","32","3","setsize","10S10A","furniture","1","2","5","1",""
"null","null","fixation","html-keyboard-response","153","436022","0.0-1.0-7.0-3.0-0.33","17:55:39","2","","","","","","","fixation","","","","","","","","","","","","","","","","","","",""
"1569","7","pic_response","html-keyboard-response","154","437591","0.0-1.0-7.0-3.0-1.33","17:55:39","2","","","","","","","<div>
            <img class='stim' src=""pictures/furniture/8.jpg""></div><div class=""button_prompt"">
                    <b>请用数字键0-9回答</b>
                    </div>","","","","","","","","","","","","","","","","","","",""
"1569","null","sub_response","html-keyboard-response","155","438592","0.0-1.0-7.0-3.0-2.33","17:55:39","2","","","","","","","<div style='text-align: center;'>
                            <span style=""color: red; font-size: 40px""><b>错误！+0 pts</b></span></div>
                            ","","learn","8","8","8","learn","8","8","[0, 1, 2, 3, 4, 5, 6, 7, 8, 9]","33","3","setsize","10S10A","furniture","1","0","6","0",""
"null","null","fixation","html-keyboard-response","156","439094","0.0-1.0-7.0-3.0-0.34","17:55:39","2","","","","","","","fixation","","","","","","","","","","","","","","","","","","",""
"1344","8","pic_response","html-keyboard-response","157","440438","0.0-1.0-7.0-3.0-1.34","17:55:39","2","","","","","","","<div>
            <img class='stim' src=""pictures/furniture/6.jpg""></div><div class=""button_prompt"">
                    <b>请用数字键0-9回答</b>
                    </div>","","","","","","","","","","","","","","","","","","",""
"1344","null","sub_response","html-keyboard-response","158","441440","0.0-1.0-7.0-3.0-2.34","17:55:39","2","","","","","","","<div style='text-align: center;'>
                            <span style=""color: red; font-size: 40px""><b>错误！+0 pts</b></span></div>
                            ","","learn","6","6","6","learn","6","6","[0, 1, 2, 3, 4, 5, 6, 7, 8, 9]","34","3","setsize","10S10A","furniture","1","0","7","0",""
"null","null","fixation","html-keyboard-response","159","441941","0.0-1.0-7.0-3.0-0.35","17:55:39","2","","","","","","","fixation","","","","","","","","","","","","","","","","","","",""
"1617","1","pic_response","html-keyboard-response","160","443558","0.0-1.0-7.0-3.0-1.35","17:55:39","2","","","","","","","<div>
            <img class='stim' src=""pictures/furniture/0.jpg""></div><div class=""button_prompt"">
                    <b>请用数字键0-9回答</b>
                    </div>","","","","","","","","","","","","","","","","","","",""
"1617","null","sub_response","html-keyboard-response","161","444559","0.0-1.0-7.0-3.0-2.35","17:55:39","2","","","","","","","<div style='text-align: center;'>
                            <span style=""color: green; font-size: 40px""><b>正确！+1 pts</b></span></div>
                            ","","learn","0","0","0","learn","0","0","[0, 1, 2, 3, 4, 5, 6, 7, 8, 9]","35","3","setsize","10S10A","furniture","1","1","0","1",""
"null","null","fixation","html-keyboard-response","162","445060","0.0-1.0-7.0-3.0-0.36","17:55:39","2","","","","","","","fixation","","","","","","","","","","","","","","","","","","",""
"964","4","pic_response","html-keyboard-response","163","446025","0.0-1.0-7.0-3.0-1.36","17:55:39","2","","","","","","","<div>
            <img class='stim' src=""pictures/furniture/3.jpg""></div><div class=""button_prompt"">
                    <b>请用数字键0-9回答</b>
                    </div>","","","","","","","","","","","","","","","","","","",""
"964","null","sub_response","html-keyboard-response","164","447026","0.0-1.0-7.0-3.0-2.36","17:55:39","2","","","","","","","<div style='text-align: center;'>
                            <span style=""color: green; font-size: 40px""><b>正确！+1 pts</b></span></div>
                            ","","learn","3","3","3","learn","3","3","[0, 1, 2, 3, 4, 5, 6, 7, 8, 9]","36","3","setsize","10S10A","furniture","1","2","3","1",""
"null","null","fixation","html-keyboard-response","165","447527","0.0-1.0-7.0-3.0-0.37","17:55:39","2","","","","","","","fixation","","","","","","","","","","","","","","","","","","",""
"1319","5","pic_response","html-keyboard-response","166","448847","0.0-1.0-7.0-3.0-1.37","17:55:39","2","","","","","","","<div>
            <img class='stim' src=""pictures/furniture/4.jpg""></div><div class=""button_prompt"">
                    <b>请用数字键0-9回答</b>
                    </div>","","","","","","","","","","","","","","","","","","",""
"1319","null","sub_response","html-keyboard-response","167","449862","0.0-1.0-7.0-3.0-2.37","17:55:39","2","","","","","","","<div style='text-align: center;'>
                            <span style=""color: green; font-size: 40px""><b>正确！+1 pts</b></span></div>
                            ","","learn","4","4","4","learn","4","4","[0, 1, 2, 3, 4, 5, 6, 7, 8, 9]","37","3","setsize","10S10A","furniture","1","3","4","1",""
"null","null","fixation","html-keyboard-response","168","450364","0.0-1.0-7.0-3.0-0.38","17:55:39","2","","","","","","","fixation","","","","","","","","","","","","","","","","","","",""
"812","0","pic_response","html-keyboard-response","169","451177","0.0-1.0-7.0-3.0-1.38","17:55:39","2","","","","","","","<div>
            <img class='stim' src=""pictures/furniture/9.jpg""></div><div class=""button_prompt"">
                    <b>请用数字键0-9回答</b>
                    </div>","","","","","","","","","","","","","","","","","","",""
"812","null","sub_response","html-keyboard-response","170","452178","0.0-1.0-7.0-3.0-2.38","17:55:39","2","","","","","","","<div style='text-align: center;'>
                            <span style=""color: green; font-size: 40px""><b>正确！+1 pts</b></span></div>
                            ","","learn","9","9","9","learn","9","9","[0, 1, 2, 3, 4, 5, 6, 7, 8, 9]","38","3","setsize","10S10A","furniture","1","4","9","1",""
"null","null","fixation","html-keyboard-response","171","452679","0.0-1.0-7.0-3.0-0.39","17:55:39","2","","","","","","","fixation","","","","","","","","","","","","","","","","","","",""
"1318","3","pic_response","html-keyboard-response","172","453998","0.0-1.0-7.0-3.0-1.39","17:55:39","2","","","","","","","<div>
            <img class='stim' src=""pictures/furniture/2.jpg""></div><div class=""button_prompt"">
                    <b>请用数字键0-9回答</b>
                    </div>","","","","","","","","","","","","","","","","","","",""
"1318","null","sub_response","html-keyboard-response","173","455000","0.0-1.0-7.0-3.0-2.39","17:55:39","2","","","","","","","<div style='text-align: center;'>
                            <span style=""color: green; font-size: 40px""><b>正确！+1 pts</b></span></div>
                            ","","learn","2","2","2","learn","2","2","[0, 1, 2, 3, 4, 5, 6, 7, 8, 9]","39","3","setsize","10S10A","furniture","1","5","2","1",""
"null","null","fixation","html-keyboard-response","174","455501","0.0-1.0-7.0-3.0-0.40","17:55:39","2","","","","","","","fixation","","","","","","","","","","","","","","","","","","",""
"897","0","pic_response","html-keyboard-response","175","456398","0.0-1.0-7.0-3.0-1.40","17:55:39","2","","","","","","","<div>
            <img class='stim' src=""pictures/furniture/9.jpg""></div><div class=""button_prompt"">
                    <b>请用数字键0-9回答</b>
                    </div>","","","","","","","","","","","","","","","","","","",""
"897","null","sub_response","html-keyboard-response","176","457400","0.0-1.0-7.0-3.0-2.40","17:55:39","2","","","","","","","<div style='text-align: center;'>
                            <span style=""color: green; font-size: 40px""><b>正确！+1 pts</b></span></div>
                            ","","learn","9","9","9","learn","9","9","[0, 1, 2, 3, 4, 5, 6, 7, 8, 9]","40","4","setsize","10S10A","furniture","1","6","9","1",""
"null","null","fixation","html-keyboard-response","177","457903","0.0-1.0-7.0-3.0-0.41","17:55:39","2","","","","","","","fixation","","","","","","","","","","","","","","","","","","",""
"1368","6","pic_response","html-keyboard-response","178","459271","0.0-1.0-7.0-3.0-1.41","17:55:39","2","","","","","","","<div>
            <img class='stim' src=""pictures/furniture/5.jpg""></div><div class=""button_prompt"">
                    <b>请用数字键0-9回答</b>
                    </div>","","","","","","","","","","","","","","","","","","",""
"1368","null","sub_response","html-keyboard-response","179","460272","0.0-1.0-7.0-3.0-2.41","17:55:39","2","","","","","","","<div style='text-align: center;'>
                            <span style=""color: green; font-size: 40px""><b>正确！+1 pts</b></span></div>
                            ","","learn","5","5","5","learn","5","5","[0, 1, 2, 3, 4, 5, 6, 7, 8, 9]","41","4","setsize","10S10A","furniture","1","7","5","1",""
"null","null","fixation","html-keyboard-response","180","460773","0.0-1.0-7.0-3.0-0.42","17:55:39","2","","","","","","","fixation","","","","","","","","","","","","","","","","","","",""
"1168","2","pic_response","html-keyboard-response","181","461942","0.0-1.0-7.0-3.0-1.42","17:55:39","2","","","","","","","<div>
            <img class='stim' src=""pictures/furniture/1.jpg""></div><div class=""button_prompt"">
                    <b>请用数字键0-9回答</b>
                    </div>","","","","","","","","","","","","","","","","","","",""
"1168","null","sub_response","html-keyboard-response","182","462944","0.0-1.0-7.0-3.0-2.42","17:55:39","2","","","","","","","<div style='text-align: center;'>
                            <span style=""color: green; font-size: 40px""><b>正确！+1 pts</b></span></div>
                            ","","learn","1","1","1","learn","1","1","[0, 1, 2, 3, 4, 5, 6, 7, 8, 9]","42","4","setsize","10S10A","furniture","1","8","1","1",""
"null","null","fixation","html-keyboard-response","183","463445","0.0-1.0-7.0-3.0-0.43","17:55:39","2","","","","","","","fixation","","","","","","","","","","","","","","","","","","",""
"1657","5","pic_response","html-keyboard-response","184","465103","0.0-1.0-7.0-3.0-1.43","17:55:39","2","","","","","","","<div>
            <img class='stim' src=""pictures/furniture/4.jpg""></div><div class=""button_prompt"">
                    <b>请用数字键0-9回答</b>
                    </div>","","","","","","","","","","","","","","","","","","",""
"1657","null","sub_response","html-keyboard-response","185","466104","0.0-1.0-7.0-3.0-2.43","17:55:39","2","","","","","","","<div style='text-align: center;'>
                            <span style=""color: green; font-size: 40px""><b>正确！+1 pts</b></span></div>
                            ","","learn","4","4","4","learn","4","4","[0, 1, 2, 3, 4, 5, 6, 7, 8, 9]","43","4","setsize","10S10A","furniture","1","9","4","1",""
"null","null","fixation","html-keyboard-response","186","466606","0.0-1.0-7.0-3.0-0.44","17:55:39","2","","","","","","","fixation","","","","","","","","","","","","","","","","","","",""
"872","7","pic_response","html-keyboard-response","187","467478","0.0-1.0-7.0-3.0-1.44","17:55:39","2","","","","","","","<div>
            <img class='stim' src=""pictures/furniture/6.jpg""></div><div class=""button_prompt"">
                    <b>请用数字键0-9回答</b>
                    </div>","","","","","","","","","","","","","","","","","","",""
"872","null","sub_response","html-keyboard-response","188","468480","0.0-1.0-7.0-3.0-2.44","17:55:39","2","","","","","","","<div style='text-align: center;'>
                            <span style=""color: green; font-size: 40px""><b>正确！+1 pts</b></span></div>
                            ","","learn","6","6","6","learn","6","6","[0, 1, 2, 3, 4, 5, 6, 7, 8, 9]","44","4","setsize","10S10A","furniture","1","10","6","1",""
"null","null","fixation","html-keyboard-response","189","468981","0.0-1.0-7.0-3.0-0.45","17:55:39","2","","","","","","","fixation","","","","","","","","","","","","","","","","","","",""
"1089","8","pic_response","html-keyboard-response","190","470071","0.0-1.0-7.0-3.0-1.45","17:55:39","2","","","","","","","<div>
            <img class='stim' src=""pictures/furniture/8.jpg""></div><div class=""button_prompt"">
                    <b>请用数字键0-9回答</b>
                    </div>","","","","","","","","","","","","","","","","","","",""
"1089","null","sub_response","html-keyboard-response","191","471072","0.0-1.0-7.0-3.0-2.45","17:55:39","2","","","","","","","<div style='text-align: center;'>
                            <span style=""color: red; font-size: 40px""><b>错误！+0 pts</b></span></div>
                            ","","learn","8","8","8","learn","8","8","[0, 1, 2, 3, 4, 5, 6, 7, 8, 9]","45","4","setsize","10S10A","furniture","1","0","7","0",""
"null","null","fixation","html-keyboard-response","192","471573","0.0-1.0-7.0-3.0-0.46","17:55:39","2","","","","","","","fixation","","","","","","","","","","","","","","","","","","",""
"1249","5","pic_response","html-keyboard-response","193","472822","0.0-1.0-7.0-3.0-1.46","17:55:39","2","","","","","","","<div>
            <img class='stim' src=""pictures/furniture/3.jpg""></div><div class=""button_prompt"">
                    <b>请用数字键0-9回答</b>
                    </div>","","","","","","","","","","","","","","","","","","",""
"1249","null","sub_response","html-keyboard-response","194","473823","0.0-1.0-7.0-3.0-2.46","17:55:39","2","","","","","","","<div style='text-align: center;'>
                            <span style=""color: red; font-size: 40px""><b>错误！+0 pts</b></span></div>
                            ","","learn","3","3","3","learn","3","3","[0, 1, 2, 3, 4, 5, 6, 7, 8, 9]","46","4","setsize","10S10A","furniture","1","0","4","0",""
"null","null","fixation","html-keyboard-response","195","474324","0.0-1.0-7.0-3.0-0.47","17:55:39","2","","","","","","","fixation","","","","","","","","","","","","","","","","","","",""
"2546","3","pic_response","html-keyboard-response","196","476870","0.0-1.0-7.0-3.0-1.47","17:55:39","2","","","","","","","<div>
            <img class='stim' src=""pictures/furniture/2.jpg""></div><div class=""button_prompt"">
                    <b>请用数字键0-9回答</b>
                    </div>","","","","","","","","","","","","","","","","","","",""
"2546","null","sub_response","html-keyboard-response","197","477872","0.0-1.0-7.0-3.0-2.47","17:55:39","2","","","","","","","<div style='text-align: center;'>
                            <span style=""color: green; font-size: 40px""><b>正确！+1 pts</b></span></div>
                            ","","learn","2","2","2","learn","2","2","[0, 1, 2, 3, 4, 5, 6, 7, 8, 9]","47","4","setsize","10S10A","furniture","1","1","2","1",""
"null","null","fixation","html-keyboard-response","198","478374","0.0-1.0-7.0-3.0-0.48","17:55:39","2","","","","","","","fixation","","","","","","","","","","","","","","","","","","",""
"1194","1","pic_response","html-keyboard-response","199","479569","0.0-1.0-7.0-3.0-1.48","17:55:39","2","","","","","","","<div>
            <img class='stim' src=""pictures/furniture/0.jpg""></div><div class=""button_prompt"">
                    <b>请用数字键0-9回答</b>
                    </div>","","","","","","","","","","","","","","","","","","",""
"1194","null","sub_response","html-keyboard-response","200","480570","0.0-1.0-7.0-3.0-2.48","17:55:39","2","","","","","","","<div style='text-align: center;'>
                            <span style=""color: green; font-size: 40px""><b>正确！+1 pts</b></span></div>
                            ","","learn","0","0","0","learn","0","0","[0, 1, 2, 3, 4, 5, 6, 7, 8, 9]","48","4","setsize","10S10A","furniture","1","2","0","1",""
"null","null","fixation","html-keyboard-response","201","481072","0.0-1.0-7.0-3.0-0.49","17:55:39","2","","","","","","","fixation","","","","","","","","","","","","","","","","","","",""
"1550","6","pic_response","html-keyboard-response","202","482622","0.0-1.0-7.0-3.0-1.49","17:55:39","2","","","","","","","<div>
            <img class='stim' src=""pictures/furniture/7.jpg""></div><div class=""button_prompt"">
                    <b>请用数字键0-9回答</b>
                    </div>","","","","","","","","","","","","","","","","","","",""
"1550","null","sub_response","html-keyboard-response","203","483624","0.0-1.0-7.0-3.0-2.49","17:55:39","2","","","","","","","<div style='text-align: center;'>
                            <span style=""color: red; font-size: 40px""><b>错误！+0 pts</b></span></div>
                            ","","learn","7","7","7","learn","7","7","[0, 1, 2, 3, 4, 5, 6, 7, 8, 9]","49","4","setsize","10S10A","furniture","1","0","5","0",""
"null","null","fixation","html-keyboard-response","204","484125","0.0-1.0-7.0-3.0-0.50","17:55:39","2","","","","","","","fixation","","","","","","","","","","","","","","","","","","",""
"1026","1","pic_response","html-keyboard-response","205","485152","0.0-1.0-7.0-3.0-1.50","17:55:39","2","","","","","","","<div>
            <img class='stim' src=""pictures/furniture/0.jpg""></div><div class=""button_prompt"">
                    <b>请用数字键0-9回答</b>
                    </div>","","","","","","","","","","","","","","","","","","",""
"1026","null","sub_response","html-keyboard-response","206","486153","0.0-1.0-7.0-3.0-2.50","17:55:39","2","","","","","","","<div style='text-align: center;'>
                            <span style=""color: green; font-size: 40px""><b>正确！+1 pts</b></span></div>
                            ","","learn","0","0","0","learn","0","0","[0, 1, 2, 3, 4, 5, 6, 7, 8, 9]","50","5","setsize","10S10A","furniture","1","1","0","1",""
"null","null","fixation","html-keyboard-response","207","486655","0.0-1.0-7.0-3.0-0.51","17:55:39","2","","","","","","","fixation","","","","","","","","","","","","","","","","","","",""
"863","0","pic_response","html-keyboard-response","208","487518","0.0-1.0-7.0-3.0-1.51","17:55:39","2","","","","","","","<div>
            <img class='stim' src=""pictures/furniture/9.jpg""></div><div class=""button_prompt"">
                    <b>请用数字键0-9回答</b>
                    </div>","","","","","","","","","","","","","","","","","","",""
"863","null","sub_response","html-keyboard-response","209","488519","0.0-1.0-7.0-3.0-2.51","17:55:39","2","","","","","","","<div style='text-align: center;'>
                            <span style=""color: green; font-size: 40px""><b>正确！+1 pts</b></span></div>
                            ","","learn","9","9","9","learn","9","9","[0, 1, 2, 3, 4, 5, 6, 7, 8, 9]","51","5","setsize","10S10A","furniture","1","2","9","1",""
"null","null","fixation","html-keyboard-response","210","489021","0.0-1.0-7.0-3.0-0.52","17:55:39","2","","","","","","","fixation","","","","","","","","","","","","","","","","","","",""
"1946","8","pic_response","html-keyboard-response","211","490967","0.0-1.0-7.0-3.0-1.52","17:55:39","2","","","","","","","<div>
            <img class='stim' src=""pictures/furniture/7.jpg""></div><div class=""button_prompt"">
                    <b>请用数字键0-9回答</b>
                    </div>","","","","","","","","","","","","","","","","","","",""
"1946","null","sub_response","html-keyboard-response","212","491968","0.0-1.0-7.0-3.0-2.52","17:55:39","2","","","","","","","<div style='text-align: center;'>
                            <span style=""color: green; font-size: 40px""><b>正确！+1 pts</b></span></div>
                            ","","learn","7","7","7","learn","7","7","[0, 1, 2, 3, 4, 5, 6, 7, 8, 9]","52","5","setsize","10S10A","furniture","1","3","7","1",""
"null","null","fixation","html-keyboard-response","213","492469","0.0-1.0-7.0-3.0-0.53","17:55:39","2","","","","","","","fixation","","","","","","","","","","","","","","","","","","",""
"1571","7","pic_response","html-keyboard-response","214","494041","0.0-1.0-7.0-3.0-1.53","17:55:39","2","","","","","","","<div>
            <img class='stim' src=""pictures/furniture/6.jpg""></div><div class=""button_prompt"">
                    <b>请用数字键0-9回答</b>
                    </div>","","","","","","","","","","","","","","","","","","",""
"1571","null","sub_response","html-keyboard-response","215","495043","0.0-1.0-7.0-3.0-2.53","17:55:39","2","","","","","","","<div style='text-align: center;'>
                            <span style=""color: green; font-size: 40px""><b>正确！+1 pts</b></span></div>
                            ","","learn","6","6","6","learn","6","6","[0, 1, 2, 3, 4, 5, 6, 7, 8, 9]","53","5","setsize","10S10A","furniture","1","4","6","1",""
"null","null","fixation","html-keyboard-response","216","495545","0.0-1.0-7.0-3.0-0.54","17:55:39","2","","","","","","","fixation","","","","","","","","","","","","","","","","","","",""
"1031","2","pic_response","html-keyboard-response","217","496576","0.0-1.0-7.0-3.0-1.54","17:55:39","2","","","","","","","<div>
            <img class='stim' src=""pictures/furniture/1.jpg""></div><div class=""button_prompt"">
                    <b>请用数字键0-9回答</b>
                    </div>","","","","","","","","","","","","","","","","","","",""
"1031","null","sub_response","html-keyboard-response","218","497578","0.0-1.0-7.0-3.0-2.54","17:55:39","2","","","","","","","<div style='text-align: center;'>
                            <span style=""color: green; font-size: 40px""><b>正确！+1 pts</b></span></div>
                            ","","learn","1","1","1","learn","1","1","[0, 1, 2, 3, 4, 5, 6, 7, 8, 9]","54","5","setsize","10S10A","furniture","1","5","1","1",""
"null","null","fixation","html-keyboard-response","219","498080","0.0-1.0-7.0-3.0-0.55","17:55:39","2","","","","","","","fixation","","","","","","","","","","","","","","","","","","",""
"1264","9","pic_response","html-keyboard-response","220","499344","0.0-1.0-7.0-3.0-1.55","17:55:39","2","","","","","","","<div>
            <img class='stim' src=""pictures/furniture/8.jpg""></div><div class=""button_prompt"">
                    <b>请用数字键0-9回答</b>
                    </div>","","","","","","","","","","","","","","","","","","",""
"1264","null","sub_response","html-keyboard-response","221","500345","0.0-1.0-7.0-3.0-2.55","17:55:39","2","","","","","","","<div style='text-align: center;'>
                            <span style=""color: green; font-size: 40px""><b>正确！+1 pts</b></span></div>
                            ","","learn","8","8","8","learn","8","8","[0, 1, 2, 3, 4, 5, 6, 7, 8, 9]","55","5","setsize","10S10A","furniture","1","6","8","1",""
"null","null","fixation","html-keyboard-response","222","500847","0.0-1.0-7.0-3.0-0.56","17:55:39","2","","","","","","","fixation","","","","","","","","","","","","","","","","","","",""
"662","3","pic_response","html-keyboard-response","223","501510","0.0-1.0-7.0-3.0-1.56","17:55:39","2","","","","","","","<div>
            <img class='stim' src=""pictures/furniture/2.jpg""></div><div class=""button_prompt"">
                    <b>请用数字键0-9回答</b>
                    </div>","","","","","","","","","","","","","","","","","","",""
"662","null","sub_response","html-keyboard-response","224","502511","0.0-1.0-7.0-3.0-2.56","17:55:39","2","","","","","","","<div style='text-align: center;'>
                            <span style=""color: green; font-size: 40px""><b>正确！+1 pts</b></span></div>
                            ","","learn","2","2","2","learn","2","2","[0, 1, 2, 3, 4, 5, 6, 7, 8, 9]","56","5","setsize","10S10A","furniture","1","7","2","1",""
"null","null","fixation","html-keyboard-response","225","503013","0.0-1.0-7.0-3.0-0.57","17:55:39","2","","","","","","","fixation","","","","","","","","","","","","","","","","","","",""
"2025","6","pic_response","html-keyboard-response","226","505039","0.0-1.0-7.0-3.0-1.57","17:55:39","2","","","","","","","<div>
            <img class='stim' src=""pictures/furniture/5.jpg""></div><div class=""button_prompt"">
                    <b>请用数字键0-9回答</b>
                    </div>","","","","","","","","","","","","","","","","","","",""
"2025","null","sub_response","html-keyboard-response","227","506040","0.0-1.0-7.0-3.0-2.57","17:55:39","2","","","","","","","<div style='text-align: center;'>
                            <span style=""color: green; font-size: 40px""><b>正确！+1 pts</b></span></div>
                            ","","learn","5","5","5","learn","5","5","[0, 1, 2, 3, 4, 5, 6, 7, 8, 9]","57","5","setsize","10S10A","furniture","1","8","5","1",""
"null","null","fixation","html-keyboard-response","228","506541","0.0-1.0-7.0-3.0-0.58","17:55:39","2","","","","","","","fixation","","","","","","","","","","","","","","","","","","",""
"1281","1","pic_response","html-keyboard-response","229","507823","0.0-1.0-7.0-3.0-1.58","17:55:39","2","","","","","","","<div>
            <img class='stim' src=""pictures/furniture/3.jpg""></div><div class=""button_prompt"">
                    <b>请用数字键0-9回答</b>
                    </div>","","","","","","","","","","","","","","","","","","",""
"1281","null","sub_response","html-keyboard-response","230","508824","0.0-1.0-7.0-3.0-2.58","17:55:39","2","","","","","","","<div style='text-align: center;'>
                            <span style=""color: red; font-size: 40px""><b>错误！+0 pts</b></span></div>
                            ","","learn","3","3","3","learn","3","3","[0, 1, 2, 3, 4, 5, 6, 7, 8, 9]","58","5","setsize","10S10A","furniture","1","0","0","0",""
"null","null","fixation","html-keyboard-response","231","509326","0.0-1.0-7.0-3.0-0.59","17:55:39","2","","","","","","","fixation","","","","","","","","","","","","","","","","","","",""
"1361","5","pic_response","html-keyboard-response","232","510688","0.0-1.0-7.0-3.0-1.59","17:55:39","2","","","","","","","<div>
            <img class='stim' src=""pictures/furniture/4.jpg""></div><div class=""button_prompt"">
                    <b>请用数字键0-9回答</b>
                    </div>","","","","","","","","","","","","","","","","","","",""
"1361","null","sub_response","html-keyboard-response","233","511688","0.0-1.0-7.0-3.0-2.59","17:55:39","2","","","","","","","<div style='text-align: center;'>
                            <span style=""color: green; font-size: 40px""><b>正确！+1 pts</b></span></div>
                            ","","learn","4","4","4","learn","4","4","[0, 1, 2, 3, 4, 5, 6, 7, 8, 9]","59","5","setsize","10S10A","furniture","1","1","4","1",""
"null","null","fixation","html-keyboard-response","234","512189","0.0-1.0-7.0-3.0-0.60","17:55:39","2","","","","","","","fixation","","","","","","","","","","","","","","","","","","",""
"1034","8","pic_response","html-keyboard-response","235","513223","0.0-1.0-7.0-3.0-1.60","17:55:39","2","","","","","","","<div>
            <img class='stim' src=""pictures/furniture/7.jpg""></div><div class=""button_prompt"">
                    <b>请用数字键0-9回答</b>
                    </div>","","","","","","","","","","","","","","","","","","",""
"1034","null","sub_response","html-keyboard-response","236","514225","0.0-1.0-7.0-3.0-2.60","17:55:39","2","","","","","","","<div style='text-align: center;'>
                            <span style=""color: green; font-size: 40px""><b>正确！+1 pts</b></span></div>
                            ","","learn","7","7","7","learn","7","7","[0, 1, 2, 3, 4, 5, 6, 7, 8, 9]","60","6","setsize","10S10A","furniture","1","2","7","1",""
"null","null","fixation","html-keyboard-response","237","514726","0.0-1.0-7.0-3.0-0.61","17:55:39","2","","","","","","","fixation","","","","","","","","","","","","","","","","","","",""
"895","5","pic_response","html-keyboard-response","238","515622","0.0-1.0-7.0-3.0-1.61","17:55:39","2","","","","","","","<div>
            <img class='stim' src=""pictures/furniture/4.jpg""></div><div class=""button_prompt"">
                    <b>请用数字键0-9回答</b>
                    </div>","","","","","","","","","","","","","","","","","","",""
"895","null","sub_response","html-keyboard-response","239","516623","0.0-1.0-7.0-3.0-2.61","17:55:39","2","","","","","","","<div style='text-align: center;'>
                            <span style=""color: green; font-size: 40px""><b>正确！+1 pts</b></span></div>
                            ","","learn","4","4","4","learn","4","4","[0, 1, 2, 3, 4, 5, 6, 7, 8, 9]","61","6","setsize","10S10A","furniture","1","3","4","1",""
"null","null","fixation","html-keyboard-response","240","517124","0.0-1.0-7.0-3.0-0.62","17:55:39","2","","","","","","","fixation","","","","","","","","","","","","","","","","","","",""
"883","6","pic_response","html-keyboard-response","241","518008","0.0-1.0-7.0-3.0-1.62","17:55:39","2","","","","","","","<div>
            <img class='stim' src=""pictures/furniture/5.jpg""></div><div class=""button_prompt"">
                    <b>请用数字键0-9回答</b>
                    </div>","","","","","","","","","","","","","","","","","","",""
"883","null","sub_response","html-keyboard-response","242","519010","0.0-1.0-7.0-3.0-2.62","17:55:39","2","","","","","","","<div style='text-align: center;'>
                            <span style=""color: green; font-size: 40px""><b>正确！+1 pts</b></span></div>
                            ","","learn","5","5","5","learn","5","5","[0, 1, 2, 3, 4, 5, 6, 7, 8, 9]","62","6","setsize","10S10A","furniture","1","4","5","1",""
"null","null","fixation","html-keyboard-response","243","519512","0.0-1.0-7.0-3.0-0.63","17:55:39","2","","","","","","","fixation","","","","","","","","","","","","","","","","","","",""
"1297","9","pic_response","html-keyboard-response","244","520809","0.0-1.0-7.0-3.0-1.63","17:55:39","2","","","","","","","<div>
            <img class='stim' src=""pictures/furniture/8.jpg""></div><div class=""button_prompt"">
                    <b>请用数字键0-9回答</b>
                    </div>","","","","","","","","","","","","","","","","","","",""
"1297","null","sub_response","html-keyboard-response","245","521810","0.0-1.0-7.0-3.0-2.63","17:55:39","2","","","","","","","<div style='text-align: center;'>
                            <span style=""color: green; font-size: 40px""><b>正确！+1 pts</b></span></div>
                            ","","learn","8","8","8","learn","8","8","[0, 1, 2, 3, 4, 5, 6, 7, 8, 9]","63","6","setsize","10S10A","furniture","1","5","8","1",""
"null","null","fixation","html-keyboard-response","246","522312","0.0-1.0-7.0-3.0-0.64","17:55:39","2","","","","","","","fixation","","","","","","","","","","","","","","","","","","",""
"2071","3","pic_response","html-keyboard-response","247","524383","0.0-1.0-7.0-3.0-1.64","17:55:39","2","","","","","","","<div>
            <img class='stim' src=""pictures/furniture/2.jpg""></div><div class=""button_prompt"">
                    <b>请用数字键0-9回答</b>
                    </div>","","","","","","","","","","","","","","","","","","",""
"2071","null","sub_response","html-keyboard-response","248","525384","0.0-1.0-7.0-3.0-2.64","17:55:39","2","","","","","","","<div style='text-align: center;'>
                            <span style=""color: green; font-size: 40px""><b>正确！+1 pts</b></span></div>
                            ","","learn","2","2","2","learn","2","2","[0, 1, 2, 3, 4, 5, 6, 7, 8, 9]","64","6","setsize","10S10A","furniture","1","6","2","1",""
"null","null","fixation","html-keyboard-response","249","525886","0.0-1.0-7.0-3.0-0.65","17:55:39","2","","","","","","","fixation","","","","","","","","","","","","","","","","","","",""
"2152","1","pic_response","html-keyboard-response","250","528039","0.0-1.0-7.0-3.0-1.65","17:55:39","2","","","","","","","<div>
            <img class='stim' src=""pictures/furniture/0.jpg""></div><div class=""button_prompt"">
                    <b>请用数字键0-9回答</b>
                    </div>","","","","","","","","","","","","","","","","","","",""
"2152","null","sub_response","html-keyboard-response","251","529040","0.0-1.0-7.0-3.0-2.65","17:55:39","2","","","","","","","<div style='text-align: center;'>
                            <span style=""color: green; font-size: 40px""><b>正确！+1 pts</b></span></div>
                            ","","learn","0","0","0","learn","0","0","[0, 1, 2, 3, 4, 5, 6, 7, 8, 9]","65","6","setsize","10S10A","furniture","1","7","0","1",""
"null","null","fixation","html-keyboard-response","252","529542","0.0-1.0-7.0-3.0-0.66","17:55:39","2","","","","","","","fixation","","","","","","","","","","","","","","","","","","",""
"1170","0","pic_response","html-keyboard-response","253","530712","0.0-1.0-7.0-3.0-1.66","17:55:39","2","","","","","","","<div>
            <img class='stim' src=""pictures/furniture/9.jpg""></div><div class=""button_prompt"">
                    <b>请用数字键0-9回答</b>
                    </div>","","","","","","","","","","","","","","","","","","",""
"1170","null","sub_response","html-keyboard-response","254","531713","0.0-1.0-7.0-3.0-2.66","17:55:39","2","","","","","","","<div style='text-align: center;'>
                            <span style=""color: green; font-size: 40px""><b>正确！+1 pts</b></span></div>
                            ","","learn","9","9","9","learn","9","9","[0, 1, 2, 3, 4, 5, 6, 7, 8, 9]","66","6","setsize","10S10A","furniture","1","8","9","1",""
"null","null","fixation","html-keyboard-response","255","532214","0.0-1.0-7.0-3.0-0.67","17:55:39","2","","","","","","","fixation","","","","","","","","","","","","","","","","","","",""
"1208","2","pic_response","html-keyboard-response","256","533423","0.0-1.0-7.0-3.0-1.67","17:55:39","2","","","","","","","<div>
            <img class='stim' src=""pictures/furniture/1.jpg""></div><div class=""button_prompt"">
                    <b>请用数字键0-9回答</b>
                    </div>","","","","","","","","","","","","","","","","","","",""
"1208","null","sub_response","html-keyboard-response","257","534424","0.0-1.0-7.0-3.0-2.67","17:55:39","2","","","","","","","<div style='text-align: center;'>
                            <span style=""color: green; font-size: 40px""><b>正确！+1 pts</b></span></div>
                            ","","learn","1","1","1","learn","1","1","[0, 1, 2, 3, 4, 5, 6, 7, 8, 9]","67","6","setsize","10S10A","furniture","1","9","1","1",""
"null","null","fixation","html-keyboard-response","258","534925","0.0-1.0-7.0-3.0-0.68","17:55:39","2","","","","","","","fixation","","","","","","","","","","","","","","","","","","",""
"920","7","pic_response","html-keyboard-response","259","535846","0.0-1.0-7.0-3.0-1.68","17:55:39","2","","","","","","","<div>
            <img class='stim' src=""pictures/furniture/6.jpg""></div><div class=""button_prompt"">
                    <b>请用数字键0-9回答</b>
                    </div>","","","","","","","","","","","","","","","","","","",""
"920","null","sub_response","html-keyboard-response","260","536847","0.0-1.0-7.0-3.0-2.68","17:55:39","2","","","","","","","<div style='text-align: center;'>
                            <span style=""color: green; font-size: 40px""><b>正确！+1 pts</b></span></div>
                            ","","learn","6","6","6","learn","6","6","[0, 1, 2, 3, 4, 5, 6, 7, 8, 9]","68","6","setsize","10S10A","furniture","1","10","6","1",""
"null","null","fixation","html-keyboard-response","261","537349","0.0-1.0-7.0-3.0-0.69","17:55:39","2","","","","","","","fixation","","","","","","","","","","","","","","","","","","",""
"801","4","pic_response","html-keyboard-response","262","538150","0.0-1.0-7.0-3.0-1.69","17:55:39","2","","","","","","","<div>
            <img class='stim' src=""pictures/furniture/3.jpg""></div><div class=""button_prompt"">
                    <b>请用数字键0-9回答</b>
                    </div>","","","","","","","","","","","","","","","","","","",""
"801","null","sub_response","html-keyboard-response","263","539151","0.0-1.0-7.0-3.0-2.69","17:55:39","2","","","","","","","<div style='text-align: center;'>
                            <span style=""color: green; font-size: 40px""><b>正确！+1 pts</b></span></div>
                            ","","learn","3","3","3","learn","3","3","[0, 1, 2, 3, 4, 5, 6, 7, 8, 9]","69","6","setsize","10S10A","furniture","1","11","3","1",""
"null","null","fixation","html-keyboard-response","264","539653","0.0-1.0-7.0-3.0-0.70","17:55:39","2","","","","","","","fixation","","","","","","","","","","","","","","","","","","",""
"984","3","pic_response","html-keyboard-response","265","540638","0.0-1.0-7.0-3.0-1.70","17:55:39","2","","","","","","","<div>
            <img class='stim' src=""pictures/furniture/2.jpg""></div><div class=""button_prompt"">
                    <b>请用数字键0-9回答</b>
                    </div>","","","","","","","","","","","","","","","","","","",""
"984","null","sub_response","html-keyboard-response","266","541639","0.0-1.0-7.0-3.0-2.70","17:55:39","2","","","","","","","<div style='text-align: center;'>
                            <span style=""color: green; font-size: 40px""><b>正确！+1 pts</b></span></div>
                            ","","learn","2","2","2","learn","2","2","[0, 1, 2, 3, 4, 5, 6, 7, 8, 9]","70","7","setsize","10S10A","furniture","1","12","2","1",""
"null","null","fixation","html-keyboard-response","267","542140","0.0-1.0-7.0-3.0-0.71","17:55:39","2","","","","","","","fixation","","","","","","","","","","","","","","","","","","",""
"924","5","pic_response","html-keyboard-response","268","543065","0.0-1.0-7.0-3.0-1.71","17:55:39","2","","","","","","","<div>
            <img class='stim' src=""pictures/furniture/4.jpg""></div><div class=""button_prompt"">
                    <b>请用数字键0-9回答</b>
                    </div>","","","","","","","","","","","","","","","","","","",""
"924","null","sub_response","html-keyboard-response","269","544065","0.0-1.0-7.0-3.0-2.71","17:55:39","2","","","","","","","<div style='text-align: center;'>
                            <span style=""color: green; font-size: 40px""><b>正确！+1 pts</b></span></div>
                            ","","learn","4","4","4","learn","4","4","[0, 1, 2, 3, 4, 5, 6, 7, 8, 9]","71","7","setsize","10S10A","furniture","1","13","4","1",""
"null","null","fixation","html-keyboard-response","270","544567","0.0-1.0-7.0-3.0-0.72","17:55:39","2","","","","","","","fixation","","","","","","","","","","","","","","","","","","",""
"712","0","pic_response","html-keyboard-response","271","545279","0.0-1.0-7.0-3.0-1.72","17:55:39","2","","","","","","","<div>
            <img class='stim' src=""pictures/furniture/9.jpg""></div><div class=""button_prompt"">
                    <b>请用数字键0-9回答</b>
                    </div>","","","","","","","","","","","","","","","","","","",""
"712","null","sub_response","html-keyboard-response","272","546281","0.0-1.0-7.0-3.0-2.72","17:55:39","2","","","","","","","<div style='text-align: center;'>
                            <span style=""color: green; font-size: 40px""><b>正确！+1 pts</b></span></div>
                            ","","learn","9","9","9","learn","9","9","[0, 1, 2, 3, 4, 5, 6, 7, 8, 9]","72","7","setsize","10S10A","furniture","1","14","9","1",""
"null","null","fixation","html-keyboard-response","273","546782","0.0-1.0-7.0-3.0-0.73","17:55:39","2","","","","","","","fixation","","","","","","","","","","","","","","","","","","",""
"1072","6","pic_response","html-keyboard-response","274","547855","0.0-1.0-7.0-3.0-1.73","17:55:39","2","","","","","","","<div>
            <img class='stim' src=""pictures/furniture/5.jpg""></div><div class=""button_prompt"">
                    <b>请用数字键0-9回答</b>
                    </div>","","","","","","","","","","","","","","","","","","",""
"1072","null","sub_response","html-keyboard-response","275","548856","0.0-1.0-7.0-3.0-2.73","17:55:39","2","","","","","","","<div style='text-align: center;'>
                            <span style=""color: green; font-size: 40px""><b>正确！+1 pts</b></span></div>
                            ","","learn","5","5","5","learn","5","5","[0, 1, 2, 3, 4, 5, 6, 7, 8, 9]","73","7","setsize","10S10A","furniture","1","15","5","1",""
"null","null","fixation","html-keyboard-response","276","549358","0.0-1.0-7.0-3.0-0.74","17:55:39","2","","","","","","","fixation","","","","","","","","","","","","","","","","","","",""
"1145","2","pic_response","html-keyboard-response","277","550504","0.0-1.0-7.0-3.0-1.74","17:55:39","2","","","","","","","<div>
            <img class='stim' src=""pictures/furniture/1.jpg""></div><div class=""button_prompt"">
                    <b>请用数字键0-9回答</b>
                    </div>","","","","","","","","","","","","","","","","","","",""
"1145","null","sub_response","html-keyboard-response","278","551505","0.0-1.0-7.0-3.0-2.74","17:55:39","2","","","","","","","<div style='text-align: center;'>
                            <span style=""color: green; font-size: 40px""><b>正确！+1 pts</b></span></div>
                            ","","learn","1","1","1","learn","1","1","[0, 1, 2, 3, 4, 5, 6, 7, 8, 9]","74","7","setsize","10S10A","furniture","1","16","1","1",""
"null","null","fixation","html-keyboard-response","279","552007","0.0-1.0-7.0-3.0-0.75","17:55:39","2","","","","","","","fixation","","","","","","","","","","","","","","","","","","",""
"783","7","pic_response","html-keyboard-response","280","552790","0.0-1.0-7.0-3.0-1.75","17:55:39","2","","","","","","","<div>
            <img class='stim' src=""pictures/furniture/6.jpg""></div><div class=""button_prompt"">
                    <b>请用数字键0-9回答</b>
                    </div>","","","","","","","","","","","","","","","","","","",""
"783","null","sub_response","html-keyboard-response","281","553790","0.0-1.0-7.0-3.0-2.75","17:55:39","2","","","","","","","<div style='text-align: center;'>
                            <span style=""color: green; font-size: 40px""><b>正确！+1 pts</b></span></div>
                            ","","learn","6","6","6","learn","6","6","[0, 1, 2, 3, 4, 5, 6, 7, 8, 9]","75","7","setsize","10S10A","furniture","1","17","6","1",""
"null","null","fixation","html-keyboard-response","282","554292","0.0-1.0-7.0-3.0-0.76","17:55:39","2","","","","","","","fixation","","","","","","","","","","","","","","","","","","",""
"697","4","pic_response","html-keyboard-response","283","554989","0.0-1.0-7.0-3.0-1.76","17:55:39","2","","","","","","","<div>
            <img class='stim' src=""pictures/furniture/3.jpg""></div><div class=""button_prompt"">
                    <b>请用数字键0-9回答</b>
                    </div>","","","","","","","","","","","","","","","","","","",""
"697","null","sub_response","html-keyboard-response","284","555992","0.0-1.0-7.0-3.0-2.76","17:55:39","2","","","","","","","<div style='text-align: center;'>
                            <span style=""color: green; font-size: 40px""><b>正确！+1 pts</b></span></div>
                            ","","learn","3","3","3","learn","3","3","[0, 1, 2, 3, 4, 5, 6, 7, 8, 9]","76","7","setsize","10S10A","furniture","1","18","3","1",""
"null","null","fixation","html-keyboard-response","285","556493","0.0-1.0-7.0-3.0-0.77","17:55:39","2","","","","","","","fixation","","","","","","","","","","","","","","","","","","",""
"889","9","pic_response","html-keyboard-response","286","557382","0.0-1.0-7.0-3.0-1.77","17:55:39","2","","","","","","","<div>
            <img class='stim' src=""pictures/furniture/8.jpg""></div><div class=""button_prompt"">
                    <b>请用数字键0-9回答</b>
                    </div>","","","","","","","","","","","","","","","","","","",""
"889","null","sub_response","html-keyboard-response","287","558385","0.0-1.0-7.0-3.0-2.77","17:55:39","2","","","","","","","<div style='text-align: center;'>
                            <span style=""color: green; font-size: 40px""><b>正确！+1 pts</b></span></div>
                            ","","learn","8","8","8","learn","8","8","[0, 1, 2, 3, 4, 5, 6, 7, 8, 9]","77","7","setsize","10S10A","furniture","1","19","8","1",""
"null","null","fixation","html-keyboard-response","288","558886","0.0-1.0-7.0-3.0-0.78","17:55:39","2","","","","","","","fixation","","","","","","","","","","","","","","","","","","",""
"1232","1","pic_response","html-keyboard-response","289","560119","0.0-1.0-7.0-3.0-1.78","17:55:39","2","","","","","","","<div>
            <img class='stim' src=""pictures/furniture/0.jpg""></div><div class=""button_prompt"">
                    <b>请用数字键0-9回答</b>
                    </div>","","","","","","","","","","","","","","","","","","",""
"1232","null","sub_response","html-keyboard-response","290","561120","0.0-1.0-7.0-3.0-2.78","17:55:39","2","","","","","","","<div style='text-align: center;'>
                            <span style=""color: green; font-size: 40px""><b>正确！+1 pts</b></span></div>
                            ","","learn","0","0","0","learn","0","0","[0, 1, 2, 3, 4, 5, 6, 7, 8, 9]","78","7","setsize","10S10A","furniture","1","20","0","1",""
"null","null","fixation","html-keyboard-response","291","561622","0.0-1.0-7.0-3.0-0.79","17:55:39","2","","","","","","","fixation","","","","","","","","","","","","","","","","","","",""
"993","7","pic_response","html-keyboard-response","292","562616","0.0-1.0-7.0-3.0-1.79","17:55:39","2","","","","","","","<div>
            <img class='stim' src=""pictures/furniture/7.jpg""></div><div class=""button_prompt"">
                    <b>请用数字键0-9回答</b>
                    </div>","","","","","","","","","","","","","","","","","","",""
"993","null","sub_response","html-keyboard-response","293","563616","0.0-1.0-7.0-3.0-2.79","17:55:39","2","","","","","","","<div style='text-align: center;'>
                            <span style=""color: red; font-size: 40px""><b>错误！+0 pts</b></span></div>
                            ","","learn","7","7","7","learn","7","7","[0, 1, 2, 3, 4, 5, 6, 7, 8, 9]","79","7","setsize","10S10A","furniture","1","0","6","0",""
"null","null","fixation","html-keyboard-response","294","564118","0.0-1.0-7.0-3.0-0.80","17:55:39","2","","","","","","","fixation","","","","","","","","","","","","","","","","","","",""
"825","5","pic_response","html-keyboard-response","295","564944","0.0-1.0-7.0-3.0-1.80","17:55:39","2","","","","","","","<div>
            <img class='stim' src=""pictures/furniture/4.jpg""></div><div class=""button_prompt"">
                    <b>请用数字键0-9回答</b>
                    </div>","","","","","","","","","","","","","","","","","","",""
"825","null","sub_response","html-keyboard-response","296","565946","0.0-1.0-7.0-3.0-2.80","17:55:39","2","","","","","","","<div style='text-align: center;'>
                            <span style=""color: green; font-size: 40px""><b>正确！+1 pts</b></span></div>
                            ","","learn","4","4","4","learn","4","4","[0, 1, 2, 3, 4, 5, 6, 7, 8, 9]","80","8","setsize","10S10A","furniture","1","1","4","1",""
"null","null","fixation","html-keyboard-response","297","566448","0.0-1.0-7.0-3.0-0.81","17:55:39","2","","","","","","","fixation","","","","","","","","","","","","","","","","","","",""
"1117","4","pic_response","html-keyboard-response","298","567565","0.0-1.0-7.0-3.0-1.81","17:55:39","2","","","","","","","<div>
            <img class='stim' src=""pictures/furniture/3.jpg""></div><div class=""button_prompt"">
                    <b>请用数字键0-9回答</b>
                    </div>","","","","","","","","","","","","","","","","","","",""
"1117","null","sub_response","html-keyboard-response","299","568566","0.0-1.0-7.0-3.0-2.81","17:55:39","2","","","","","","","<div style='text-align: center;'>
                            <span style=""color: green; font-size: 40px""><b>正确！+1 pts</b></span></div>
                            ","","learn","3","3","3","learn","3","3","[0, 1, 2, 3, 4, 5, 6, 7, 8, 9]","81","8","setsize","10S10A","furniture","1","2","3","1",""
"null","null","fixation","html-keyboard-response","300","569067","0.0-1.0-7.0-3.0-0.82","17:55:39","2","","","","","","","fixation","","","","","","","","","","","","","","","","","","",""
"994","0","pic_response","html-keyboard-response","301","570061","0.0-1.0-7.0-3.0-1.82","17:55:39","2","","","","","","","<div>
            <img class='stim' src=""pictures/furniture/9.jpg""></div><div class=""button_prompt"">
                    <b>请用数字键0-9回答</b>
                    </div>","","","","","","","","","","","","","","","","","","",""
"994","null","sub_response","html-keyboard-response","302","571062","0.0-1.0-7.0-3.0-2.82","17:55:39","2","","","","","","","<div style='text-align: center;'>
                            <span style=""color: green; font-size: 40px""><b>正确！+1 pts</b></span></div>
                            ","","learn","9","9","9","learn","9","9","[0, 1, 2, 3, 4, 5, 6, 7, 8, 9]","82","8","setsize","10S10A","furniture","1","3","9","1",""
"null","null","fixation","html-keyboard-response","303","571563","0.0-1.0-7.0-3.0-0.83","17:55:39","2","","","","","","","fixation","","","","","","","","","","","","","","","","","","",""
"1714","9","pic_response","html-keyboard-response","304","573277","0.0-1.0-7.0-3.0-1.83","17:55:39","2","","","","","","","<div>
            <img class='stim' src=""pictures/furniture/8.jpg""></div><div class=""button_prompt"">
                    <b>请用数字键0-9回答</b>
                    </div>","","","","","","","","","","","","","","","","","","",""
"1714","null","sub_response","html-keyboard-response","305","574279","0.0-1.0-7.0-3.0-2.83","17:55:39","2","","","","","","","<div style='text-align: center;'>
                            <span style=""color: green; font-size: 40px""><b>正确！+1 pts</b></span></div>
                            ","","learn","8","8","8","learn","8","8","[0, 1, 2, 3, 4, 5, 6, 7, 8, 9]","83","8","setsize","10S10A","furniture","1","4","8","1",""
"null","null","fixation","html-keyboard-response","306","574781","0.0-1.0-7.0-3.0-0.84","17:55:39","2","","","","","","","fixation","","","","","","","","","","","","","","","","","","",""
"962","2","pic_response","html-keyboard-response","307","575744","0.0-1.0-7.0-3.0-1.84","17:55:39","2","","","","","","","<div>
            <img class='stim' src=""pictures/furniture/1.jpg""></div><div class=""button_prompt"">
                    <b>请用数字键0-9回答</b>
                    </div>","","","","","","","","","","","","","","","","","","",""
"962","null","sub_response","html-keyboard-response","308","576744","0.0-1.0-7.0-3.0-2.84","17:55:39","2","","","","","","","<div style='text-align: center;'>
                            <span style=""color: green; font-size: 40px""><b>正确！+1 pts</b></span></div>
                            ","","learn","1","1","1","learn","1","1","[0, 1, 2, 3, 4, 5, 6, 7, 8, 9]","84","8","setsize","10S10A","furniture","1","5","1","1",""
"null","null","fixation","html-keyboard-response","309","577245","0.0-1.0-7.0-3.0-0.85","17:55:39","2","","","","","","","fixation","","","","","","","","","","","","","","","","","","",""
"777","3","pic_response","html-keyboard-response","310","578022","0.0-1.0-7.0-3.0-1.85","17:55:39","2","","","","","","","<div>
            <img class='stim' src=""pictures/furniture/2.jpg""></div><div class=""button_prompt"">
                    <b>请用数字键0-9回答</b>
                    </div>","","","","","","","","","","","","","","","","","","",""
"777","null","sub_response","html-keyboard-response","311","579023","0.0-1.0-7.0-3.0-2.85","17:55:39","2","","","","","","","<div style='text-align: center;'>
                            <span style=""color: green; font-size: 40px""><b>正确！+1 pts</b></span></div>
                            ","","learn","2","2","2","learn","2","2","[0, 1, 2, 3, 4, 5, 6, 7, 8, 9]","85","8","setsize","10S10A","furniture","1","6","2","1",""
"null","null","fixation","html-keyboard-response","312","579538","0.0-1.0-7.0-3.0-0.86","17:55:39","2","","","","","","","fixation","","","","","","","","","","","","","","","","","","",""
"1412","6","pic_response","html-keyboard-response","313","580951","0.0-1.0-7.0-3.0-1.86","17:55:39","2","","","","","","","<div>
            <img class='stim' src=""pictures/furniture/5.jpg""></div><div class=""button_prompt"">
                    <b>请用数字键0-9回答</b>
                    </div>","","","","","","","","","","","","","","","","","","",""
"1412","null","sub_response","html-keyboard-response","314","581952","0.0-1.0-7.0-3.0-2.86","17:55:39","2","","","","","","","<div style='text-align: center;'>
                            <span style=""color: green; font-size: 40px""><b>正确！+1 pts</b></span></div>
