"rt","response","screen_id","trial_type","trial_index","time_elapsed","internal_node_id","start_time","n_Prac","success","timeout","failed_images","failed_audio","failed_video","view_history","stimulus","question_order","stage","s","word","word_id","phase","a_cor","a_real","a_ava","trial","tps","task_type","block_typ","pic_typ","block_id","cum_r","a","r","plugin_name"
"46454","{""sub_id"":""1400365"",""task_type"":""task1"",""name"":""张包包"",""gender"":""F""}","basic_info","survey-html-form","0","46456","0.0-0.0","23:46:15","4","","","","","","","","","","","","","","","","","","","","","","","","","",""
"","","","preload","1","47954","0.0-1.0-0.0","23:46:15","4","true","false","[]","[]","[]","","","","","","","","","","","","","","","","","","","","",""
"","","","preload","2","48182","0.0-1.0-1.0","23:46:15","4","true","false","[]","[]","[]","","","","","","","","","","","","","","","","","","","","",""
"","","","fullscreen","3","53456","0.0-1.0-2.0","23:46:15","4","true","","","","","","","","","","","","","","","","","","","","","","","","",""
"33783","","instruct","instructions","4","87240","0.0-1.0-3.0-0.0","23:46:15","4","","","","","","[{""page_index"":0,""viewing_time"":10252},{""page_index"":1,""viewing_time"":9404},{""page_index"":2,""viewing_time"":14128}]","","","","","","","","","","","","","","","","","","","",""
"25978","{""Q0"":"""",""task1"":""<span style='font-size: 24px'>学习图片和数字的对应关系</span>"",""task2"":""<span style='font-size: 24px'> ←, → </span>"",""task3"":""<span style='font-size: 24px'> 看到图片选出正确对应的数字 </span>""}","question","survey-multi-choice","5","113220","0.0-1.0-3.0-1.0","23:46:15","4","","","","","","","","[0,1,2,3]","","","","","","","","","","","","","","","","","",""
"3096"," ","inst_q","html-keyboard-response","6","116316","0.0-1.0-3.0-2.0","23:46:15","4","","","","","","","inst","","1","","","","","","","","","","","","","","","","",""
"4724","","instruct","instructions","7","121041","0.0-1.0-3.1-0.1","23:46:15","4","","","","","","[{""page_index"":0,""viewing_time"":2770},{""page_index"":1,""viewing_time"":570},{""page_index"":2,""viewing_time"":1383}]","","","","","","","","","","","","","","","","","","","",""
"6063","{""Q0"":"""",""task1"":""<span style='font-size: 24px'>学习图片和数字的对应关系</span>"",""task2"":""<span style='font-size: 24px'> 数字键1-3 </span>"",""task3"":""<span style='font-size: 24px'> 找到伦敦桥 </span>""}","question","survey-multi-choice","8","127105","0.0-1.0-3.1-1.1","23:46:15","4","","","","","","","","[0,1,2,3]","","","","","","","","","","","","","","","","","",""
"1483"," ","inst_q","html-keyboard-response","9","128589","0.0-1.0-3.1-2.1","23:46:15","4","","","","","","","inst","","1","","","","","","","","","","","","","","","","",""
"32016","","instruct","instructions","10","160605","0.0-1.0-3.2-0.2","23:46:15","4","","","","","","[{""page_index"":0,""viewing_time"":21245},{""page_index"":1,""viewing_time"":1680},{""page_index"":2,""viewing_time"":9090}]","","","","","","","","","","","","","","","","","","","",""
"25102","{""Q0"":"""",""task1"":""<span style='font-size: 24px'>学习图片和数字的对应关系</span>"",""task2"":""<span style='font-size: 24px'> 数字键1-3 </span>"",""task3"":""<span style='font-size: 24px'> 找到伦敦桥 </span>""}","question","survey-multi-choice","11","185707","0.0-1.0-3.2-1.2","23:46:15","4","","","","","","","","[0,1,2,3]","","","","","","","","","","","","","","","","","",""
"7478"," ","inst_q","html-keyboard-response","12","193185","0.0-1.0-3.2-2.2","23:46:15","4","","","","","","","inst","","1","","","","","","","","","","","","","","","","",""
"11721","","instruct","instructions","13","204907","0.0-1.0-3.3-0.3","23:46:15","4","","","","","","[{""page_index"":0,""viewing_time"":5088},{""page_index"":1,""viewing_time"":5377},{""page_index"":2,""viewing_time"":1257}]","","","","","","","","","","","","","","","","","","","",""
"3494","{""Q0"":"""",""task1"":""<span style='font-size: 24px'>学习图片和数字的对应关系</span>"",""task2"":""<span style='font-size: 24px'> 数字键1-3 </span>"",""task3"":""<span style='font-size: 24px'> 找到伦敦桥 </span>""}","question","survey-multi-choice","14","208401","0.0-1.0-3.3-1.3","23:46:15","4","","","","","","","","[0,1,2,3]","","","","","","","","","","","","","","","","","",""
"1548"," ","inst_q","html-keyboard-response","15","209949","0.0-1.0-3.3-2.3","23:46:15","4","","","","","","","inst","","1","","","","","","","","","","","","","","","","",""
"2580","","instruct","instructions","16","212530","0.0-1.0-3.4-0.4","23:46:15","4","","","","","","[{""page_index"":0,""viewing_time"":1732},{""page_index"":1,""viewing_time"":354},{""page_index"":2,""viewing_time"":495}]","","","","","","","","","","","","","","","","","","","",""
"5174","{""Q0"":"""",""task1"":""<span style='font-size: 24px'>选择正确按钮获得更多能量</span>"",""task2"":""<span style='font-size: 24px'> 数字键1-3 </span>"",""task3"":""<span style='font-size: 24px'> 找到伦敦桥 </span>""}","question","survey-multi-choice","17","217705","0.0-1.0-3.4-1.4","23:46:15","4","","","","","","","","[0,1,2,3]","","","","","","","","","","","","","","","","","",""
"1279"," ","inst_q","html-keyboard-response","18","218985","0.0-1.0-3.4-2.4","23:46:15","4","","","","","","","inst","","1","","","","","","","","","","","","","","","","",""
"89539","","instruct","instructions","19","308524","0.0-1.0-3.5-0.5","23:46:15","4","","","","","","[{""page_index"":0,""viewing_time"":1605},{""page_index"":1,""viewing_time"":85954},{""page_index"":2,""viewing_time"":1980}]","","","","","","","","","","","","","","","","","","","",""
"38332","{""Q0"":"""",""task1"":""<span style='font-size: 24px'>学习图片和数字的对应关系</span>"",""task2"":""<span style='font-size: 24px'> 图片下方标注为可用的数字键（数字键1-3或0-9） </span>"",""task3"":""<span style='font-size: 24px'> 猜测Queen Elizabeth住在哪一栋房子里 </span>""}","question","survey-multi-choice","20","346857","0.0-1.0-3.5-1.5","23:46:15","4","","","","","","","","[0,1,2,3]","","","","","","","","","","","","","","","","","",""
"7667"," ","inst_q","html-keyboard-response","21","354525","0.0-1.0-3.5-2.5","23:46:15","4","","","","","","","inst","","1","","","","","","","","","","","","","","","","",""
"2723","","instruct","instructions","22","357248","0.0-1.0-3.6-0.6","23:46:15","4","","","","","","[{""page_index"":0,""viewing_time"":1729},{""page_index"":1,""viewing_time"":374},{""page_index"":2,""viewing_time"":621}]","","","","","","","","","","","","","","","","","","","",""
"61476","{""Q0"":"""",""task1"":""<span style='font-size: 24px'>学习图片和数字的对应关系</span>"",""task2"":""<span style='font-size: 24px'> 图片下方标注为可用的数字键（数字键1-3或0-9） </span>"",""task3"":""<span style='font-size: 24px'> 看到图片选出正确对应的数字 </span>""}","question","survey-multi-choice","23","418726","0.0-1.0-3.6-1.6","23:46:15","4","","","","","","","","[0,1,2,3]","","","","","","","","","","","","","","","","","",""
"3939"," ","inst_q","html-keyboard-response","24","422665","0.0-1.0-3.6-2.6","23:46:15","4","","","","","","","inst","","1","","","","","","","","","","","","","","","","",""
"","","","preload","25","422912","0.0-1.0-4.0-0.0","23:46:15","4","true","false","[]","[]","[]","","","","","","","","","","","","","","","","","","","","",""
"14000"," ","","html-keyboard-response","26","436913","0.0-1.0-4.0-1.0","23:46:15","4","","","","","","","<div style='font-size: 32px; text-align: center;'
                    <p>请学习图片和数字之间的对应关系</p>
                    <p>我们将<span style='color: blue'><b> 告诉 </b></span>您选择的对错。请根据反馈学习。</p>
                    <p>请按""空格""继续实验。</p></div>","","","","","","","","","","","","","","","","","","",""
"11271"," ","inst","html-keyboard-response","27","448184","0.0-1.0-4.0-2.0","23:46:15","4","","","","","","","<img class='instruct_stim' src=""instruction/prac3.PNG""></div>","","","","","","","","","","","","","","","","","","",""
"null","null","fixation","html-keyboard-response","28","448685","0.0-1.0-4.0-3.0-0.0","23:46:15","4","","","","","","","fixation","","","","","","","","","","","","","","","","","","",""
"1435","1","pic_response","html-keyboard-response","29","450121","0.0-1.0-4.0-3.0-1.0","23:46:15","4","","","","","","","<div>
            <img class='stim' src=""pictures/prac/1.jpg""></div><div class=""button_prompt"">
                        <b>请用数字键1-3回答</b>
                        </div>","","","","","","","","","","","","","","","","","","",""
"1435","null","sub_response","html-keyboard-response","30","451123","0.0-1.0-4.0-3.0-2.0","23:46:15","4","","","","","","","<div style='text-align: center;'>
                            <span style=""color: green; font-size: 40px""><b>正确！+1 pts</b></span></div>
                            ","","learn","1","1","1","learn","0","0","[0, 1, 2]","0","0","setsize","99","prac","0","1","0","1",""
"null","null","fixation","html-keyboard-response","31","451625","0.0-1.0-4.0-3.0-0.1","23:46:15","4","","","","","","","fixation","","","","","","","","","","","","","","","","","","",""
"852","2","pic_response","html-keyboard-response","32","452477","0.0-1.0-4.0-3.0-1.1","23:46:15","4","","","","","","","<div>
            <img class='stim' src=""pictures/prac/2.jpg""></div><div class=""button_prompt"">
                        <b>请用数字键1-3回答</b>
                        </div>","","","","","","","","","","","","","","","","","","",""
"852","null","sub_response","html-keyboard-response","33","453478","0.0-1.0-4.0-3.0-2.1","23:46:15","4","","","","","","","<div style='text-align: center;'>
                            <span style=""color: red; font-size: 40px""><b>错误！+0 pts</b></span></div>
                            ","","learn","2","2","2","learn","2","2","[0, 1, 2]","1","0","setsize","99","prac","0","0","1","0",""
"null","null","fixation","html-keyboard-response","34","453979","0.0-1.0-4.0-3.0-0.2","23:46:15","4","","","","","","","fixation","","","","","","","","","","","","","","","","","","",""
"1268","2","pic_response","html-keyboard-response","35","455248","0.0-1.0-4.0-3.0-1.2","23:46:15","4","","","","","","","<div>
            <img class='stim' src=""pictures/prac/0.jpg""></div><div class=""button_prompt"">
                        <b>请用数字键1-3回答</b>
                        </div>","","","","","","","","","","","","","","","","","","",""
"1268","null","sub_response","html-keyboard-response","36","456249","0.0-1.0-4.0-3.0-2.2","23:46:15","4","","","","","","","<div style='text-align: center;'>
                            <span style=""color: red; font-size: 40px""><b>错误！+0 pts</b></span></div>
                            ","","learn","0","0","0","learn","0","0","[0, 1, 2]","2","0","setsize","99","prac","0","0","1","0",""
"null","null","fixation","html-keyboard-response","37","456750","0.0-1.0-4.0-3.0-0.3","23:46:15","4","","","","","","","fixation","","","","","","","","","","","","","","","","","","",""
"946","1","pic_response","html-keyboard-response","38","457697","0.0-1.0-4.0-3.0-1.3","23:46:15","4","","","","","","","<div>
            <img class='stim' src=""pictures/prac/1.jpg""></div><div class=""button_prompt"">
                        <b>请用数字键1-3回答</b>
                        </div>","","","","","","","","","","","","","","","","","","",""
"946","null","sub_response","html-keyboard-response","39","458712","0.0-1.0-4.0-3.0-2.3","23:46:15","4","","","","","","","<div style='text-align: center;'>
                            <span style=""color: green; font-size: 40px""><b>正确！+1 pts</b></span></div>
                            ","","learn","1","1","1","learn","0","0","[0, 1, 2]","3","1","setsize","99","prac","0","1","0","1",""
"null","null","fixation","html-keyboard-response","40","459213","0.0-1.0-4.0-3.0-0.4","23:46:15","4","","","","","","","fixation","","","","","","","","","","","","","","","","","","",""
"1124","3","pic_response","html-keyboard-response","41","460337","0.0-1.0-4.0-3.0-1.4","23:46:15","4","","","","","","","<div>
            <img class='stim' src=""pictures/prac/2.jpg""></div><div class=""button_prompt"">
                        <b>请用数字键1-3回答</b>
                        </div>","","","","","","","","","","","","","","","","","","",""
"1124","null","sub_response","html-keyboard-response","42","461340","0.0-1.0-4.0-3.0-2.4","23:46:15","4","","","","","","","<div style='text-align: center;'>
                            <span style=""color: green; font-size: 40px""><b>正确！+1 pts</b></span></div>
                            ","","learn","2","2","2","learn","2","2","[0, 1, 2]","4","1","setsize","99","prac","0","2","2","1",""
"null","null","fixation","html-keyboard-response","43","461841","0.0-1.0-4.0-3.0-0.5","23:46:15","4","","","","","","","fixation","","","","","","","","","","","","","","","","","","",""
"590","2","pic_response","html-keyboard-response","44","462431","0.0-1.0-4.0-3.0-1.5","23:46:15","4","","","","","","","<div>
            <img class='stim' src=""pictures/prac/0.jpg""></div><div class=""button_prompt"">
                        <b>请用数字键1-3回答</b>
                        </div>","","","","","","","","","","","","","","","","","","",""
"590","null","sub_response","html-keyboard-response","45","463432","0.0-1.0-4.0-3.0-2.5","23:46:15","4","","","","","","","<div style='text-align: center;'>
                            <span style=""color: red; font-size: 40px""><b>错误！+0 pts</b></span></div>
                            ","","learn","0","0","0","learn","0","0","[0, 1, 2]","5","1","setsize","99","prac","0","0","1","0",""
"","","","preload","46","463434","0.0-1.0-4.1-0.1","23:46:15","4","true","false","[]","[]","[]","","","","","","","","","","","","","","","","","","","","",""
"1925"," ","","html-keyboard-response","47","465359","0.0-1.0-4.1-1.1","23:46:15","4","","","","","","","<div style='font-size: 32px; text-align: center;'
                    <p>请学习图片和数字之间的对应关系</p>
                    <p>我们将<span style='color: blue'><b> 告诉 </b></span>您选择的对错。请根据反馈学习。</p>
                    <p>请按""空格""继续实验。</p></div>","","","","","","","","","","","","","","","","","","",""
"6214"," ","inst","html-keyboard-response","48","471574","0.0-1.0-4.1-2.1","23:46:15","4","","","","","","","<img class='instruct_stim' src=""instruction/prac3.PNG""></div>","","","","","","","","","","","","","","","","","","",""
"null","null","fixation","html-keyboard-response","49","472075","0.0-1.0-4.1-3.1-0.6","23:46:15","4","","","","","","","fixation","","","","","","","","","","","","","","","","","","",""
"471","1","pic_response","html-keyboard-response","50","472547","0.0-1.0-4.1-3.1-1.6","23:46:15","4","","","","","","","<div>
            <img class='stim' src=""pictures/prac/1.jpg""></div><div class=""button_prompt"">
                        <b>请用数字键1-3回答</b>
                        </div>","","","","","","","","","","","","","","","","","","",""
"471","null","sub_response","html-keyboard-response","51","473548","0.0-1.0-4.1-3.1-2.6","23:46:15","4","","","","","","","<div style='text-align: center;'>
                            <span style=""color: green; font-size: 40px""><b>正确！+1 pts</b></span></div>
                            ","","learn","1","1","1","learn","0","0","[0, 1, 2]","0","0","setsize","99","prac","0","1","0","1",""
"null","null","fixation","html-keyboard-response","52","474049","0.0-1.0-4.1-3.1-0.7","23:46:15","4","","","","","","","fixation","","","","","","","","","","","","","","","","","","",""
"640","3","pic_response","html-keyboard-response","53","474689","0.0-1.0-4.1-3.1-1.7","23:46:15","4","","","","","","","<div>
            <img class='stim' src=""pictures/prac/2.jpg""></div><div class=""button_prompt"">
                        <b>请用数字键1-3回答</b>
                        </div>","","","","","","","","","","","","","","","","","","",""
"640","null","sub_response","html-keyboard-response","54","475690","0.0-1.0-4.1-3.1-2.7","23:46:15","4","","","","","","","<div style='text-align: center;'>
                            <span style=""color: green; font-size: 40px""><b>正确！+1 pts</b></span></div>
                            ","","learn","2","2","2","learn","2","2","[0, 1, 2]","1","0","setsize","99","prac","0","2","2","1",""
"null","null","fixation","html-keyboard-response","55","476191","0.0-1.0-4.1-3.1-0.8","23:46:15","4","","","","","","","fixation","","","","","","","","","","","","","","","","","","",""
"101","3","pic_response","html-keyboard-response","56","476295","0.0-1.0-4.1-3.1-1.8","23:46:15","4","","","","","","","<div>
            <img class='stim' src=""pictures/prac/0.jpg""></div><div class=""button_prompt"">
                        <b>请用数字键1-3回答</b>
                        </div>","","","","","","","","","","","","","","","","","","",""
"101","null","sub_response","html-keyboard-response","57","477303","0.0-1.0-4.1-3.1-2.8","23:46:15","4","","","","","","","<div style='text-align: center;'>
                            <span style=""color: red; font-size: 40px""><b>错误！+0 pts</b></span></div>
                            ","","learn","0","0","0","learn","0","0","[0, 1, 2]","2","0","setsize","99","prac","0","0","2","0",""
"null","null","fixation","html-keyboard-response","58","477804","0.0-1.0-4.1-3.1-0.9","23:46:15","4","","","","","","","fixation","","","","","","","","","","","","","","","","","","",""
"555","1","pic_response","html-keyboard-response","59","478360","0.0-1.0-4.1-3.1-1.9","23:46:15","4","","","","","","","<div>
            <img class='stim' src=""pictures/prac/1.jpg""></div><div class=""button_prompt"">
                        <b>请用数字键1-3回答</b>
                        </div>","","","","","","","","","","","","","","","","","","",""
"555","null","sub_response","html-keyboard-response","60","479376","0.0-1.0-4.1-3.1-2.9","23:46:15","4","","","","","","","<div style='text-align: center;'>
                            <span style=""color: green; font-size: 40px""><b>正确！+1 pts</b></span></div>
                            ","","learn","1","1","1","learn","0","0","[0, 1, 2]","3","1","setsize","99","prac","0","1","0","1",""
"null","null","fixation","html-keyboard-response","61","479877","0.0-1.0-4.1-3.1-0.10","23:46:15","4","","","","","","","fixation","","","","","","","","","","","","","","","","","","",""
"512","3","pic_response","html-keyboard-response","62","480389","0.0-1.0-4.1-3.1-1.10","23:46:15","4","","","","","","","<div>
            <img class='stim' src=""pictures/prac/2.jpg""></div><div class=""button_prompt"">
                        <b>请用数字键1-3回答</b>
                        </div>","","","","","","","","","","","","","","","","","","",""
"512","null","sub_response","html-keyboard-response","63","481390","0.0-1.0-4.1-3.1-2.10","23:46:15","4","","","","","","","<div style='text-align: center;'>
                            <span style=""color: green; font-size: 40px""><b>正确！+1 pts</b></span></div>
                            ","","learn","2","2","2","learn","2","2","[0, 1, 2]","4","1","setsize","99","prac","0","2","2","1",""
"null","null","fixation","html-keyboard-response","64","481891","0.0-1.0-4.1-3.1-0.11","23:46:15","4","","","","","","","fixation","","","","","","","","","","","","","","","","","","",""
"268","2","pic_response","html-keyboard-response","65","482159","0.0-1.0-4.1-3.1-1.11","23:46:15","4","","","","","","","<div>
            <img class='stim' src=""pictures/prac/0.jpg""></div><div class=""button_prompt"">
                        <b>请用数字键1-3回答</b>
                        </div>","","","","","","","","","","","","","","","","","","",""
"268","null","sub_response","html-keyboard-response","66","483160","0.0-1.0-4.1-3.1-2.11","23:46:15","4","","","","","","","<div style='text-align: center;'>
                            <span style=""color: red; font-size: 40px""><b>错误！+0 pts</b></span></div>
                            ","","learn","0","0","0","learn","0","0","[0, 1, 2]","5","1","setsize","99","prac","0","0","1","0",""
"","","","preload","67","483162","0.0-1.0-4.2-0.2","23:46:15","4","true","false","[]","[]","[]","","","","","","","","","","","","","","","","","","","","",""
"683"," ","","html-keyboard-response","68","483845","0.0-1.0-4.2-1.2","23:46:15","4","","","","","","","<div style='font-size: 32px; text-align: center;'
                    <p>请学习图片和数字之间的对应关系</p>
                    <p>我们将<span style='color: blue'><b> 告诉 </b></span>您选择的对错。请根据反馈学习。</p>
                    <p>请按""空格""继续实验。</p></div>","","","","","","","","","","","","","","","","","","",""
"958"," ","inst","html-keyboard-response","69","484803","0.0-1.0-4.2-2.2","23:46:15","4","","","","","","","<img class='instruct_stim' src=""instruction/prac3.PNG""></div>","","","","","","","","","","","","","","","","","","",""
"null","null","fixation","html-keyboard-response","70","485304","0.0-1.0-4.2-3.2-0.12","23:46:15","4","","","","","","","fixation","","","","","","","","","","","","","","","","","","",""
"118","1","pic_response","html-keyboard-response","71","485423","0.0-1.0-4.2-3.2-1.12","23:46:15","4","","","","","","","<div>
            <img class='stim' src=""pictures/prac/1.jpg""></div><div class=""button_prompt"">
                        <b>请用数字键1-3回答</b>
                        </div>","","","","","","","","","","","","","","","","","","",""
"118","null","sub_response","html-keyboard-response","72","486424","0.0-1.0-4.2-3.2-2.12","23:46:15","4","","","","","","","<div style='text-align: center;'>
                            <span style=""color: green; font-size: 40px""><b>正确！+1 pts</b></span></div>
                            ","","learn","1","1","1","learn","0","0","[0, 1, 2]","0","0","setsize","99","prac","0","1","0","1",""
"null","null","fixation","html-keyboard-response","73","486926","0.0-1.0-4.2-3.2-0.13","23:46:15","4","","","","","","","fixation","","","","","","","","","","","","","","","","","","",""
"1286","1","pic_response","html-keyboard-response","74","488212","0.0-1.0-4.2-3.2-1.13","23:46:15","4","","","","","","","<div>
            <img class='stim' src=""pictures/prac/2.jpg""></div><div class=""button_prompt"">
                        <b>请用数字键1-3回答</b>
                        </div>","","","","","","","","","","","","","","","","","","",""
"1286","null","sub_response","html-keyboard-response","75","489214","0.0-1.0-4.2-3.2-2.13","23:46:15","4","","","","","","","<div style='text-align: center;'>
                            <span style=""color: red; font-size: 40px""><b>错误！+0 pts</b></span></div>
                            ","","learn","2","2","2","learn","2","2","[0, 1, 2]","1","0","setsize","99","prac","0","0","0","0",""
"null","null","fixation","html-keyboard-response","76","489729","0.0-1.0-4.2-3.2-0.14","23:46:15","4","","","","","","","fixation","","","","","","","","","","","","","","","","","","",""
"856","3","pic_response","html-keyboard-response","77","490586","0.0-1.0-4.2-3.2-1.14","23:46:15","4","","","","","","","<div>
            <img class='stim' src=""pictures/prac/0.jpg""></div><div class=""button_prompt"">
                        <b>请用数字键1-3回答</b>
                        </div>","","","","","","","","","","","","","","","","","","",""
"856","null","sub_response","html-keyboard-response","78","491587","0.0-1.0-4.2-3.2-2.14","23:46:15","4","","","","","","","<div style='text-align: center;'>
                            <span style=""color: red; font-size: 40px""><b>错误！+0 pts</b></span></div>
                            ","","learn","0","0","0","learn","0","0","[0, 1, 2]","2","0","setsize","99","prac","0","0","2","0",""
"null","null","fixation","html-keyboard-response","79","492089","0.0-1.0-4.2-3.2-0.15","23:46:15","4","","","","","","","fixation","","","","","","","","","","","","","","","","","","",""
"574","1","pic_response","html-keyboard-response","80","492663","0.0-1.0-4.2-3.2-1.15","23:46:15","4","","","","","","","<div>
            <img class='stim' src=""pictures/prac/1.jpg""></div><div class=""button_prompt"">
                        <b>请用数字键1-3回答</b>
                        </div>","","","","","","","","","","","","","","","","","","",""
"574","null","sub_response","html-keyboard-response","81","493663","0.0-1.0-4.2-3.2-2.15","23:46:15","4","","","","","","","<div style='text-align: center;'>
                            <span style=""color: green; font-size: 40px""><b>正确！+1 pts</b></span></div>
                            ","","learn","1","1","1","learn","0","0","[0, 1, 2]","3","1","setsize","99","prac","0","1","0","1",""
"null","null","fixation","html-keyboard-response","82","494177","0.0-1.0-4.2-3.2-0.16","23:46:15","4","","","","","","","fixation","","","","","","","","","","","","","","","","","","",""
"590","3","pic_response","html-keyboard-response","83","494768","0.0-1.0-4.2-3.2-1.16","23:46:15","4","","","","","","","<div>
            <img class='stim' src=""pictures/prac/2.jpg""></div><div class=""button_prompt"">
                        <b>请用数字键1-3回答</b>
                        </div>","","","","","","","","","","","","","","","","","","",""
"590","null","sub_response","html-keyboard-response","84","495769","0.0-1.0-4.2-3.2-2.16","23:46:15","4","","","","","","","<div style='text-align: center;'>
                            <span style=""color: green; font-size: 40px""><b>正确！+1 pts</b></span></div>
                            ","","learn","2","2","2","learn","2","2","[0, 1, 2]","4","1","setsize","99","prac","0","2","2","1",""
"null","null","fixation","html-keyboard-response","85","496271","0.0-1.0-4.2-3.2-0.17","23:46:15","4","","","","","","","fixation","","","","","","","","","","","","","","","","","","",""
"333","1","pic_response","html-keyboard-response","86","496605","0.0-1.0-4.2-3.2-1.17","23:46:15","4","","","","","","","<div>
            <img class='stim' src=""pictures/prac/0.jpg""></div><div class=""button_prompt"">
                        <b>请用数字键1-3回答</b>
                        </div>","","","","","","","","","","","","","","","","","","",""
"333","null","sub_response","html-keyboard-response","87","497607","0.0-1.0-4.2-3.2-2.17","23:46:15","4","","","","","","","<div style='text-align: center;'>
                            <span style=""color: green; font-size: 40px""><b>正确！+1 pts</b></span></div>
                            ","","learn","0","0","0","learn","0","0","[0, 1, 2]","5","1","setsize","99","prac","0","3","0","1",""
"","","","preload","88","497608","0.0-1.0-4.3-0.3","23:46:15","4","true","false","[]","[]","[]","","","","","","","","","","","","","","","","","","","","",""
"519"," ","","html-keyboard-response","89","498128","0.0-1.0-4.3-1.3","23:46:15","4","","","","","","","<div style='font-size: 32px; text-align: center;'
                    <p>请学习图片和数字之间的对应关系</p>
                    <p>我们将<span style='color: blue'><b> 告诉 </b></span>您选择的对错。请根据反馈学习。</p>
                    <p>请按""空格""继续实验。</p></div>","","","","","","","","","","","","","","","","","","",""
"991"," ","inst","html-keyboard-response","90","499119","0.0-1.0-4.3-2.3","23:46:15","4","","","","","","","<img class='instruct_stim' src=""instruction/prac3.PNG""></div>","","","","","","","","","","","","","","","","","","",""
"null","null","fixation","html-keyboard-response","91","499620","0.0-1.0-4.3-3.3-0.18","23:46:15","4","","","","","","","fixation","","","","","","","","","","","","","","","","","","",""
"875","1","pic_response","html-keyboard-response","92","500495","0.0-1.0-4.3-3.3-1.18","23:46:15","4","","","","","","","<div>
            <img class='stim' src=""pictures/prac/1.jpg""></div><div class=""button_prompt"">
                        <b>请用数字键1-3回答</b>
                        </div>","","","","","","","","","","","","","","","","","","",""
"875","null","sub_response","html-keyboard-response","93","501497","0.0-1.0-4.3-3.3-2.18","23:46:15","4","","","","","","","<div style='text-align: center;'>
                            <span style=""color: green; font-size: 40px""><b>正确！+1 pts</b></span></div>
                            ","","learn","1","1","1","learn","0","0","[0, 1, 2]","0","0","setsize","99","prac","0","4","0","1",""
"null","null","fixation","html-keyboard-response","94","501998","0.0-1.0-4.3-3.3-0.19","23:46:15","4","","","","","","","fixation","","","","","","","","","","","","","","","","","","",""
"411","3","pic_response","html-keyboard-response","95","502410","0.0-1.0-4.3-3.3-1.19","23:46:15","4","","","","","","","<div>
            <img class='stim' src=""pictures/prac/2.jpg""></div><div class=""button_prompt"">
                        <b>请用数字键1-3回答</b>
                        </div>","","","","","","","","","","","","","","","","","","",""
"411","null","sub_response","html-keyboard-response","96","503411","0.0-1.0-4.3-3.3-2.19","23:46:15","4","","","","","","","<div style='text-align: center;'>
                            <span style=""color: green; font-size: 40px""><b>正确！+1 pts</b></span></div>
                            ","","learn","2","2","2","learn","2","2","[0, 1, 2]","1","0","setsize","99","prac","0","5","2","1",""
"null","null","fixation","html-keyboard-response","97","503911","0.0-1.0-4.3-3.3-0.20","23:46:15","4","","","","","","","fixation","","","","","","","","","","","","","","","","","","",""
"393","1","pic_response","html-keyboard-response","98","504305","0.0-1.0-4.3-3.3-1.20","23:46:15","4","","","","","","","<div>
            <img class='stim' src=""pictures/prac/0.jpg""></div><div class=""button_prompt"">
                        <b>请用数字键1-3回答</b>
                        </div>","","","","","","","","","","","","","","","","","","",""
"393","null","sub_response","html-keyboard-response","99","505307","0.0-1.0-4.3-3.3-2.20","23:46:15","4","","","","","","","<div style='text-align: center;'>
                            <span style=""color: green; font-size: 40px""><b>正确！+1 pts</b></span></div>
                            ","","learn","0","0","0","learn","0","0","[0, 1, 2]","2","0","setsize","99","prac","0","6","0","1",""
"null","null","fixation","html-keyboard-response","100","505808","0.0-1.0-4.3-3.3-0.21","23:46:15","4","","","","","","","fixation","","","","","","","","","","","","","","","","","","",""
"376","1","pic_response","html-keyboard-response","101","506185","0.0-1.0-4.3-3.3-1.21","23:46:15","4","","","","","","","<div>
            <img class='stim' src=""pictures/prac/1.jpg""></div><div class=""button_prompt"">
                        <b>请用数字键1-3回答</b>
                        </div>","","","","","","","","","","","","","","","","","","",""
"376","null","sub_response","html-keyboard-response","102","507186","0.0-1.0-4.3-3.3-2.21","23:46:15","4","","","","","","","<div style='text-align: center;'>
                            <span style=""color: green; font-size: 40px""><b>正确！+1 pts</b></span></div>
                            ","","learn","1","1","1","learn","0","0","[0, 1, 2]","3","1","setsize","99","prac","0","7","0","1",""
"null","null","fixation","html-keyboard-response","103","507687","0.0-1.0-4.3-3.3-0.22","23:46:15","4","","","","","","","fixation","","","","","","","","","","","","","","","","","","",""
"546","3","pic_response","html-keyboard-response","104","508234","0.0-1.0-4.3-3.3-1.22","23:46:15","4","","","","","","","<div>
            <img class='stim' src=""pictures/prac/2.jpg""></div><div class=""button_prompt"">
                        <b>请用数字键1-3回答</b>
                        </div>","","","","","","","","","","","","","","","","","","",""
"546","null","sub_response","html-keyboard-response","105","509241","0.0-1.0-4.3-3.3-2.22","23:46:15","4","","","","","","","<div style='text-align: center;'>
                            <span style=""color: green; font-size: 40px""><b>正确！+1 pts</b></span></div>
                            ","","learn","2","2","2","learn","2","2","[0, 1, 2]","4","1","setsize","99","prac","0","8","2","1",""
"null","null","fixation","html-keyboard-response","106","509743","0.0-1.0-4.3-3.3-0.23","23:46:15","4","","","","","","","fixation","","","","","","","","","","","","","","","","","","",""
"545","1","pic_response","html-keyboard-response","107","510289","0.0-1.0-4.3-3.3-1.23","23:46:15","4","","","","","","","<div>
            <img class='stim' src=""pictures/prac/0.jpg""></div><div class=""button_prompt"">
                        <b>请用数字键1-3回答</b>
                        </div>","","","","","","","","","","","","","","","","","","",""
"545","null","sub_response","html-keyboard-response","108","511290","0.0-1.0-4.3-3.3-2.23","23:46:15","4","","","","","","","<div style='text-align: center;'>
                            <span style=""color: green; font-size: 40px""><b>正确！+1 pts</b></span></div>
                            ","","learn","0","0","0","learn","0","0","[0, 1, 2]","5","1","setsize","99","prac","0","9","0","1",""
"1852"," ","","html-keyboard-response","109","513142","0.0-1.0-5.0","23:46:15","4","","","","","","","<div style=""font-size: 25px""><p>距下一个实验开始还有</p><div style=""font-size: 50px; color: blue""><p><span id=""clock"">1:00</span></div></p><p>按""空格""跳过休息</p></div>","","","","","","","","","","","","","","","","","","",""
"671"," ","","html-keyboard-response","110","513814","0.0-1.0-6.0","23:46:15","4","","","","","","","<div style='font-size: 32px; text-align: center;'
                    <p>请按""空格""继续正式实验。</p></div>","","","","","","","","","","","","","","","","","","",""
"","","","preload","111","514157","0.0-1.0-7.0-0.0","23:46:15","4","true","false","[]","[]","[]","","","","","","","","","","","","","","","","","","","","",""
"1516"," ","","html-keyboard-response","112","515673","0.0-1.0-7.0-1.0","23:46:15","4","","","","","","","<div style='font-size: 32px; text-align: center;'
                    <p>请学习图片和数字之间的对应关系</p>
                    <p>我们将<span style='color: blue'><b> 告诉 </b></span>您选择的对错。请根据反馈学习。</p>
                    <p>请按""空格""继续实验。</p></div>","","","","","","","","","","","","","","","","","","",""
"5277"," ","inst","html-keyboard-response","113","520951","0.0-1.0-7.0-2.0","23:46:15","4","","","","","","","<img class='instruct_stim' src=""instruction/furniture3.PNG""></div>","","","","","","","","","","","","","","","","","","",""
"null","null","fixation","html-keyboard-response","114","521452","0.0-1.0-7.0-3.0-0.0","23:46:15","4","","","","","","","fixation","","","","","","","","","","","","","","","","","","",""
"816","2","pic_response","html-keyboard-response","115","522268","0.0-1.0-7.0-3.0-1.0","23:46:15","4","","","","","","","<div>
            <img class='stim' src=""pictures/furniture/2.jpg""></div><div class=""button_prompt"">
                        <b>请用数字键1-3回答</b>
                        </div>","","","","","","","","","","","","","","","","","","",""
"816","null","sub_response","html-keyboard-response","116","523269","0.0-1.0-7.0-3.0-2.0","23:46:15","4","","","","","","","<div style='text-align: center;'>
                            <span style=""color: red; font-size: 40px""><b>错误！+0 pts</b></span></div>
                            ","","learn","2","2","2","learn","2","2","[0, 1, 2]","0","0","setsize","3S3A","furniture","1","0","1","0",""
"null","null","fixation","html-keyboard-response","117","523771","0.0-1.0-7.0-3.0-0.1","23:46:15","4","","","","","","","fixation","","","","","","","","","","","","","","","","","","",""
"366","3","pic_response","html-keyboard-response","118","524137","0.0-1.0-7.0-3.0-1.1","23:46:15","4","","","","","","","<div>
            <img class='stim' src=""pictures/furniture/1.jpg""></div><div class=""button_prompt"">
                        <b>请用数字键1-3回答</b>
                        </div>","","","","","","","","","","","","","","","","","","",""
"366","null","sub_response","html-keyboard-response","119","525138","0.0-1.0-7.0-3.0-2.1","23:46:15","4","","","","","","","<div style='text-align: center;'>
                            <span style=""color: red; font-size: 40px""><b>错误！+0 pts</b></span></div>
                            ","","learn","1","1","1","learn","0","0","[0, 1, 2]","1","0","setsize","3S3A","furniture","1","0","2","0",""
"null","null","fixation","html-keyboard-response","120","525640","0.0-1.0-7.0-3.0-0.2","23:46:15","4","","","","","","","fixation","","","","","","","","","","","","","","","","","","",""
"660","3","pic_response","html-keyboard-response","121","526300","0.0-1.0-7.0-3.0-1.2","23:46:15","4","","","","","","","<div>
            <img class='stim' src=""pictures/furniture/0.jpg""></div><div class=""button_prompt"">
                        <b>请用数字键1-3回答</b>
                        </div>","","","","","","","","","","","","","","","","","","",""
"660","null","sub_response","html-keyboard-response","122","527303","0.0-1.0-7.0-3.0-2.2","23:46:15","4","","","","","","","<div style='text-align: center;'>
                            <span style=""color: red; font-size: 40px""><b>错误！+0 pts</b></span></div>
                            ","","learn","0","0","0","learn","0","0","[0, 1, 2]","2","0","setsize","3S3A","furniture","1","0","2","0",""
"null","null","fixation","html-keyboard-response","123","527804","0.0-1.0-7.0-3.0-0.3","23:46:15","4","","","","","","","fixation","","","","","","","","","","","","","","","","","","",""
"705","3","pic_response","html-keyboard-response","124","528510","0.0-1.0-7.0-3.0-1.3","23:46:15","4","","","","","","","<div>
            <img class='stim' src=""pictures/furniture/0.jpg""></div><div class=""button_prompt"">
                        <b>请用数字键1-3回答</b>
                        </div>","","","","","","","","","","","","","","","","","","",""
"705","null","sub_response","html-keyboard-response","125","529511","0.0-1.0-7.0-3.0-2.3","23:46:15","4","","","","","","","<div style='text-align: center;'>
                            <span style=""color: red; font-size: 40px""><b>错误！+0 pts</b></span></div>
                            ","","learn","0","0","0","learn","0","0","[0, 1, 2]","3","1","setsize","3S3A","furniture","1","0","2","0",""
"null","null","fixation","html-keyboard-response","126","530013","0.0-1.0-7.0-3.0-0.4","23:46:15","4","","","","","","","fixation","","","","","","","","","","","","","","","","","","",""
"721","1","pic_response","html-keyboard-response","127","530735","0.0-1.0-7.0-3.0-1.4","23:46:15","4","","","","","","","<div>
            <img class='stim' src=""pictures/furniture/1.jpg""></div><div class=""button_prompt"">
                        <b>请用数字键1-3回答</b>
                        </div>","","","","","","","","","","","","","","","","","","",""
"721","null","sub_response","html-keyboard-response","128","531736","0.0-1.0-7.0-3.0-2.4","23:46:15","4","","","","","","","<div style='text-align: center;'>
                            <span style=""color: green; font-size: 40px""><b>正确！+1 pts</b></span></div>
                            ","","learn","1","1","1","learn","0","0","[0, 1, 2]","4","1","setsize","3S3A","furniture","1","1","0","1",""
"null","null","fixation","html-keyboard-response","129","532238","0.0-1.0-7.0-3.0-0.5","23:46:15","4","","","","","","","fixation","","","","","","","","","","","","","","","","","","",""
"792","2","pic_response","html-keyboard-response","130","533031","0.0-1.0-7.0-3.0-1.5","23:46:15","4","","","","","","","<div>
            <img class='stim' src=""pictures/furniture/2.jpg""></div><div class=""button_prompt"">
                        <b>请用数字键1-3回答</b>
                        </div>","","","","","","","","","","","","","","","","","","",""
"792","null","sub_response","html-keyboard-response","131","534033","0.0-1.0-7.0-3.0-2.5","23:46:15","4","","","","","","","<div style='text-align: center;'>
                            <span style=""color: red; font-size: 40px""><b>错误！+0 pts</b></span></div>
                            ","","learn","2","2","2","learn","2","2","[0, 1, 2]","5","1","setsize","3S3A","furniture","1","0","1","0",""
"null","null","fixation","html-keyboard-response","132","534535","0.0-1.0-7.0-3.0-0.6","23:46:15","4","","","","","","","fixation","","","","","","","","","","","","","","","","","","",""
"886","1","pic_response","html-keyboard-response","133","535421","0.0-1.0-7.0-3.0-1.6","23:46:15","4","","","","","","","<div>
            <img class='stim' src=""pictures/furniture/0.jpg""></div><div class=""button_prompt"">
                        <b>请用数字键1-3回答</b>
                        </div>","","","","","","","","","","","","","","","","","","",""
"886","null","sub_response","html-keyboard-response","134","536423","0.0-1.0-7.0-3.0-2.6","23:46:15","4","","","","","","","<div style='text-align: center;'>
                            <span style=""color: green; font-size: 40px""><b>正确！+1 pts</b></span></div>
                            ","","learn","0","0","0","learn","0","0","[0, 1, 2]","6","2","setsize","3S3A","furniture","1","1","0","1",""
"null","null","fixation","html-keyboard-response","135","536925","0.0-1.0-7.0-3.0-0.7","23:46:15","4","","","","","","","fixation","","","","","","","","","","","","","","","","","","",""
"767","1","pic_response","html-keyboard-response","136","537693","0.0-1.0-7.0-3.0-1.7","23:46:15","4","","","","","","","<div>
            <img class='stim' src=""pictures/furniture/1.jpg""></div><div class=""button_prompt"">
                        <b>请用数字键1-3回答</b>
                        </div>","","","","","","","","","","","","","","","","","","",""
"767","null","sub_response","html-keyboard-response","137","538694","0.0-1.0-7.0-3.0-2.7","23:46:15","4","","","","","","","<div style='text-align: center;'>
                            <span style=""color: green; font-size: 40px""><b>正确！+1 pts</b></span></div>
                            ","","learn","1","1","1","learn","0","0","[0, 1, 2]","7","2","setsize","3S3A","furniture","1","2","0","1",""
"null","null","fixation","html-keyboard-response","138","539196","0.0-1.0-7.0-3.0-0.8","23:46:15","4","","","","","","","fixation","","","","","","","","","","","","","","","","","","",""
"69","1","pic_response","html-keyboard-response","139","539265","0.0-1.0-7.0-3.0-1.8","23:46:15","4","","","","","","","<div>
            <img class='stim' src=""pictures/furniture/2.jpg""></div><div class=""button_prompt"">
                        <b>请用数字键1-3回答</b>
                        </div>","","","","","","","","","","","","","","","","","","",""
"69","null","sub_response","html-keyboard-response","140","540266","0.0-1.0-7.0-3.0-2.8","23:46:15","4","","","","","","","<div style='text-align: center;'>
                            <span style=""color: red; font-size: 40px""><b>错误！+0 pts</b></span></div>
                            ","","learn","2","2","2","learn","2","2","[0, 1, 2]","8","2","setsize","3S3A","furniture","1","0","0","0",""
"null","null","fixation","html-keyboard-response","141","540768","0.0-1.0-7.0-3.0-0.9","23:46:15","4","","","","","","","fixation","","","","","","","","","","","","","","","","","","",""
"778","1","pic_response","html-keyboard-response","142","541546","0.0-1.0-7.0-3.0-1.9","23:46:15","4","","","","","","","<div>
            <img class='stim' src=""pictures/furniture/1.jpg""></div><div class=""button_prompt"">
                        <b>请用数字键1-3回答</b>
                        </div>","","","","","","","","","","","","","","","","","","",""
"778","null","sub_response","html-keyboard-response","143","542547","0.0-1.0-7.0-3.0-2.9","23:46:15","4","","","","","","","<div style='text-align: center;'>
                            <span style=""color: green; font-size: 40px""><b>正确！+1 pts</b></span></div>
                            ","","learn","1","1","1","learn","0","0","[0, 1, 2]","9","3","setsize","3S3A","furniture","1","1","0","1",""
"null","null","fixation","html-keyboard-response","144","543049","0.0-1.0-7.0-3.0-0.10","23:46:15","4","","","","","","","fixation","","","","","","","","","","","","","","","","","","",""
"1040","1","pic_response","html-keyboard-response","145","544090","0.0-1.0-7.0-3.0-1.10","23:46:15","4","","","","","","","<div>
            <img class='stim' src=""pictures/furniture/0.jpg""></div><div class=""button_prompt"">
                        <b>请用数字键1-3回答</b>
                        </div>","","","","","","","","","","","","","","","","","","",""
"1040","null","sub_response","html-keyboard-response","146","545093","0.0-1.0-7.0-3.0-2.10","23:46:15","4","","","","","","","<div style='text-align: center;'>
                            <span style=""color: green; font-size: 40px""><b>正确！+1 pts</b></span></div>
                            ","","learn","0","0","0","learn","0","0","[0, 1, 2]","10","3","setsize","3S3A","furniture","1","2","0","1",""
"null","null","fixation","html-keyboard-response","147","545595","0.0-1.0-7.0-3.0-0.11","23:46:15","4","","","","","","","fixation","","","","","","","","","","","","","","","","","","",""
"446","2","pic_response","html-keyboard-response","148","546041","0.0-1.0-7.0-3.0-1.11","23:46:15","4","","","","","","","<div>
            <img class='stim' src=""pictures/furniture/2.jpg""></div><div class=""button_prompt"">
                        <b>请用数字键1-3回答</b>
                        </div>","","","","","","","","","","","","","","","","","","",""
"446","null","sub_response","html-keyboard-response","149","547042","0.0-1.0-7.0-3.0-2.11","23:46:15","4","","","","","","","<div style='text-align: center;'>
                            <span style=""color: red; font-size: 40px""><b>错误！+0 pts</b></span></div>
                            ","","learn","2","2","2","learn","2","2","[0, 1, 2]","11","3","setsize","3S3A","furniture","1","0","1","0",""
"null","null","fixation","html-keyboard-response","150","547543","0.0-1.0-7.0-3.0-0.12","23:46:15","4","","","","","","","fixation","","","","","","","","","","","","","","","","","","",""
"868","3","pic_response","html-keyboard-response","151","548412","0.0-1.0-7.0-3.0-1.12","23:46:15","4","","","","","","","<div>
            <img class='stim' src=""pictures/furniture/2.jpg""></div><div class=""button_prompt"">
                        <b>请用数字键1-3回答</b>
                        </div>","","","","","","","","","","","","","","","","","","",""
"868","null","sub_response","html-keyboard-response","152","549413","0.0-1.0-7.0-3.0-2.12","23:46:15","4","","","","","","","<div style='text-align: center;'>
                            <span style=""color: green; font-size: 40px""><b>正确！+1 pts</b></span></div>
                            ","","learn","2","2","2","learn","2","2","[0, 1, 2]","12","4","setsize","3S3A","furniture","1","1","2","1",""
"null","null","fixation","html-keyboard-response","153","549914","0.0-1.0-7.0-3.0-0.13","23:46:15","4","","","","","","","fixation","","","","","","","","","","","","","","","","","","",""
"695","1","pic_response","html-keyboard-response","154","550610","0.0-1.0-7.0-3.0-1.13","23:46:15","4","","","","","","","<div>
            <img class='stim' src=""pictures/furniture/0.jpg""></div><div class=""button_prompt"">
                        <b>请用数字键1-3回答</b>
                        </div>","","","","","","","","","","","","","","","","","","",""
"695","null","sub_response","html-keyboard-response","155","551611","0.0-1.0-7.0-3.0-2.13","23:46:15","4","","","","","","","<div style='text-align: center;'>
                            <span style=""color: green; font-size: 40px""><b>正确！+1 pts</b></span></div>
                            ","","learn","0","0","0","learn","0","0","[0, 1, 2]","13","4","setsize","3S3A","furniture","1","2","0","1",""
"null","null","fixation","html-keyboard-response","156","552112","0.0-1.0-7.0-3.0-0.14","23:46:15","4","","","","","","","fixation","","","","","","","","","","","","","","","","","","",""
"473","1","pic_response","html-keyboard-response","157","552585","0.0-1.0-7.0-3.0-1.14","23:46:15","4","","","","","","","<div>
            <img class='stim' src=""pictures/furniture/1.jpg""></div><div class=""button_prompt"">
                        <b>请用数字键1-3回答</b>
                        </div>","","","","","","","","","","","","","","","","","","",""
"473","null","sub_response","html-keyboard-response","158","553586","0.0-1.0-7.0-3.0-2.14","23:46:15","4","","","","","","","<div style='text-align: center;'>
                            <span style=""color: green; font-size: 40px""><b>正确！+1 pts</b></span></div>
                            ","","learn","1","1","1","learn","0","0","[0, 1, 2]","14","4","setsize","3S3A","furniture","1","3","0","1",""
"null","null","fixation","html-keyboard-response","159","554088","0.0-1.0-7.0-3.0-0.15","23:46:15","4","","","","","","","fixation","","","","","","","","","","","","","","","","","","",""
"564","1","pic_response","html-keyboard-response","160","554653","0.0-1.0-7.0-3.0-1.15","23:46:15","4","","","","","","","<div>
            <img class='stim' src=""pictures/furniture/1.jpg""></div><div class=""button_prompt"">
                        <b>请用数字键1-3回答</b>
                        </div>","","","","","","","","","","","","","","","","","","",""
"564","null","sub_response","html-keyboard-response","161","555655","0.0-1.0-7.0-3.0-2.15","23:46:15","4","","","","","","","<div style='text-align: center;'>
                            <span style=""color: green; font-size: 40px""><b>正确！+1 pts</b></span></div>
                            ","","learn","1","1","1","learn","0","0","[0, 1, 2]","15","5","setsize","3S3A","furniture","1","4","0","1",""
"null","null","fixation","html-keyboard-response","162","556157","0.0-1.0-7.0-3.0-0.16","23:46:15","4","","","","","","","fixation","","","","","","","","","","","","","","","","","","",""
"2016","3","pic_response","html-keyboard-response","163","558173","0.0-1.0-7.0-3.0-1.16","23:46:15","4","","","","","","","<div>
            <img class='stim' src=""pictures/furniture/0.jpg""></div><div class=""button_prompt"">
                        <b>请用数字键1-3回答</b>
                        </div>","","","","","","","","","","","","","","","","","","",""
"2016","null","sub_response","html-keyboard-response","164","559175","0.0-1.0-7.0-3.0-2.16","23:46:15","4","","","","","","","<div style='text-align: center;'>
                            <span style=""color: red; font-size: 40px""><b>错误！+0 pts</b></span></div>
                            ","","learn","0","0","0","learn","0","0","[0, 1, 2]","16","5","setsize","3S3A","furniture","1","0","2","0",""
"null","null","fixation","html-keyboard-response","165","559676","0.0-1.0-7.0-3.0-0.17","23:46:15","4","","","","","","","fixation","","","","","","","","","","","","","","","","","","",""
"487","3","pic_response","html-keyboard-response","166","560163","0.0-1.0-7.0-3.0-1.17","23:46:15","4","","","","","","","<div>
            <img class='stim' src=""pictures/furniture/2.jpg""></div><div class=""button_prompt"">
                        <b>请用数字键1-3回答</b>
                        </div>","","","","","","","","","","","","","","","","","","",""
"487","null","sub_response","html-keyboard-response","167","561164","0.0-1.0-7.0-3.0-2.17","23:46:15","4","","","","","","","<div style='text-align: center;'>
                            <span style=""color: green; font-size: 40px""><b>正确！+1 pts</b></span></div>
                            ","","learn","2","2","2","learn","2","2","[0, 1, 2]","17","5","setsize","3S3A","furniture","1","1","2","1",""
"null","null","fixation","html-keyboard-response","168","561673","0.0-1.0-7.0-3.0-0.18","23:46:15","4","","","","","","","fixation","","","","","","","","","","","","","","","","","","",""
"391","1","pic_response","html-keyboard-response","169","562065","0.0-1.0-7.0-3.0-1.18","23:46:15","4","","","","","","","<div>
            <img class='stim' src=""pictures/furniture/1.jpg""></div><div class=""button_prompt"">
                        <b>请用数字键1-3回答</b>
                        </div>","","","","","","","","","","","","","","","","","","",""
"391","null","sub_response","html-keyboard-response","170","563066","0.0-1.0-7.0-3.0-2.18","23:46:15","4","","","","","","","<div style='text-align: center;'>
                            <span style=""color: green; font-size: 40px""><b>正确！+1 pts</b></span></div>
                            ","","learn","1","1","1","learn","0","0","[0, 1, 2]","18","6","setsize","3S3A","furniture","1","2","0","1",""
"null","null","fixation","html-keyboard-response","171","563567","0.0-1.0-7.0-3.0-0.19","23:46:15","4","","","","","","","fixation","","","","","","","","","","","","","","","","","","",""
"766","1","pic_response","html-keyboard-response","172","564333","0.0-1.0-7.0-3.0-1.19","23:46:15","4","","","","","","","<div>
            <img class='stim' src=""pictures/furniture/0.jpg""></div><div class=""button_prompt"">
                        <b>请用数字键1-3回答</b>
                        </div>","","","","","","","","","","","","","","","","","","",""
"766","null","sub_response","html-keyboard-response","173","565335","0.0-1.0-7.0-3.0-2.19","23:46:15","4","","","","","","","<div style='text-align: center;'>
                            <span style=""color: green; font-size: 40px""><b>正确！+1 pts</b></span></div>
                            ","","learn","0","0","0","learn","0","0","[0, 1, 2]","19","6","setsize","3S3A","furniture","1","3","0","1",""
"null","null","fixation","html-keyboard-response","174","565837","0.0-1.0-7.0-3.0-0.20","23:46:15","4","","","","","","","fixation","","","","","","","","","","","","","","","","","","",""
"513","3","pic_response","html-keyboard-response","175","566350","0.0-1.0-7.0-3.0-1.20","23:46:15","4","","","","","","","<div>
            <img class='stim' src=""pictures/furniture/2.jpg""></div><div class=""button_prompt"">
                        <b>请用数字键1-3回答</b>
                        </div>","","","","","","","","","","","","","","","","","","",""
"513","null","sub_response","html-keyboard-response","176","567352","0.0-1.0-7.0-3.0-2.20","23:46:15","4","","","","","","","<div style='text-align: center;'>
                            <span style=""color: green; font-size: 40px""><b>正确！+1 pts</b></span></div>
                            ","","learn","2","2","2","learn","2","2","[0, 1, 2]","20","6","setsize","3S3A","furniture","1","4","2","1",""
"null","null","fixation","html-keyboard-response","177","567853","0.0-1.0-7.0-3.0-0.21","23:46:15","4","","","","","","","fixation","","","","","","","","","","","","","","","","","","",""
"666","1","pic_response","html-keyboard-response","178","568520","0.0-1.0-7.0-3.0-1.21","23:46:15","4","","","","","","","<div>
            <img class='stim' src=""pictures/furniture/0.jpg""></div><div class=""button_prompt"">
                        <b>请用数字键1-3回答</b>
                        </div>","","","","","","","","","","","","","","","","","","",""
"666","null","sub_response","html-keyboard-response","179","569522","0.0-1.0-7.0-3.0-2.21","23:46:15","4","","","","","","","<div style='text-align: center;'>
                            <span style=""color: green; font-size: 40px""><b>正确！+1 pts</b></span></div>
                            ","","learn","0","0","0","learn","0","0","[0, 1, 2]","21","7","setsize","3S3A","furniture","1","5","0","1",""
"null","null","fixation","html-keyboard-response","180","570029","0.0-1.0-7.0-3.0-0.22","23:46:15","4","","","","","","","fixation","","","","","","","","","","","","","","","","","","",""
"438","1","pic_response","html-keyboard-response","181","570467","0.0-1.0-7.0-3.0-1.22","23:46:15","4","","","","","","","<div>
            <img class='stim' src=""pictures/furniture/1.jpg""></div><div class=""button_prompt"">
                        <b>请用数字键1-3回答</b>
                        </div>","","","","","","","","","","","","","","","","","","",""
"438","null","sub_response","html-keyboard-response","182","571468","0.0-1.0-7.0-3.0-2.22","23:46:15","4","","","","","","","<div style='text-align: center;'>
                            <span style=""color: green; font-size: 40px""><b>正确！+1 pts</b></span></div>
                            ","","learn","1","1","1","learn","0","0","[0, 1, 2]","22","7","setsize","3S3A","furniture","1","6","0","1",""
"null","null","fixation","html-keyboard-response","183","571970","0.0-1.0-7.0-3.0-0.23","23:46:15","4","","","","","","","fixation","","","","","","","","","","","","","","","","","","",""
"null","null","pic_response","html-keyboard-response","184","574971","0.0-1.0-7.0-3.0-1.23","23:46:15","4","","","","","","","<div>
            <img class='stim' src=""pictures/furniture/2.jpg""></div><div class=""button_prompt"">
                        <b>请用数字键1-3回答</b>
                        </div>","","","","","","","","","","","","","","","","","","",""
"null","null","sub_response","html-keyboard-response","185","575972","0.0-1.0-7.0-3.0-2.23","23:46:15","4","","","","","","","<div style='text-align: center;'>
                            <span style=""color: red; font-size: 40px""><b>错误！+0 pts</b></span></div>
                            ","","learn","2","2","2","learn","2","2","[0, 1, 2]","23","7","setsize","3S3A","furniture","1","0","999","0",""
"null","null","fixation","html-keyboard-response","186","576474","0.0-1.0-7.0-3.0-0.24","23:46:15","4","","","","","","","fixation","","","","","","","","","","","","","","","","","","",""
"457","3","pic_response","html-keyboard-response","187","576931","0.0-1.0-7.0-3.0-1.24","23:46:15","4","","","","","","","<div>
            <img class='stim' src=""pictures/furniture/2.jpg""></div><div class=""button_prompt"">
                        <b>请用数字键1-3回答</b>
                        </div>","","","","","","","","","","","","","","","","","","",""
"457","null","sub_response","html-keyboard-response","188","577932","0.0-1.0-7.0-3.0-2.24","23:46:15","4","","","","","","","<div style='text-align: center;'>
                            <span style=""color: green; font-size: 40px""><b>正确！+1 pts</b></span></div>
                            ","","learn","2","2","2","learn","2","2","[0, 1, 2]","24","8","setsize","3S3A","furniture","1","1","2","1",""
"null","null","fixation","html-keyboard-response","189","578434","0.0-1.0-7.0-3.0-0.25","23:46:15","4","","","","","","","fixation","","","","","","","","","","","","","","","","","","",""
"535","1","pic_response","html-keyboard-response","190","578969","0.0-1.0-7.0-3.0-1.25","23:46:15","4","","","","","","","<div>
            <img class='stim' src=""pictures/furniture/1.jpg""></div><div class=""button_prompt"">
                        <b>请用数字键1-3回答</b>
                        </div>","","","","","","","","","","","","","","","","","","",""
"535","null","sub_response","html-keyboard-response","191","579971","0.0-1.0-7.0-3.0-2.25","23:46:15","4","","","","","","","<div style='text-align: center;'>
                            <span style=""color: green; font-size: 40px""><b>正确！+1 pts</b></span></div>
                            ","","learn","1","1","1","learn","0","0","[0, 1, 2]","25","8","setsize","3S3A","furniture","1","2","0","1",""
"null","null","fixation","html-keyboard-response","192","580473","0.0-1.0-7.0-3.0-0.26","23:46:15","4","","","","","","","fixation","","","","","","","","","","","","","","","","","","",""
"855","1","pic_response","html-keyboard-response","193","581328","0.0-1.0-7.0-3.0-1.26","23:46:15","4","","","","","","","<div>
            <img class='stim' src=""pictures/furniture/0.jpg""></div><div class=""button_prompt"">
                        <b>请用数字键1-3回答</b>
                        </div>","","","","","","","","","","","","","","","","","","",""
"855","null","sub_response","html-keyboard-response","194","582329","0.0-1.0-7.0-3.0-2.26","23:46:15","4","","","","","","","<div style='text-align: center;'>
                            <span style=""color: green; font-size: 40px""><b>正确！+1 pts</b></span></div>
                            ","","learn","0","0","0","learn","0","0","[0, 1, 2]","26","8","setsize","3S3A","furniture","1","3","0","1",""
"null","null","fixation","html-keyboard-response","195","582831","0.0-1.0-7.0-3.0-0.27","23:46:15","4","","","","","","","fixation","","","","","","","","","","","","","","","","","","",""
"365","1","pic_response","html-keyboard-response","196","583196","0.0-1.0-7.0-3.0-1.27","23:46:15","4","","","","","","","<div>
            <img class='stim' src=""pictures/furniture/1.jpg""></div><div class=""button_prompt"">
                        <b>请用数字键1-3回答</b>
                        </div>","","","","","","","","","","","","","","","","","","",""
"365","null","sub_response","html-keyboard-response","197","584197","0.0-1.0-7.0-3.0-2.27","23:46:15","4","","","","","","","<div style='text-align: center;'>
                            <span style=""color: green; font-size: 40px""><b>正确！+1 pts</b></span></div>
                            ","","learn","1","1","1","learn","0","0","[0, 1, 2]","27","9","setsize","3S3A","furniture","1","4","0","1",""
"null","null","fixation","html-keyboard-response","198","584698","0.0-1.0-7.0-3.0-0.28","23:46:15","4","","","","","","","fixation","","","","","","","","","","","","","","","","","","",""
"530","3","pic_response","html-keyboard-response","199","585229","0.0-1.0-7.0-3.0-1.28","23:46:15","4","","","","","","","<div>
            <img class='stim' src=""pictures/furniture/2.jpg""></div><div class=""button_prompt"">
                        <b>请用数字键1-3回答</b>
                        </div>","","","","","","","","","","","","","","","","","","",""
"530","null","sub_response","html-keyboard-response","200","586230","0.0-1.0-7.0-3.0-2.28","23:46:15","4","","","","","","","<div style='text-align: center;'>
                            <span style=""color: green; font-size: 40px""><b>正确！+1 pts</b></span></div>
                            ","","learn","2","2","2","learn","2","2","[0, 1, 2]","28","9","setsize","3S3A","furniture","1","5","2","1",""
"null","null","fixation","html-keyboard-response","201","586731","0.0-1.0-7.0-3.0-0.29","23:46:15","4","","","","","","","fixation","","","","","","","","","","","","","","","","","","",""
"301","1","pic_response","html-keyboard-response","202","587032","0.0-1.0-7.0-3.0-1.29","23:46:15","4","","","","","","","<div>
            <img class='stim' src=""pictures/furniture/0.jpg""></div><div class=""button_prompt"">
                        <b>请用数字键1-3回答</b>
                        </div>","","","","","","","","","","","","","","","","","","",""
"301","null","sub_response","html-keyboard-response","203","588033","0.0-1.0-7.0-3.0-2.29","23:46:15","4","","","","","","","<div style='text-align: center;'>
                            <span style=""color: green; font-size: 40px""><b>正确！+1 pts</b></span></div>
                            ","","learn","0","0","0","learn","0","0","[0, 1, 2]","29","9","setsize","3S3A","furniture","1","6","0","1",""
"null","null","fixation","html-keyboard-response","204","588534","0.0-1.0-7.0-3.0-0.30","23:46:15","4","","","","","","","fixation","","","","","","","","","","","","","","","","","","",""
"392","1","pic_response","html-keyboard-response","205","588926","0.0-1.0-7.0-3.0-1.30","23:46:15","4","","","","","","","<div>
            <img class='stim' src=""pictures/furniture/1.jpg""></div><div class=""button_prompt"">
                        <b>请用数字键1-3回答</b>
                        </div>","","","","","","","","","","","","","","","","","","",""
"392","null","sub_response","html-keyboard-response","206","589927","0.0-1.0-7.0-3.0-2.30","23:46:15","4","","","","","","","<div style='text-align: center;'>
                            <span style=""color: green; font-size: 40px""><b>正确！+1 pts</b></span></div>
                            ","","learn","1","1","1","learn","0","0","[0, 1, 2]","30","10","setsize","3S3A","furniture","1","7","0","1",""
"null","null","fixation","html-keyboard-response","207","590429","0.0-1.0-7.0-3.0-0.31","23:46:15","4","","","","","","","fixation","","","","","","","","","","","","","","","","","","",""
"512","1","pic_response","html-keyboard-response","208","590941","0.0-1.0-7.0-3.0-1.31","23:46:15","4","","","","","","","<div>
            <img class='stim' src=""pictures/furniture/0.jpg""></div><div class=""button_prompt"">
                        <b>请用数字键1-3回答</b>
                        </div>","","","","","","","","","","","","","","","","","","",""
"512","null","sub_response","html-keyboard-response","209","591942","0.0-1.0-7.0-3.0-2.31","23:46:15","4","","","","","","","<div style='text-align: center;'>
                            <span style=""color: green; font-size: 40px""><b>正确！+1 pts</b></span></div>
                            ","","learn","0","0","0","learn","0","0","[0, 1, 2]","31","10","setsize","3S3A","furniture","1","8","0","1",""
"null","null","fixation","html-keyboard-response","210","592442","0.0-1.0-7.0-3.0-0.32","23:46:15","4","","","","","","","fixation","","","","","","","","","","","","","","","","","","",""
"503","3","pic_response","html-keyboard-response","211","592946","0.0-1.0-7.0-3.0-1.32","23:46:15","4","","","","","","","<div>
            <img class='stim' src=""pictures/furniture/2.jpg""></div><div class=""button_prompt"">
                        <b>请用数字键1-3回答</b>
                        </div>","","","","","","","","","","","","","","","","","","",""
"503","null","sub_response","html-keyboard-response","212","593947","0.0-1.0-7.0-3.0-2.32","23:46:15","4","","","","","","","<div style='text-align: center;'>
                            <span style=""color: green; font-size: 40px""><b>正确！+1 pts</b></span></div>
                            ","","learn","2","2","2","learn","2","2","[0, 1, 2]","32","10","setsize","3S3A","furniture","1","9","2","1",""
"null","null","fixation","html-keyboard-response","213","594448","0.0-1.0-7.0-3.0-0.33","23:46:15","4","","","","","","","fixation","","","","","","","","","","","","","","","","","","",""
"493","1","pic_response","html-keyboard-response","214","594941","0.0-1.0-7.0-3.0-1.33","23:46:15","4","","","","","","","<div>
            <img class='stim' src=""pictures/furniture/0.jpg""></div><div class=""button_prompt"">
                        <b>请用数字键1-3回答</b>
                        </div>","","","","","","","","","","","","","","","","","","",""
"493","null","sub_response","html-keyboard-response","215","595944","0.0-1.0-7.0-3.0-2.33","23:46:15","4","","","","","","","<div style='text-align: center;'>
                            <span style=""color: green; font-size: 40px""><b>正确！+1 pts</b></span></div>
                            ","","learn","0","0","0","learn","0","0","[0, 1, 2]","33","11","setsize","3S3A","furniture","1","10","0","1",""
"null","null","fixation","html-keyboard-response","216","596446","0.0-1.0-7.0-3.0-0.34","23:46:15","4","","","","","","","fixation","","","","","","","","","","","","","","","","","","",""
"393","1","pic_response","html-keyboard-response","217","596839","0.0-1.0-7.0-3.0-1.34","23:46:15","4","","","","","","","<div>
            <img class='stim' src=""pictures/furniture/1.jpg""></div><div class=""button_prompt"">
                        <b>请用数字键1-3回答</b>
                        </div>","","","","","","","","","","","","","","","","","","",""
"393","null","sub_response","html-keyboard-response","218","597840","0.0-1.0-7.0-3.0-2.34","23:46:15","4","","","","","","","<div style='text-align: center;'>
                            <span style=""color: green; font-size: 40px""><b>正确！+1 pts</b></span></div>
                            ","","learn","1","1","1","learn","0","0","[0, 1, 2]","34","11","setsize","3S3A","furniture","1","11","0","1",""
"null","null","fixation","html-keyboard-response","219","598341","0.0-1.0-7.0-3.0-0.35","23:46:15","4","","","","","","","fixation","","","","","","","","","","","","","","","","","","",""
"472","3","pic_response","html-keyboard-response","220","598813","0.0-1.0-7.0-3.0-1.35","23:46:15","4","","","","","","","<div>
            <img class='stim' src=""pictures/furniture/2.jpg""></div><div class=""button_prompt"">
                        <b>请用数字键1-3回答</b>
                        </div>","","","","","","","","","","","","","","","","","","",""
"472","null","sub_response","html-keyboard-response","221","599814","0.0-1.0-7.0-3.0-2.35","23:46:15","4","","","","","","","<div style='text-align: center;'>
                            <span style=""color: green; font-size: 40px""><b>正确！+1 pts</b></span></div>
                            ","","learn","2","2","2","learn","2","2","[0, 1, 2]","35","11","setsize","3S3A","furniture","1","12","2","1",""
"null","null","fixation","html-keyboard-response","222","600317","0.0-1.0-7.0-3.0-0.36","23:46:15","4","","","","","","","fixation","","","","","","","","","","","","","","","","","","",""
"414","1","pic_response","html-keyboard-response","223","600731","0.0-1.0-7.0-3.0-1.36","23:46:15","4","","","","","","","<div>
            <img class='stim' src=""pictures/furniture/1.jpg""></div><div class=""button_prompt"">
                        <b>请用数字键1-3回答</b>
                        </div>","","","","","","","","","","","","","","","","","","",""
"414","null","sub_response","html-keyboard-response","224","601733","0.0-1.0-7.0-3.0-2.36","23:46:15","4","","","","","","","<div style='text-align: center;'>
                            <span style=""color: green; font-size: 40px""><b>正确！+1 pts</b></span></div>
                            ","","learn","1","1","1","learn","0","0","[0, 1, 2]","36","12","setsize","3S3A","furniture","1","13","0","1",""
"null","null","fixation","html-keyboard-response","225","602246","0.0-1.0-7.0-3.0-0.37","23:46:15","4","","","","","","","fixation","","","","","","","","","","","","","","","","","","",""
"507","3","pic_response","html-keyboard-response","226","602753","0.0-1.0-7.0-3.0-1.37","23:46:15","4","","","","","","","<div>
            <img class='stim' src=""pictures/furniture/2.jpg""></div><div class=""button_prompt"">
                        <b>请用数字键1-3回答</b>
                        </div>","","","","","","","","","","","","","","","","","","",""
"507","null","sub_response","html-keyboard-response","227","603754","0.0-1.0-7.0-3.0-2.37","23:46:15","4","","","","","","","<div style='text-align: center;'>
                            <span style=""color: green; font-size: 40px""><b>正确！+1 pts</b></span></div>
                            ","","learn","2","2","2","learn","2","2","[0, 1, 2]","37","12","setsize","3S3A","furniture","1","14","2","1",""
"null","null","fixation","html-keyboard-response","228","604256","0.0-1.0-7.0-3.0-0.38","23:46:15","4","","","","","","","fixation","","","","","","","","","","","","","","","","","","",""
"357","1","pic_response","html-keyboard-response","229","604614","0.0-1.0-7.0-3.0-1.38","23:46:15","4","","","","","","","<div>
            <img class='stim' src=""pictures/furniture/0.jpg""></div><div class=""button_prompt"">
                        <b>请用数字键1-3回答</b>
                        </div>","","","","","","","","","","","","","","","","","","",""
"357","null","sub_response","html-keyboard-response","230","605616","0.0-1.0-7.0-3.0-2.38","23:46:15","4","","","","","","","<div style='text-align: center;'>
                            <span style=""color: green; font-size: 40px""><b>正确！+1 pts</b></span></div>
                            ","","learn","0","0","0","learn","0","0","[0, 1, 2]","38","12","setsize","3S3A","furniture","1","15","0","1",""
"null","null","fixation","html-keyboard-response","231","606116","0.0-1.0-7.0-3.0-0.39","23:46:15","4","","","","","","","fixation","","","","","","","","","","","","","","","","","","",""
"287","1","pic_response","html-keyboard-response","232","606403","0.0-1.0-7.0-3.0-1.39","23:46:15","4","","","","","","","<div>
            <img class='stim' src=""pictures/furniture/0.jpg""></div><div class=""button_prompt"">
                        <b>请用数字键1-3回答</b>
                        </div>","","","","","","","","","","","","","","","","","","",""
"287","null","sub_response","html-keyboard-response","233","607405","0.0-1.0-7.0-3.0-2.39","23:46:15","4","","","","","","","<div style='text-align: center;'>
                            <span style=""color: green; font-size: 40px""><b>正确！+1 pts</b></span></div>
                            ","","learn","0","0","0","learn","0","0","[0, 1, 2]","39","13","setsize","3S3A","furniture","1","16","0","1",""
"null","null","fixation","html-keyboard-response","234","607906","0.0-1.0-7.0-3.0-0.40","23:46:15","4","","","","","","","fixation","","","","","","","","","","","","","","","","","","",""
"495","1","pic_response","html-keyboard-response","235","608401","0.0-1.0-7.0-3.0-1.40","23:46:15","4","","","","","","","<div>
            <img class='stim' src=""pictures/furniture/2.jpg""></div><div class=""button_prompt"">
                        <b>请用数字键1-3回答</b>
                        </div>","","","","","","","","","","","","","","","","","","",""
"495","null","sub_response","html-keyboard-response","236","609403","0.0-1.0-7.0-3.0-2.40","23:46:15","4","","","","","","","<div style='text-align: center;'>
                            <span style=""color: red; font-size: 40px""><b>错误！+0 pts</b></span></div>
                            ","","learn","2","2","2","learn","2","2","[0, 1, 2]","40","13","setsize","3S3A","furniture","1","0","0","0",""
"null","null","fixation","html-keyboard-response","237","609904","0.0-1.0-7.0-3.0-0.41","23:46:15","4","","","","","","","fixation","","","","","","","","","","","","","","","","","","",""
"399","1","pic_response","html-keyboard-response","238","610305","0.0-1.0-7.0-3.0-1.41","23:46:15","4","","","","","","","<div>
            <img class='stim' src=""pictures/furniture/1.jpg""></div><div class=""button_prompt"">
                        <b>请用数字键1-3回答</b>
                        </div>","","","","","","","","","","","","","","","","","","",""
"399","null","sub_response","html-keyboard-response","239","611307","0.0-1.0-7.0-3.0-2.41","23:46:15","4","","","","","","","<div style='text-align: center;'>
                            <span style=""color: green; font-size: 40px""><b>正确！+1 pts</b></span></div>
                            ","","learn","1","1","1","learn","0","0","[0, 1, 2]","41","13","setsize","3S3A","furniture","1","1","0","1",""
"null","null","fixation","html-keyboard-response","240","611808","0.0-1.0-7.0-3.0-0.42","23:46:15","4","","","","","","","fixation","","","","","","","","","","","","","","","","","","",""
"457","3","pic_response","html-keyboard-response","241","612265","0.0-1.0-7.0-3.0-1.42","23:46:15","4","","","","","","","<div>
            <img class='stim' src=""pictures/furniture/2.jpg""></div><div class=""button_prompt"">
                        <b>请用数字键1-3回答</b>
                        </div>","","","","","","","","","","","","","","","","","","",""
"457","null","sub_response","html-keyboard-response","242","613266","0.0-1.0-7.0-3.0-2.42","23:46:15","4","","","","","","","<div style='text-align: center;'>
                            <span style=""color: green; font-size: 40px""><b>正确！+1 pts</b></span></div>
                            ","","learn","2","2","2","learn","2","2","[0, 1, 2]","42","14","setsize","3S3A","furniture","1","2","2","1",""
"null","null","fixation","html-keyboard-response","243","613768","0.0-1.0-7.0-3.0-0.43","23:46:15","4","","","","","","","fixation","","","","","","","","","","","","","","","","","","",""
"255","1","pic_response","html-keyboard-response","244","614024","0.0-1.0-7.0-3.0-1.43","23:46:15","4","","","","","","","<div>
            <img class='stim' src=""pictures/furniture/1.jpg""></div><div class=""button_prompt"">
                        <b>请用数字键1-3回答</b>
                        </div>","","","","","","","","","","","","","","","","","","",""
"255","null","sub_response","html-keyboard-response","245","615026","0.0-1.0-7.0-3.0-2.43","23:46:15","4","","","","","","","<div style='text-align: center;'>
                            <span style=""color: green; font-size: 40px""><b>正确！+1 pts</b></span></div>
                            ","","learn","1","1","1","learn","0","0","[0, 1, 2]","43","14","setsize","3S3A","furniture","1","3","0","1",""
"null","null","fixation","html-keyboard-response","246","615527","0.0-1.0-7.0-3.0-0.44","23:46:15","4","","","","","","","fixation","","","","","","","","","","","","","","","","","","",""
"388","3","pic_response","html-keyboard-response","247","615916","0.0-1.0-7.0-3.0-1.44","23:46:15","4","","","","","","","<div>
            <img class='stim' src=""pictures/furniture/0.jpg""></div><div class=""button_prompt"">
                        <b>请用数字键1-3回答</b>
                        </div>","","","","","","","","","","","","","","","","","","",""
"388","null","sub_response","html-keyboard-response","248","616917","0.0-1.0-7.0-3.0-2.44","23:46:15","4","","","","","","","<div style='text-align: center;'>
                            <span style=""color: red; font-size: 40px""><b>错误！+0 pts</b></span></div>
                            ","","learn","0","0","0","learn","0","0","[0, 1, 2]","44","14","setsize","3S3A","furniture","1","0","2","0",""
"null","null","fixation","html-keyboard-response","249","617419","0.0-1.0-7.0-3.0-0.45","23:46:15","4","","","","","","","fixation","","","","","","","","","","","","","","","","","","",""
"527","3","pic_response","html-keyboard-response","250","617946","0.0-1.0-7.0-3.0-1.45","23:46:15","4","","","","","","","<div>
            <img class='stim' src=""pictures/furniture/2.jpg""></div><div class=""button_prompt"">
                        <b>请用数字键1-3回答</b>
                        </div>","","","","","","","","","","","","","","","","","","",""
"527","null","sub_response","html-keyboard-response","251","618947","0.0-1.0-7.0-3.0-2.45","23:46:15","4","","","","","","","<div style='text-align: center;'>
                            <span style=""color: green; font-size: 40px""><b>正确！+1 pts</b></span></div>
                            ","","learn","2","2","2","learn","2","2","[0, 1, 2]","45","15","setsize","3S3A","furniture","1","1","2","1",""
"null","null","fixation","html-keyboard-response","252","619448","0.0-1.0-7.0-3.0-0.46","23:46:15","4","","","","","","","fixation","","","","","","","","","","","","","","","","","","",""
"351","1","pic_response","html-keyboard-response","253","619800","0.0-1.0-7.0-3.0-1.46","23:46:15","4","","","","","","","<div>
            <img class='stim' src=""pictures/furniture/1.jpg""></div><div class=""button_prompt"">
                        <b>请用数字键1-3回答</b>
                        </div>","","","","","","","","","","","","","","","","","","",""
"351","null","sub_response","html-keyboard-response","254","620801","0.0-1.0-7.0-3.0-2.46","23:46:15","4","","","","","","","<div style='text-align: center;'>
                            <span style=""color: green; font-size: 40px""><b>正确！+1 pts</b></span></div>
                            ","","learn","1","1","1","learn","0","0","[0, 1, 2]","46","15","setsize","3S3A","furniture","1","2","0","1",""
"null","null","fixation","html-keyboard-response","255","621303","0.0-1.0-7.0-3.0-0.47","23:46:15","4","","","","","","","fixation","","","","","","","","","","","","","","","","","","",""
"227","1","pic_response","html-keyboard-response","256","621530","0.0-1.0-7.0-3.0-1.47","23:46:15","4","","","","","","","<div>
            <img class='stim' src=""pictures/furniture/0.jpg""></div><div class=""button_prompt"">
                        <b>请用数字键1-3回答</b>
                        </div>","","","","","","","","","","","","","","","","","","",""
"227","null","sub_response","html-keyboard-response","257","622532","0.0-1.0-7.0-3.0-2.47","23:46:15","4","","","","","","","<div style='text-align: center;'>
                            <span style=""color: green; font-size: 40px""><b>正确！+1 pts</b></span></div>
                            ","","learn","0","0","0","learn","0","0","[0, 1, 2]","47","15","setsize","3S3A","furniture","1","3","0","1",""
"null","null","fixation","html-keyboard-response","258","623033","0.0-1.0-7.0-3.0-0.48","23:46:15","4","","","","","","","fixation","","","","","","","","","","","","","","","","","","",""
"287","1","pic_response","html-keyboard-response","259","623321","0.0-1.0-7.0-3.0-1.48","23:46:15","4","","","","","","","<div>
            <img class='stim' src=""pictures/furniture/0.jpg""></div><div class=""button_prompt"">
                        <b>请用数字键1-3回答</b>
                        </div>","","","","","","","","","","","","","","","","","","",""
"287","null","sub_response","html-keyboard-response","260","624337","0.0-1.0-7.0-3.0-2.48","23:46:15","4","","","","","","","<div style='text-align: center;'>
                            <span style=""color: green; font-size: 40px""><b>正确！+1 pts</b></span></div>
                            ","","learn","0","0","0","learn","0","0","[0, 1, 2]","48","16","setsize","3S3A","furniture","1","4","0","1",""
"null","null","fixation","html-keyboard-response","261","624838","0.0-1.0-7.0-3.0-0.49","23:46:15","4","","","","","","","fixation","","","","","","","","","","","","","","","","","","",""
"448","3","pic_response","html-keyboard-response","262","625286","0.0-1.0-7.0-3.0-1.49","23:46:15","4","","","","","","","<div>
            <img class='stim' src=""pictures/furniture/2.jpg""></div><div class=""button_prompt"">
                        <b>请用数字键1-3回答</b>
                        </div>","","","","","","","","","","","","","","","","","","",""
"448","null","sub_response","html-keyboard-response","263","626288","0.0-1.0-7.0-3.0-2.49","23:46:15","4","","","","","","","<div style='text-align: center;'>
                            <span style=""color: green; font-size: 40px""><b>正确！+1 pts</b></span></div>
                            ","","learn","2","2","2","learn","2","2","[0, 1, 2]","49","16","setsize","3S3A","furniture","1","5","2","1",""
"null","null","fixation","html-keyboard-response","264","626789","0.0-1.0-7.0-3.0-0.50","23:46:15","4","","","","","","","fixation","","","","","","","","","","","","","","","","","","",""
"347","1","pic_response","html-keyboard-response","265","627136","0.0-1.0-7.0-3.0-1.50","23:46:15","4","","","","","","","<div>
            <img class='stim' src=""pictures/furniture/1.jpg""></div><div class=""button_prompt"">
                        <b>请用数字键1-3回答</b>
                        </div>","","","","","","","","","","","","","","","","","","",""
"347","null","sub_response","html-keyboard-response","266","628137","0.0-1.0-7.0-3.0-2.50","23:46:15","4","","","","","","","<div style='text-align: center;'>
                            <span style=""color: green; font-size: 40px""><b>正确！+1 pts</b></span></div>
                            ","","learn","1","1","1","learn","0","0","[0, 1, 2]","50","16","setsize","3S3A","furniture","1","6","0","1",""
"null","null","fixation","html-keyboard-response","267","628639","0.0-1.0-7.0-3.0-0.51","23:46:15","4","","","","","","","fixation","","","","","","","","","","","","","","","","","","",""
"666","1","pic_response","html-keyboard-response","268","629305","0.0-1.0-7.0-3.0-1.51","23:46:15","4","","","","","","","<div>
            <img class='stim' src=""pictures/furniture/0.jpg""></div><div class=""button_prompt"">
                        <b>请用数字键1-3回答</b>
                        </div>","","","","","","","","","","","","","","","","","","",""
"666","null","sub_response","html-keyboard-response","269","630307","0.0-1.0-7.0-3.0-2.51","23:46:15","4","","","","","","","<div style='text-align: center;'>
                            <span style=""color: green; font-size: 40px""><b>正确！+1 pts</b></span></div>
                            ","","learn","0","0","0","learn","0","0","[0, 1, 2]","51","17","setsize","3S3A","furniture","1","7","0","1",""
"15355"," ","","html-keyboard-response","270","645662","0.0-1.0-8.0","23:46:15","4","","","","","","","<div style=""font-size: 25px""><p>距下一个实验开始还有</p><div style=""font-size: 50px; color: blue""><p><span id=""clock"">1:00</span></div></p><p>按""空格""跳过休息</p></div>","","","","","","","","","","","","","","","","","","",""
"","","","preload","271","645960","0.0-1.0-9.0-0.0","23:46:15","4","true","false","[]","[]","[]","","","","","","","","","","","","","","","","","","","","",""
"1876"," ","","html-keyboard-response","272","647836","0.0-1.0-9.0-1.0","23:46:15","4","","","","","","","<div style='font-size: 32px; text-align: center;'
                    <p>请学习图片和数字之间的对应关系</p>
                    <p>我们将<span style='color: blue'><b> 告诉 </b></span>您选择的对错。请根据反馈学习。</p>
                    <p>请按""空格""继续实验。</p></div>","","","","","","","","","","","","","","","","","","",""
"7406"," ","inst","html-keyboard-response","273","655243","0.0-1.0-9.0-2.0","23:46:15","4","","","","","","","<img class='instruct_stim' src=""instruction/animals10.PNG""></div>","","","","","","","","","","","","","","","","","","",""
"null","null","fixation","html-keyboard-response","274","655744","0.0-1.0-9.0-3.0-0.0","23:46:15","4","","","","","","","fixation","","","","","","","","","","","","","","","","","","",""
"624","1","pic_response","html-keyboard-response","275","656368","0.0-1.0-9.0-3.0-1.0","23:46:15","4","","","","","","","<div>
            <img class='stim' src=""pictures/animals/5.jpg""></div><div class=""button_prompt"">
                    <b>请用数字键0-9回答</b>
                    </div>","","","","","","","","","","","","","","","","","","",""
"624","null","sub_response","html-keyboard-response","276","657370","0.0-1.0-9.0-3.0-2.0","23:46:15","4","","","","","","","<div style='text-align: center;'>
                            <span style=""color: red; font-size: 40px""><b>错误！+0 pts</b></span></div>
                            ","","learn","5","5","5","learn","5","5","[0, 1, 2, 3, 4, 5, 6, 7, 8, 9]","0","0","setsize","10S10A","animals","2","0","0","0",""
"null","null","fixation","html-keyboard-response","277","657871","0.0-1.0-9.0-3.0-0.1","23:46:15","4","","","","","","","fixation","","","","","","","","","","","","","","","","","","",""
"675","2","pic_response","html-keyboard-response","278","658546","0.0-1.0-9.0-3.0-1.1","23:46:15","4","","","","","","","<div>
            <img class='stim' src=""pictures/animals/1.jpg""></div><div class=""button_prompt"">
                    <b>请用数字键0-9回答</b>
                    </div>","","","","","","","","","","","","","","","","","","",""
"675","null","sub_response","html-keyboard-response","279","659563","0.0-1.0-9.0-3.0-2.1","23:46:15","4","","","","","","","<div style='text-align: center;'>
                            <span style=""color: green; font-size: 40px""><b>正确！+1 pts</b></span></div>
                            ","","learn","1","1","1","learn","1","1","[0, 1, 2, 3, 4, 5, 6, 7, 8, 9]","1","0","setsize","10S10A","animals","2","1","1","1",""
"null","null","fixation","html-keyboard-response","280","660064","0.0-1.0-9.0-3.0-0.2","23:46:15","4","","","","","","","fixation","","","","","","","","","","","","","","","","","","",""
"754","3","pic_response","html-keyboard-response","281","660819","0.0-1.0-9.0-3.0-1.2","23:46:15","4","","","","","","","<div>
            <img class='stim' src=""pictures/animals/7.jpg""></div><div class=""button_prompt"">
                    <b>请用数字键0-9回答</b>
                    </div>","","","","","","","","","","","","","","","","","","",""
"754","null","sub_response","html-keyboard-response","282","661820","0.0-1.0-9.0-3.0-2.2","23:46:15","4","","","","","","","<div style='text-align: center;'>
                            <span style=""color: red; font-size: 40px""><b>错误！+0 pts</b></span></div>
                            ","","learn","7","7","7","learn","7","7","[0, 1, 2, 3, 4, 5, 6, 7, 8, 9]","2","0","setsize","10S10A","animals","2","0","2","0",""
"null","null","fixation","html-keyboard-response","283","662321","0.0-1.0-9.0-3.0-0.3","23:46:15","4","","","","","","","fixation","","","","","","","","","","","","","","","","","","",""
"34","4","pic_response","html-keyboard-response","284","662355","0.0-1.0-9.0-3.0-1.3","23:46:15","4","","","","","","","<div>
            <img class='stim' src=""pictures/animals/2.jpg""></div><div class=""button_prompt"">
                    <b>请用数字键0-9回答</b>
                    </div>","","","","","","","","","","","","","","","","","","",""
"34","null","sub_response","html-keyboard-response","285","663357","0.0-1.0-9.0-3.0-2.3","23:46:15","4","","","","","","","<div style='text-align: center;'>
                            <span style=""color: red; font-size: 40px""><b>错误！+0 pts</b></span></div>
                            ","","learn","2","2","2","learn","2","2","[0, 1, 2, 3, 4, 5, 6, 7, 8, 9]","3","0","setsize","10S10A","animals","2","0","3","0",""
"null","null","fixation","html-keyboard-response","286","663858","0.0-1.0-9.0-3.0-0.4","23:46:15","4","","","","","","","fixation","","","","","","","","","","","","","","","","","","",""
"832","2","pic_response","html-keyboard-response","287","664690","0.0-1.0-9.0-3.0-1.4","23:46:15","4","","","","","","","<div>
            <img class='stim' src=""pictures/animals/4.jpg""></div><div class=""button_prompt"">
                    <b>请用数字键0-9回答</b>
                    </div>","","","","","","","","","","","","","","","","","","",""
"832","null","sub_response","html-keyboard-response","288","665691","0.0-1.0-9.0-3.0-2.4","23:46:15","4","","","","","","","<div style='text-align: center;'>
                            <span style=""color: red; font-size: 40px""><b>错误！+0 pts</b></span></div>
                            ","","learn","4","4","4","learn","4","4","[0, 1, 2, 3, 4, 5, 6, 7, 8, 9]","4","0","setsize","10S10A","animals","2","0","1","0",""
"null","null","fixation","html-keyboard-response","289","666192","0.0-1.0-9.0-3.0-0.5","23:46:15","4","","","","","","","fixation","","","","","","","","","","","","","","","","","","",""
"999","6","pic_response","html-keyboard-response","290","667192","0.0-1.0-9.0-3.0-1.5","23:46:15","4","","","","","","","<div>
            <img class='stim' src=""pictures/animals/8.jpg""></div><div class=""button_prompt"">
                    <b>请用数字键0-9回答</b>
                    </div>","","","","","","","","","","","","","","","","","","",""
"999","null","sub_response","html-keyboard-response","291","668194","0.0-1.0-9.0-3.0-2.5","23:46:15","4","","","","","","","<div style='text-align: center;'>
                            <span style=""color: red; font-size: 40px""><b>错误！+0 pts</b></span></div>
                            ","","learn","8","8","8","learn","8","8","[0, 1, 2, 3, 4, 5, 6, 7, 8, 9]","5","0","setsize","10S10A","animals","2","0","5","0",""
"null","null","fixation","html-keyboard-response","292","668708","0.0-1.0-9.0-3.0-0.6","23:46:15","4","","","","","","","fixation","","","","","","","","","","","","","","","","","","",""
"415","1","pic_response","html-keyboard-response","293","669124","0.0-1.0-9.0-3.0-1.6","23:46:15","4","","","","","","","<div>
            <img class='stim' src=""pictures/animals/9.jpg""></div><div class=""button_prompt"">
                    <b>请用数字键0-9回答</b>
                    </div>","","","","","","","","","","","","","","","","","","",""
"415","null","sub_response","html-keyboard-response","294","670126","0.0-1.0-9.0-3.0-2.6","23:46:15","4","","","","","","","<div style='text-align: center;'>
                            <span style=""color: red; font-size: 40px""><b>错误！+0 pts</b></span></div>
                            ","","learn","9","9","9","learn","9","9","[0, 1, 2, 3, 4, 5, 6, 7, 8, 9]","6","0","setsize","10S10A","animals","2","0","0","0",""
"null","null","fixation","html-keyboard-response","295","670627","0.0-1.0-9.0-3.0-0.7","23:46:15","4","","","","","","","fixation","","","","","","","","","","","","","","","","","","",""
"244","2","pic_response","html-keyboard-response","296","670871","0.0-1.0-9.0-3.0-1.7","23:46:15","4","","","","","","","<div>
            <img class='stim' src=""pictures/animals/3.jpg""></div><div class=""button_prompt"">
                    <b>请用数字键0-9回答</b>
                    </div>","","","","","","","","","","","","","","","","","","",""
"244","null","sub_response","html-keyboard-response","297","671873","0.0-1.0-9.0-3.0-2.7","23:46:15","4","","","","","","","<div style='text-align: center;'>
                            <span style=""color: red; font-size: 40px""><b>错误！+0 pts</b></span></div>
                            ","","learn","3","3","3","learn","3","3","[0, 1, 2, 3, 4, 5, 6, 7, 8, 9]","7","0","setsize","10S10A","animals","2","0","1","0",""
"null","null","fixation","html-keyboard-response","298","672375","0.0-1.0-9.0-3.0-0.8","23:46:15","4","","","","","","","fixation","","","","","","","","","","","","","","","","","","",""
"414","3","pic_response","html-keyboard-response","299","672789","0.0-1.0-9.0-3.0-1.8","23:46:15","4","","","","","","","<div>
            <img class='stim' src=""pictures/animals/6.jpg""></div><div class=""button_prompt"">
                    <b>请用数字键0-9回答</b>
                    </div>","","","","","","","","","","","","","","","","","","",""
"414","null","sub_response","html-keyboard-response","300","673791","0.0-1.0-9.0-3.0-2.8","23:46:15","4","","","","","","","<div style='text-align: center;'>
                            <span style=""color: red; font-size: 40px""><b>错误！+0 pts</b></span></div>
                            ","","learn","6","6","6","learn","6","6","[0, 1, 2, 3, 4, 5, 6, 7, 8, 9]","8","0","setsize","10S10A","animals","2","0","2","0",""
"null","null","fixation","html-keyboard-response","301","674293","0.0-1.0-9.0-3.0-0.9","23:46:15","4","","","","","","","fixation","","","","","","","","","","","","","","","","","","",""
"197","7","pic_response","html-keyboard-response","302","674490","0.0-1.0-9.0-3.0-1.9","23:46:15","4","","","","","","","<div>
            <img class='stim' src=""pictures/animals/0.jpg""></div><div class=""button_prompt"">
                    <b>请用数字键0-9回答</b>
                    </div>","","","","","","","","","","","","","","","","","","",""
"197","null","sub_response","html-keyboard-response","303","675492","0.0-1.0-9.0-3.0-2.9","23:46:15","4","","","","","","","<div style='text-align: center;'>
                            <span style=""color: red; font-size: 40px""><b>错误！+0 pts</b></span></div>
                            ","","learn","0","0","0","learn","0","0","[0, 1, 2, 3, 4, 5, 6, 7, 8, 9]","9","0","setsize","10S10A","animals","2","0","6","0",""
"null","null","fixation","html-keyboard-response","304","675993","0.0-1.0-9.0-3.0-0.10","23:46:15","4","","","","","","","fixation","","","","","","","","","","","","","","","","","","",""
"618","8","pic_response","html-keyboard-response","305","676611","0.0-1.0-9.0-3.0-1.10","23:46:15","4","","","","","","","<div>
            <img class='stim' src=""pictures/animals/5.jpg""></div><div class=""button_prompt"">
                    <b>请用数字键0-9回答</b>
                    </div>","","","","","","","","","","","","","","","","","","",""
"618","null","sub_response","html-keyboard-response","306","677612","0.0-1.0-9.0-3.0-2.10","23:46:15","4","","","","","","","<div style='text-align: center;'>
                            <span style=""color: red; font-size: 40px""><b>错误！+0 pts</b></span></div>
                            ","","learn","5","5","5","learn","5","5","[0, 1, 2, 3, 4, 5, 6, 7, 8, 9]","10","1","setsize","10S10A","animals","2","0","7","0",""
"null","null","fixation","html-keyboard-response","307","678113","0.0-1.0-9.0-3.0-0.11","23:46:15","4","","","","","","","fixation","","","","","","","","","","","","","","","","","","",""
"706","9","pic_response","html-keyboard-response","308","678820","0.0-1.0-9.0-3.0-1.11","23:46:15","4","","","","","","","<div>
            <img class='stim' src=""pictures/animals/0.jpg""></div><div class=""button_prompt"">
                    <b>请用数字键0-9回答</b>
                    </div>","","","","","","","","","","","","","","","","","","",""
"706","null","sub_response","html-keyboard-response","309","679821","0.0-1.0-9.0-3.0-2.11","23:46:15","4","","","","","","","<div style='text-align: center;'>
                            <span style=""color: red; font-size: 40px""><b>错误！+0 pts</b></span></div>
                            ","","learn","0","0","0","learn","0","0","[0, 1, 2, 3, 4, 5, 6, 7, 8, 9]","11","1","setsize","10S10A","animals","2","0","8","0",""
"null","null","fixation","html-keyboard-response","310","680323","0.0-1.0-9.0-3.0-0.12","23:46:15","4","","","","","","","fixation","","","","","","","","","","","","","","","","","","",""
"506","6","pic_response","html-keyboard-response","311","680829","0.0-1.0-9.0-3.0-1.12","23:46:15","4","","","","","","","<div>
            <img class='stim' src=""pictures/animals/8.jpg""></div><div class=""button_prompt"">
                    <b>请用数字键0-9回答</b>
                    </div>","","","","","","","","","","","","","","","","","","",""
"506","null","sub_response","html-keyboard-response","312","681830","0.0-1.0-9.0-3.0-2.12","23:46:15","4","","","","","","","<div style='text-align: center;'>
                            <span style=""color: red; font-size: 40px""><b>错误！+0 pts</b></span></div>
                            ","","learn","8","8","8","learn","8","8","[0, 1, 2, 3, 4, 5, 6, 7, 8, 9]","12","1","setsize","10S10A","animals","2","0","5","0",""
"null","null","fixation","html-keyboard-response","313","682332","0.0-1.0-9.0-3.0-0.13","23:46:15","4","","","","","","","fixation","","","","","","","","","","","","","","","","","","",""
"119","7","pic_response","html-keyboard-response","314","682451","0.0-1.0-9.0-3.0-1.13","23:46:15","4","","","","","","","<div>
            <img class='stim' src=""pictures/animals/1.jpg""></div><div class=""button_prompt"">
                    <b>请用数字键0-9回答</b>
                    </div>","","","","","","","","","","","","","","","","","","",""
"119","null","sub_response","html-keyboard-response","315","683452","0.0-1.0-9.0-3.0-2.13","23:46:15","4","","","","","","","<div style='text-align: center;'>
                            <span style=""color: red; font-size: 40px""><b>错误！+0 pts</b></span></div>
                            ","","learn","1","1","1","learn","1","1","[0, 1, 2, 3, 4, 5, 6, 7, 8, 9]","13","1","setsize","10S10A","animals","2","0","6","0",""
"null","null","fixation","html-keyboard-response","316","683954","0.0-1.0-9.0-3.0-0.14","23:46:15","4","","","","","","","fixation","","","","","","","","","","","","","","","","","","",""
"687","4","pic_response","html-keyboard-response","317","684641","0.0-1.0-9.0-3.0-1.14","23:46:15","4","","","","","","","<div>
            <img class='stim' src=""pictures/animals/2.jpg""></div><div class=""button_prompt"">
                    <b>请用数字键0-9回答</b>
                    </div>","","","","","","","","","","","","","","","","","","",""
"687","null","sub_response","html-keyboard-response","318","685642","0.0-1.0-9.0-3.0-2.14","23:46:15","4","","","","","","","<div style='text-align: center;'>
                            <span style=""color: red; font-size: 40px""><b>错误！+0 pts</b></span></div>
                            ","","learn","2","2","2","learn","2","2","[0, 1, 2, 3, 4, 5, 6, 7, 8, 9]","14","1","setsize","10S10A","animals","2","0","3","0",""
"null","null","fixation","html-keyboard-response","319","686147","0.0-1.0-9.0-3.0-0.15","23:46:15","4","","","","","","","fixation","","","","","","","","","","","","","","","","","","",""
"324","6","pic_response","html-keyboard-response","320","686472","0.0-1.0-9.0-3.0-1.15","23:46:15","4","","","","","","","<div>
            <img class='stim' src=""pictures/animals/7.jpg""></div><div class=""button_prompt"">
                    <b>请用数字键0-9回答</b>
                    </div>","","","","","","","","","","","","","","","","","","",""
"324","null","sub_response","html-keyboard-response","321","687473","0.0-1.0-9.0-3.0-2.15","23:46:15","4","","","","","","","<div style='text-align: center;'>
                            <span style=""color: red; font-size: 40px""><b>错误！+0 pts</b></span></div>
                            ","","learn","7","7","7","learn","7","7","[0, 1, 2, 3, 4, 5, 6, 7, 8, 9]","15","1","setsize","10S10A","animals","2","0","5","0",""
"null","null","fixation","html-keyboard-response","322","687985","0.0-1.0-9.0-3.0-0.16","23:46:15","4","","","","","","","fixation","","","","","","","","","","","","","","","","","","",""
