"rt","response","screen_id","trial_type","trial_index","time_elapsed","internal_node_id","start_time","n_Prac","success","timeout","failed_images","failed_audio","failed_video","view_history","stimulus","question_order","stage","s","word","word_id","phase","a_cor","a_real","a_ava","trial","tps","task_type","block_typ","pic_typ","block_id","cum_r","a","r","plugin_name"
"82700","{""sub_id"":""2268"",""task_type"":""task1"",""name"":""李娜"",""gender"":""女""}","basic_info","survey-html-form","0","82704","0.0-0.0","20:26:01","2","","","","","","","","","","","","","","","","","","","","","","","","","",""
"","","","preload","1","83132","0.0-1.0-0.0","20:26:01","2","true","false","[]","[]","[]","","","","","","","","","","","","","","","","","","","","",""
"","","","preload","2","83182","0.0-1.0-1.0","20:26:01","2","true","false","[]","[]","[]","","","","","","","","","","","","","","","","","","","","",""
"","","","fullscreen","3","86039","0.0-1.0-2.0","20:26:01","2","true","","","","","","","","","","","","","","","","","","","","","","","","",""
"195276","","instruct","instructions","4","281316","0.0-1.0-3.0-0.0","20:26:01","2","","","","","","[{""page_index"":0,""viewing_time"":8255},{""page_index"":1,""viewing_time"":10672},{""page_index"":2,""viewing_time"":176348}]","","","","","","","","","","","","","","","","","","","",""
"115257","{""Q0"":"""",""task1"":""<span style='font-size: 24px'>选择正确按钮获得更多能量</span>"",""task2"":""<span style='font-size: 24px'> 数字键1-3 </span>"",""task3"":""<span style='font-size: 24px'> 看到图片选出正确对应的数字 </span>""}","question","survey-multi-choice","5","396575","0.0-1.0-3.0-1.0","20:26:01","2","","","","","","","","[0,1,2,3]","","","","","","","","","","","","","","","","","",""
"4737"," ","inst_q","html-keyboard-response","6","401316","0.0-1.0-3.0-2.0","20:26:01","2","","","","","","","inst","","1","","","","","","","","","","","","","","","","",""
"46434","","instruct","instructions","7","447752","0.0-1.0-3.1-0.1","20:26:01","2","","","","","","[{""page_index"":0,""viewing_time"":8704},{""page_index"":1,""viewing_time"":34072},{""page_index"":2,""viewing_time"":3657}]","","","","","","","","","","","","","","","","","","","",""
"18711","{""Q0"":"""",""task1"":""<span style='font-size: 24px'>学习图片和数字的对应关系</span>"",""task2"":""<span style='font-size: 24px'> 数字键1-3 </span>"",""task3"":""<span style='font-size: 24px'> 看到图片选出正确对应的数字 </span>""}","question","survey-multi-choice","8","466465","0.0-1.0-3.1-1.1","20:26:01","2","","","","","","","","[0,1,2,3]","","","","","","","","","","","","","","","","","",""
"1842"," ","inst_q","html-keyboard-response","9","468310","0.0-1.0-3.1-2.1","20:26:01","2","","","","","","","inst","","1","","","","","","","","","","","","","","","","",""
"56443","","instruct","instructions","10","524753","0.0-1.0-3.2-0.2","20:26:01","2","","","","","","[{""page_index"":0,""viewing_time"":44523},{""page_index"":1,""viewing_time"":6321},{""page_index"":2,""viewing_time"":5599}]","","","","","","","","","","","","","","","","","","","",""
"10704","{""Q0"":"""",""task1"":""<span style='font-size: 24px'>学习图片和数字的对应关系</span>"",""task2"":""<span style='font-size: 24px'> 数字键1-3 </span>"",""task3"":""<span style='font-size: 24px'> 猜测Queen Elizabeth住在哪一栋房子里 </span>""}","question","survey-multi-choice","11","535459","0.0-1.0-3.2-1.2","20:26:01","2","","","","","","","","[0,1,2,3]","","","","","","","","","","","","","","","","","",""
"2788"," ","inst_q","html-keyboard-response","12","538250","0.0-1.0-3.2-2.2","20:26:01","2","","","","","","","inst","","1","","","","","","","","","","","","","","","","",""
"16008","","instruct","instructions","13","554259","0.0-1.0-3.3-0.3","20:26:01","2","","","","","","[{""page_index"":0,""viewing_time"":3775},{""page_index"":1,""viewing_time"":7193},{""page_index"":2,""viewing_time"":5040}]","","","","","","","","","","","","","","","","","","","",""
"17528","{""Q0"":"""",""task1"":""<span style='font-size: 24px'>学习图片和数字的对应关系</span>"",""task2"":""<span style='font-size: 24px'> 数字键1-3 </span>"",""task3"":""<span style='font-size: 24px'> 看到图片选出正确对应的数字 </span>""}","question","survey-multi-choice","14","571788","0.0-1.0-3.3-1.3","20:26:01","2","","","","","","","","[0,1,2,3]","","","","","","","","","","","","","","","","","",""
"3350"," ","inst_q","html-keyboard-response","15","575141","0.0-1.0-3.3-2.3","20:26:01","2","","","","","","","inst","","1","","","","","","","","","","","","","","","","",""
"36662","","instruct","instructions","16","611804","0.0-1.0-3.4-0.4","20:26:01","2","","","","","","[{""page_index"":0,""viewing_time"":12109},{""page_index"":1,""viewing_time"":5801},{""page_index"":2,""viewing_time"":9720},{""page_index"":1,""viewing_time"":983},{""page_index"":0,""viewing_time"":2864},{""page_index"":1,""viewing_time"":4088},{""page_index"":2,""viewing_time"":1096}]","","","","","","","","","","","","","","","","","","","",""
"9808","{""Q0"":"""",""task1"":""<span style='font-size: 24px'>学习图片和数字的对应关系</span>"",""task2"":""<span style='font-size: 24px'> 图片下方标注为可用的数字键（数字键1-3或0-9） </span>"",""task3"":""<span style='font-size: 24px'> 看到图片选出正确对应的数字 </span>""}","question","survey-multi-choice","17","621613","0.0-1.0-3.4-1.4","20:26:01","2","","","","","","","","[0,1,2,3]","","","","","","","","","","","","","","","","","",""
"14578"," ","inst_q","html-keyboard-response","18","636194","0.0-1.0-3.4-2.4","20:26:01","2","","","","","","","inst","","1","","","","","","","","","","","","","","","","",""
"","","","preload","19","636440","0.0-1.0-4.0-0.0","20:26:01","2","true","false","[]","[]","[]","","","","","","","","","","","","","","","","","","","","",""
"5871"," ","","html-keyboard-response","20","642312","0.0-1.0-4.0-1.0","20:26:01","2","","","","","","","<div style='font-size: 32px; text-align: center;'
                    <p>请学习图片和数字之间的对应关系</p>
                    <p>我们将<span style='color: blue'><b> 告诉 </b></span>您选择的对错。请根据反馈学习。</p>
                    <p>请按""空格""继续实验。</p></div>","","","","","","","","","","","","","","","","","","",""
"13862"," ","inst","html-keyboard-response","21","656175","0.0-1.0-4.0-2.0","20:26:01","2","","","","","","","<img class='instruct_stim' src=""instruction/prac3.PNG""></div>","","","","","","","","","","","","","","","","","","",""
"null","null","fixation","html-keyboard-response","22","656677","0.0-1.0-4.0-3.0-0.0","20:26:01","2","","","","","","","fixation","","","","","","","","","","","","","","","","","","",""
"1943","1","pic_response","html-keyboard-response","23","658622","0.0-1.0-4.0-3.0-1.0","20:26:01","2","","","","","","","<div>
            <img class='stim' src=""pictures/prac/1.jpg""></div><div class=""button_prompt"">
                        <b>请用数字键1-3回答</b>
                        </div>","","","","","","","","","","","","","","","","","","",""
"1943","null","sub_response","html-keyboard-response","24","659624","0.0-1.0-4.0-3.0-2.0","20:26:01","2","","","","","","","<div style='text-align: center;'>
                            <span style=""color: green; font-size: 40px""><b>正确！+1 pts</b></span></div>
                            ","","learn","1","1","1","learn","0","0","[0, 1, 2]","0","0","setsize","99","prac","0","1","0","1",""
"null","null","fixation","html-keyboard-response","25","660144","0.0-1.0-4.0-3.0-0.1","20:26:01","2","","","","","","","fixation","","","","","","","","","","","","","","","","","","",""
"1619","2","pic_response","html-keyboard-response","26","661763","0.0-1.0-4.0-3.0-1.1","20:26:01","2","","","","","","","<div>
            <img class='stim' src=""pictures/prac/0.jpg""></div><div class=""button_prompt"">
                        <b>请用数字键1-3回答</b>
                        </div>","","","","","","","","","","","","","","","","","","",""
"1619","null","sub_response","html-keyboard-response","27","662765","0.0-1.0-4.0-3.0-2.1","20:26:01","2","","","","","","","<div style='text-align: center;'>
                            <span style=""color: red; font-size: 40px""><b>错误！+0 pts</b></span></div>
                            ","","learn","0","0","0","learn","0","0","[0, 1, 2]","1","0","setsize","99","prac","0","0","1","0",""
"null","null","fixation","html-keyboard-response","28","663267","0.0-1.0-4.0-3.0-0.2","20:26:01","2","","","","","","","fixation","","","","","","","","","","","","","","","","","","",""
"988","3","pic_response","html-keyboard-response","29","664256","0.0-1.0-4.0-3.0-1.2","20:26:01","2","","","","","","","<div>
            <img class='stim' src=""pictures/prac/2.jpg""></div><div class=""button_prompt"">
                        <b>请用数字键1-3回答</b>
                        </div>","","","","","","","","","","","","","","","","","","",""
"988","null","sub_response","html-keyboard-response","30","665257","0.0-1.0-4.0-3.0-2.2","20:26:01","2","","","","","","","<div style='text-align: center;'>
                            <span style=""color: green; font-size: 40px""><b>正确！+1 pts</b></span></div>
                            ","","learn","2","2","2","learn","2","2","[0, 1, 2]","2","0","setsize","99","prac","0","1","2","1",""
"null","null","fixation","html-keyboard-response","31","665759","0.0-1.0-4.0-3.0-0.3","20:26:01","2","","","","","","","fixation","","","","","","","","","","","","","","","","","","",""
"2768","2","pic_response","html-keyboard-response","32","668528","0.0-1.0-4.0-3.0-1.3","20:26:01","2","","","","","","","<div>
            <img class='stim' src=""pictures/prac/0.jpg""></div><div class=""button_prompt"">
                        <b>请用数字键1-3回答</b>
                        </div>","","","","","","","","","","","","","","","","","","",""
"2768","null","sub_response","html-keyboard-response","33","669530","0.0-1.0-4.0-3.0-2.3","20:26:01","2","","","","","","","<div style='text-align: center;'>
                            <span style=""color: red; font-size: 40px""><b>错误！+0 pts</b></span></div>
                            ","","learn","0","0","0","learn","0","0","[0, 1, 2]","3","1","setsize","99","prac","0","0","1","0",""
"null","null","fixation","html-keyboard-response","34","670032","0.0-1.0-4.0-3.0-0.4","20:26:01","2","","","","","","","fixation","","","","","","","","","","","","","","","","","","",""
"903","1","pic_response","html-keyboard-response","35","670936","0.0-1.0-4.0-3.0-1.4","20:26:01","2","","","","","","","<div>
            <img class='stim' src=""pictures/prac/1.jpg""></div><div class=""button_prompt"">
                        <b>请用数字键1-3回答</b>
                        </div>","","","","","","","","","","","","","","","","","","",""
"903","null","sub_response","html-keyboard-response","36","671937","0.0-1.0-4.0-3.0-2.4","20:26:01","2","","","","","","","<div style='text-align: center;'>
                            <span style=""color: green; font-size: 40px""><b>正确！+1 pts</b></span></div>
                            ","","learn","1","1","1","learn","0","0","[0, 1, 2]","4","1","setsize","99","prac","0","1","0","1",""
"null","null","fixation","html-keyboard-response","37","672439","0.0-1.0-4.0-3.0-0.5","20:26:01","2","","","","","","","fixation","","","","","","","","","","","","","","","","","","",""
"1900","3","pic_response","html-keyboard-response","38","674340","0.0-1.0-4.0-3.0-1.5","20:26:01","2","","","","","","","<div>
            <img class='stim' src=""pictures/prac/2.jpg""></div><div class=""button_prompt"">
                        <b>请用数字键1-3回答</b>
                        </div>","","","","","","","","","","","","","","","","","","",""
"1900","null","sub_response","html-keyboard-response","39","675342","0.0-1.0-4.0-3.0-2.5","20:26:01","2","","","","","","","<div style='text-align: center;'>
                            <span style=""color: green; font-size: 40px""><b>正确！+1 pts</b></span></div>
                            ","","learn","2","2","2","learn","2","2","[0, 1, 2]","5","1","setsize","99","prac","0","2","2","1",""
"","","","preload","40","675346","0.0-1.0-4.1-0.1","20:26:01","2","true","false","[]","[]","[]","","","","","","","","","","","","","","","","","","","","",""
"6362"," ","","html-keyboard-response","41","681708","0.0-1.0-4.1-1.1","20:26:01","2","","","","","","","<div style='font-size: 32px; text-align: center;'
                    <p>请学习图片和数字之间的对应关系</p>
                    <p>我们将<span style='color: blue'><b> 告诉 </b></span>您选择的对错。请根据反馈学习。</p>
                    <p>请按""空格""继续实验。</p></div>","","","","","","","","","","","","","","","","","","",""
"17352"," ","inst","html-keyboard-response","42","699061","0.0-1.0-4.1-2.1","20:26:01","2","","","","","","","<img class='instruct_stim' src=""instruction/prac3.PNG""></div>","","","","","","","","","","","","","","","","","","",""
"null","null","fixation","html-keyboard-response","43","699562","0.0-1.0-4.1-3.1-0.6","20:26:01","2","","","","","","","fixation","","","","","","","","","","","","","","","","","","",""
"728","1","pic_response","html-keyboard-response","44","700291","0.0-1.0-4.1-3.1-1.6","20:26:01","2","","","","","","","<div>
            <img class='stim' src=""pictures/prac/1.jpg""></div><div class=""button_prompt"">
                        <b>请用数字键1-3回答</b>
                        </div>","","","","","","","","","","","","","","","","","","",""
"728","null","sub_response","html-keyboard-response","45","701293","0.0-1.0-4.1-3.1-2.6","20:26:01","2","","","","","","","<div style='text-align: center;'>
                            <span style=""color: green; font-size: 40px""><b>正确！+1 pts</b></span></div>
                            ","","learn","1","1","1","learn","0","0","[0, 1, 2]","0","0","setsize","99","prac","0","3","0","1",""
"null","null","fixation","html-keyboard-response","46","701795","0.0-1.0-4.1-3.1-0.7","20:26:01","2","","","","","","","fixation","","","","","","","","","","","","","","","","","","",""
"719","3","pic_response","html-keyboard-response","47","702514","0.0-1.0-4.1-3.1-1.7","20:26:01","2","","","","","","","<div>
            <img class='stim' src=""pictures/prac/0.jpg""></div><div class=""button_prompt"">
                        <b>请用数字键1-3回答</b>
                        </div>","","","","","","","","","","","","","","","","","","",""
"719","null","sub_response","html-keyboard-response","48","703517","0.0-1.0-4.1-3.1-2.7","20:26:01","2","","","","","","","<div style='text-align: center;'>
                            <span style=""color: red; font-size: 40px""><b>错误！+0 pts</b></span></div>
                            ","","learn","0","0","0","learn","0","0","[0, 1, 2]","1","0","setsize","99","prac","0","0","2","0",""
"null","null","fixation","html-keyboard-response","49","704018","0.0-1.0-4.1-3.1-0.8","20:26:01","2","","","","","","","fixation","","","","","","","","","","","","","","","","","","",""
"1406","3","pic_response","html-keyboard-response","50","705425","0.0-1.0-4.1-3.1-1.8","20:26:01","2","","","","","","","<div>
            <img class='stim' src=""pictures/prac/2.jpg""></div><div class=""button_prompt"">
                        <b>请用数字键1-3回答</b>
                        </div>","","","","","","","","","","","","","","","","","","",""
"1406","null","sub_response","html-keyboard-response","51","706427","0.0-1.0-4.1-3.1-2.8","20:26:01","2","","","","","","","<div style='text-align: center;'>
                            <span style=""color: green; font-size: 40px""><b>正确！+1 pts</b></span></div>
                            ","","learn","2","2","2","learn","2","2","[0, 1, 2]","2","0","setsize","99","prac","0","1","2","1",""
"null","null","fixation","html-keyboard-response","52","706928","0.0-1.0-4.1-3.1-0.9","20:26:01","2","","","","","","","fixation","","","","","","","","","","","","","","","","","","",""
"975","1","pic_response","html-keyboard-response","53","707904","0.0-1.0-4.1-3.1-1.9","20:26:01","2","","","","","","","<div>
            <img class='stim' src=""pictures/prac/0.jpg""></div><div class=""button_prompt"">
                        <b>请用数字键1-3回答</b>
                        </div>","","","","","","","","","","","","","","","","","","",""
"975","null","sub_response","html-keyboard-response","54","708905","0.0-1.0-4.1-3.1-2.9","20:26:01","2","","","","","","","<div style='text-align: center;'>
                            <span style=""color: green; font-size: 40px""><b>正确！+1 pts</b></span></div>
                            ","","learn","0","0","0","learn","0","0","[0, 1, 2]","3","1","setsize","99","prac","0","2","0","1",""
"null","null","fixation","html-keyboard-response","55","709407","0.0-1.0-4.1-3.1-0.10","20:26:01","2","","","","","","","fixation","","","","","","","","","","","","","","","","","","",""
"781","1","pic_response","html-keyboard-response","56","710189","0.0-1.0-4.1-3.1-1.10","20:26:01","2","","","","","","","<div>
            <img class='stim' src=""pictures/prac/1.jpg""></div><div class=""button_prompt"">
                        <b>请用数字键1-3回答</b>
                        </div>","","","","","","","","","","","","","","","","","","",""
"781","null","sub_response","html-keyboard-response","57","711190","0.0-1.0-4.1-3.1-2.10","20:26:01","2","","","","","","","<div style='text-align: center;'>
                            <span style=""color: green; font-size: 40px""><b>正确！+1 pts</b></span></div>
                            ","","learn","1","1","1","learn","0","0","[0, 1, 2]","4","1","setsize","99","prac","0","3","0","1",""
"null","null","fixation","html-keyboard-response","58","711692","0.0-1.0-4.1-3.1-0.11","20:26:01","2","","","","","","","fixation","","","","","","","","","","","","","","","","","","",""
"946","3","pic_response","html-keyboard-response","59","712639","0.0-1.0-4.1-3.1-1.11","20:26:01","2","","","","","","","<div>
            <img class='stim' src=""pictures/prac/2.jpg""></div><div class=""button_prompt"">
                        <b>请用数字键1-3回答</b>
                        </div>","","","","","","","","","","","","","","","","","","",""
"946","null","sub_response","html-keyboard-response","60","713641","0.0-1.0-4.1-3.1-2.11","20:26:01","2","","","","","","","<div style='text-align: center;'>
                            <span style=""color: green; font-size: 40px""><b>正确！+1 pts</b></span></div>
                            ","","learn","2","2","2","learn","2","2","[0, 1, 2]","5","1","setsize","99","prac","0","4","2","1",""
"3045"," ","","html-keyboard-response","61","716687","0.0-1.0-5.0","20:26:01","2","","","","","","","<div style=""font-size: 25px""><p>距下一个实验开始还有</p><div style=""font-size: 50px; color: blue""><p><span id=""clock"">1:00</span></div></p><p>按""空格""跳过休息</p></div>","","","","","","","","","","","","","","","","","","",""
"6993"," ","","html-keyboard-response","62","723681","0.0-1.0-6.0","20:26:01","2","","","","","","","<div style='font-size: 32px; text-align: center;'
                    <p>请按""空格""继续正式实验。</p></div>","","","","","","","","","","","","","","","","","","",""
"","","","preload","63","724012","0.0-1.0-7.0-0.0","20:26:01","2","true","false","[]","[]","[]","","","","","","","","","","","","","","","","","","","","",""
"2359"," ","","html-keyboard-response","64","726372","0.0-1.0-7.0-1.0","20:26:01","2","","","","","","","<div style='font-size: 32px; text-align: center;'
                    <p>请学习图片和数字之间的对应关系</p>
                    <p>我们将<span style='color: blue'><b> 告诉 </b></span>您选择的对错。请根据反馈学习。</p>
                    <p>请按""空格""继续实验。</p></div>","","","","","","","","","","","","","","","","","","",""
"9193"," ","inst","html-keyboard-response","65","735566","0.0-1.0-7.0-2.0","20:26:01","2","","","","","","","<img class='instruct_stim' src=""instruction/food3.PNG""></div>","","","","","","","","","","","","","","","","","","",""
"null","null","fixation","html-keyboard-response","66","736068","0.0-1.0-7.0-3.0-0.0","20:26:01","2","","","","","","","fixation","","","","","","","","","","","","","","","","","","",""
"1090","3","pic_response","html-keyboard-response","67","737159","0.0-1.0-7.0-3.0-1.0","20:26:01","2","","","","","","","<div>
            <img class='stim' src=""pictures/food/1.jpg""></div><div class=""button_prompt"">
                    <b>请用数字键0-9回答</b>
                    </div>","","","","","","","","","","","","","","","","","","",""
"1090","null","sub_response","html-keyboard-response","68","738161","0.0-1.0-7.0-3.0-2.0","20:26:01","2","","","","","","","<div style='text-align: center;'>
                            <span style=""color: red; font-size: 40px""><b>错误！+0 pts</b></span></div>
                            ","","learn","1","1","1","learn","6","6","[0, 1, 2, 3, 4, 5, 6, 7, 8, 9]","0","0","setsize","3S10A","food","1","0","2","0",""
"null","null","fixation","html-keyboard-response","69","738663","0.0-1.0-7.0-3.0-0.1","20:26:01","2","","","","","","","fixation","","","","","","","","","","","","","","","","","","",""
"1586","3","pic_response","html-keyboard-response","70","740250","0.0-1.0-7.0-3.0-1.1","20:26:01","2","","","","","","","<div>
            <img class='stim' src=""pictures/food/0.jpg""></div><div class=""button_prompt"">
                    <b>请用数字键0-9回答</b>
                    </div>","","","","","","","","","","","","","","","","","","",""
"1586","null","sub_response","html-keyboard-response","71","741251","0.0-1.0-7.0-3.0-2.1","20:26:01","2","","","","","","","<div style='text-align: center;'>
                            <span style=""color: green; font-size: 40px""><b>正确！+1 pts</b></span></div>
                            ","","learn","0","0","0","learn","2","2","[0, 1, 2, 3, 4, 5, 6, 7, 8, 9]","1","0","setsize","3S10A","food","1","1","2","1",""
"null","null","fixation","html-keyboard-response","72","741753","0.0-1.0-7.0-3.0-0.2","20:26:01","2","","","","","","","fixation","","","","","","","","","","","","","","","","","","",""
"1557","1","pic_response","html-keyboard-response","73","743311","0.0-1.0-7.0-3.0-1.2","20:26:01","2","","","","","","","<div>
            <img class='stim' src=""pictures/food/2.jpg""></div><div class=""button_prompt"">
                    <b>请用数字键0-9回答</b>
                    </div>","","","","","","","","","","","","","","","","","","",""
"1557","null","sub_response","html-keyboard-response","74","744312","0.0-1.0-7.0-3.0-2.2","20:26:01","2","","","","","","","<div style='text-align: center;'>
                            <span style=""color: red; font-size: 40px""><b>错误！+0 pts</b></span></div>
                            ","","learn","2","2","2","learn","9","9","[0, 1, 2, 3, 4, 5, 6, 7, 8, 9]","2","0","setsize","3S10A","food","1","0","0","0",""
"null","null","fixation","html-keyboard-response","75","744814","0.0-1.0-7.0-3.0-0.3","20:26:01","2","","","","","","","fixation","","","","","","","","","","","","","","","","","","",""
"964","3","pic_response","html-keyboard-response","76","745779","0.0-1.0-7.0-3.0-1.3","20:26:01","2","","","","","","","<div>
            <img class='stim' src=""pictures/food/0.jpg""></div><div class=""button_prompt"">
                    <b>请用数字键0-9回答</b>
                    </div>","","","","","","","","","","","","","","","","","","",""
"964","null","sub_response","html-keyboard-response","77","746780","0.0-1.0-7.0-3.0-2.3","20:26:01","2","","","","","","","<div style='text-align: center;'>
                            <span style=""color: green; font-size: 40px""><b>正确！+1 pts</b></span></div>
                            ","","learn","0","0","0","learn","2","2","[0, 1, 2, 3, 4, 5, 6, 7, 8, 9]","3","1","setsize","3S10A","food","1","1","2","1",""
"null","null","fixation","html-keyboard-response","78","747281","0.0-1.0-7.0-3.0-0.4","20:26:01","2","","","","","","","fixation","","","","","","","","","","","","","","","","","","",""
"2195","2","pic_response","html-keyboard-response","79","749478","0.0-1.0-7.0-3.0-1.4","20:26:01","2","","","","","","","<div>
            <img class='stim' src=""pictures/food/1.jpg""></div><div class=""button_prompt"">
                    <b>请用数字键0-9回答</b>
                    </div>","","","","","","","","","","","","","","","","","","",""
"2195","null","sub_response","html-keyboard-response","80","750479","0.0-1.0-7.0-3.0-2.4","20:26:01","2","","","","","","","<div style='text-align: center;'>
                            <span style=""color: red; font-size: 40px""><b>错误！+0 pts</b></span></div>
                            ","","learn","1","1","1","learn","6","6","[0, 1, 2, 3, 4, 5, 6, 7, 8, 9]","4","1","setsize","3S10A","food","1","0","1","0",""
"null","null","fixation","html-keyboard-response","81","750980","0.0-1.0-7.0-3.0-0.5","20:26:01","2","","","","","","","fixation","","","","","","","","","","","","","","","","","","",""
"1378","2","pic_response","html-keyboard-response","82","752359","0.0-1.0-7.0-3.0-1.5","20:26:01","2","","","","","","","<div>
            <img class='stim' src=""pictures/food/2.jpg""></div><div class=""button_prompt"">
                    <b>请用数字键0-9回答</b>
                    </div>","","","","","","","","","","","","","","","","","","",""
"1378","null","sub_response","html-keyboard-response","83","753361","0.0-1.0-7.0-3.0-2.5","20:26:01","2","","","","","","","<div style='text-align: center;'>
                            <span style=""color: red; font-size: 40px""><b>错误！+0 pts</b></span></div>
                            ","","learn","2","2","2","learn","9","9","[0, 1, 2, 3, 4, 5, 6, 7, 8, 9]","5","1","setsize","3S10A","food","1","0","1","0",""
"null","null","fixation","html-keyboard-response","84","753862","0.0-1.0-7.0-3.0-0.6","20:26:01","2","","","","","","","fixation","","","","","","","","","","","","","","","","","","",""
"740","1","pic_response","html-keyboard-response","85","754603","0.0-1.0-7.0-3.0-1.6","20:26:01","2","","","","","","","<div>
            <img class='stim' src=""pictures/food/2.jpg""></div><div class=""button_prompt"">
                    <b>请用数字键0-9回答</b>
                    </div>","","","","","","","","","","","","","","","","","","",""
"740","null","sub_response","html-keyboard-response","86","755604","0.0-1.0-7.0-3.0-2.6","20:26:01","2","","","","","","","<div style='text-align: center;'>
                            <span style=""color: red; font-size: 40px""><b>错误！+0 pts</b></span></div>
                            ","","learn","2","2","2","learn","9","9","[0, 1, 2, 3, 4, 5, 6, 7, 8, 9]","6","2","setsize","3S10A","food","1","0","0","0",""
"null","null","fixation","html-keyboard-response","87","756106","0.0-1.0-7.0-3.0-0.7","20:26:01","2","","","","","","","fixation","","","","","","","","","","","","","","","","","","",""
"923","3","pic_response","html-keyboard-response","88","757030","0.0-1.0-7.0-3.0-1.7","20:26:01","2","","","","","","","<div>
            <img class='stim' src=""pictures/food/0.jpg""></div><div class=""button_prompt"">
                    <b>请用数字键0-9回答</b>
                    </div>","","","","","","","","","","","","","","","","","","",""
"923","null","sub_response","html-keyboard-response","89","758030","0.0-1.0-7.0-3.0-2.7","20:26:01","2","","","","","","","<div style='text-align: center;'>
                            <span style=""color: green; font-size: 40px""><b>正确！+1 pts</b></span></div>
                            ","","learn","0","0","0","learn","2","2","[0, 1, 2, 3, 4, 5, 6, 7, 8, 9]","7","2","setsize","3S10A","food","1","1","2","1",""
"null","null","fixation","html-keyboard-response","90","758532","0.0-1.0-7.0-3.0-0.8","20:26:01","2","","","","","","","fixation","","","","","","","","","","","","","","","","","","",""
"854","3","pic_response","html-keyboard-response","91","759387","0.0-1.0-7.0-3.0-1.8","20:26:01","2","","","","","","","<div>
            <img class='stim' src=""pictures/food/1.jpg""></div><div class=""button_prompt"">
                    <b>请用数字键0-9回答</b>
                    </div>","","","","","","","","","","","","","","","","","","",""
"854","null","sub_response","html-keyboard-response","92","760389","0.0-1.0-7.0-3.0-2.8","20:26:01","2","","","","","","","<div style='text-align: center;'>
                            <span style=""color: red; font-size: 40px""><b>错误！+0 pts</b></span></div>
                            ","","learn","1","1","1","learn","6","6","[0, 1, 2, 3, 4, 5, 6, 7, 8, 9]","8","2","setsize","3S10A","food","1","0","2","0",""
"null","null","fixation","html-keyboard-response","93","760892","0.0-1.0-7.0-3.0-0.9","20:26:01","2","","","","","","","fixation","","","","","","","","","","","","","","","","","","",""
"833","1","pic_response","html-keyboard-response","94","761726","0.0-1.0-7.0-3.0-1.9","20:26:01","2","","","","","","","<div>
            <img class='stim' src=""pictures/food/1.jpg""></div><div class=""button_prompt"">
                    <b>请用数字键0-9回答</b>
                    </div>","","","","","","","","","","","","","","","","","","",""
"833","null","sub_response","html-keyboard-response","95","762727","0.0-1.0-7.0-3.0-2.9","20:26:01","2","","","","","","","<div style='text-align: center;'>
                            <span style=""color: red; font-size: 40px""><b>错误！+0 pts</b></span></div>
                            ","","learn","1","1","1","learn","6","6","[0, 1, 2, 3, 4, 5, 6, 7, 8, 9]","9","3","setsize","3S10A","food","1","0","0","0",""
"null","null","fixation","html-keyboard-response","96","763228","0.0-1.0-7.0-3.0-0.10","20:26:01","2","","","","","","","fixation","","","","","","","","","","","","","","","","","","",""
"null","null","pic_response","html-keyboard-response","97","766231","0.0-1.0-7.0-3.0-1.10","20:26:01","2","","","","","","","<div>
            <img class='stim' src=""pictures/food/2.jpg""></div><div class=""button_prompt"">
                    <b>请用数字键0-9回答</b>
                    </div>","","","","","","","","","","","","","","","","","","",""
"null","null","sub_response","html-keyboard-response","98","767233","0.0-1.0-7.0-3.0-2.10","20:26:01","2","","","","","","","<div style='text-align: center;'>
                            <span style=""color: red; font-size: 40px""><b>错误！+0 pts</b></span></div>
                            ","","learn","2","2","2","learn","9","9","[0, 1, 2, 3, 4, 5, 6, 7, 8, 9]","10","3","setsize","3S10A","food","1","0","999","0",""
"null","null","fixation","html-keyboard-response","99","767735","0.0-1.0-7.0-3.0-0.11","20:26:01","2","","","","","","","fixation","","","","","","","","","","","","","","","","","","",""
"1536","3","pic_response","html-keyboard-response","100","769271","0.0-1.0-7.0-3.0-1.11","20:26:01","2","","","","","","","<div>
            <img class='stim' src=""pictures/food/0.jpg""></div><div class=""button_prompt"">
                    <b>请用数字键0-9回答</b>
                    </div>","","","","","","","","","","","","","","","","","","",""
"1536","null","sub_response","html-keyboard-response","101","770273","0.0-1.0-7.0-3.0-2.11","20:26:01","2","","","","","","","<div style='text-align: center;'>
                            <span style=""color: green; font-size: 40px""><b>正确！+1 pts</b></span></div>
                            ","","learn","0","0","0","learn","2","2","[0, 1, 2, 3, 4, 5, 6, 7, 8, 9]","11","3","setsize","3S10A","food","1","1","2","1",""
"null","null","fixation","html-keyboard-response","102","770774","0.0-1.0-7.0-3.0-0.12","20:26:01","2","","","","","","","fixation","","","","","","","","","","","","","","","","","","",""
"1298","2","pic_response","html-keyboard-response","103","772073","0.0-1.0-7.0-3.0-1.12","20:26:01","2","","","","","","","<div>
            <img class='stim' src=""pictures/food/1.jpg""></div><div class=""button_prompt"">
                    <b>请用数字键0-9回答</b>
                    </div>","","","","","","","","","","","","","","","","","","",""
"1298","null","sub_response","html-keyboard-response","104","773075","0.0-1.0-7.0-3.0-2.12","20:26:01","2","","","","","","","<div style='text-align: center;'>
                            <span style=""color: red; font-size: 40px""><b>错误！+0 pts</b></span></div>
                            ","","learn","1","1","1","learn","6","6","[0, 1, 2, 3, 4, 5, 6, 7, 8, 9]","12","4","setsize","3S10A","food","1","0","1","0",""
"null","null","fixation","html-keyboard-response","105","773577","0.0-1.0-7.0-3.0-0.13","20:26:01","2","","","","","","","fixation","","","","","","","","","","","","","","","","","","",""
"1138","3","pic_response","html-keyboard-response","106","774715","0.0-1.0-7.0-3.0-1.13","20:26:01","2","","","","","","","<div>
            <img class='stim' src=""pictures/food/0.jpg""></div><div class=""button_prompt"">
                    <b>请用数字键0-9回答</b>
                    </div>","","","","","","","","","","","","","","","","","","",""
"1138","null","sub_response","html-keyboard-response","107","775717","0.0-1.0-7.0-3.0-2.13","20:26:01","2","","","","","","","<div style='text-align: center;'>
                            <span style=""color: green; font-size: 40px""><b>正确！+1 pts</b></span></div>
                            ","","learn","0","0","0","learn","2","2","[0, 1, 2, 3, 4, 5, 6, 7, 8, 9]","13","4","setsize","3S10A","food","1","1","2","1",""
"null","null","fixation","html-keyboard-response","108","776219","0.0-1.0-7.0-3.0-0.14","20:26:01","2","","","","","","","fixation","","","","","","","","","","","","","","","","","","",""
"1461","0","pic_response","html-keyboard-response","109","777681","0.0-1.0-7.0-3.0-1.14","20:26:01","2","","","","","","","<div>
            <img class='stim' src=""pictures/food/2.jpg""></div><div class=""button_prompt"">
                    <b>请用数字键0-9回答</b>
                    </div>","","","","","","","","","","","","","","","","","","",""
"1461","null","sub_response","html-keyboard-response","110","778682","0.0-1.0-7.0-3.0-2.14","20:26:01","2","","","","","","","<div style='text-align: center;'>
                            <span style=""color: green; font-size: 40px""><b>正确！+1 pts</b></span></div>
                            ","","learn","2","2","2","learn","9","9","[0, 1, 2, 3, 4, 5, 6, 7, 8, 9]","14","4","setsize","3S10A","food","1","2","9","1",""
"null","null","fixation","html-keyboard-response","111","779184","0.0-1.0-7.0-3.0-0.15","20:26:01","2","","","","","","","fixation","","","","","","","","","","","","","","","","","","",""
"790","0","pic_response","html-keyboard-response","112","779975","0.0-1.0-7.0-3.0-1.15","20:26:01","2","","","","","","","<div>
            <img class='stim' src=""pictures/food/1.jpg""></div><div class=""button_prompt"">
                    <b>请用数字键0-9回答</b>
                    </div>","","","","","","","","","","","","","","","","","","",""
"790","null","sub_response","html-keyboard-response","113","780976","0.0-1.0-7.0-3.0-2.15","20:26:01","2","","","","","","","<div style='text-align: center;'>
                            <span style=""color: red; font-size: 40px""><b>错误！+0 pts</b></span></div>
                            ","","learn","1","1","1","learn","6","6","[0, 1, 2, 3, 4, 5, 6, 7, 8, 9]","15","5","setsize","3S10A","food","1","0","9","0",""
"null","null","fixation","html-keyboard-response","114","781479","0.0-1.0-7.0-3.0-0.16","20:26:01","2","","","","","","","fixation","","","","","","","","","","","","","","","","","","",""
"801","3","pic_response","html-keyboard-response","115","782280","0.0-1.0-7.0-3.0-1.16","20:26:01","2","","","","","","","<div>
            <img class='stim' src=""pictures/food/0.jpg""></div><div class=""button_prompt"">
                    <b>请用数字键0-9回答</b>
                    </div>","","","","","","","","","","","","","","","","","","",""
"801","null","sub_response","html-keyboard-response","116","783282","0.0-1.0-7.0-3.0-2.16","20:26:01","2","","","","","","","<div style='text-align: center;'>
                            <span style=""color: green; font-size: 40px""><b>正确！+1 pts</b></span></div>
                            ","","learn","0","0","0","learn","2","2","[0, 1, 2, 3, 4, 5, 6, 7, 8, 9]","16","5","setsize","3S10A","food","1","1","2","1",""
"null","null","fixation","html-keyboard-response","117","783783","0.0-1.0-7.0-3.0-0.17","20:26:01","2","","","","","","","fixation","","","","","","","","","","","","","","","","","","",""
"915","0","pic_response","html-keyboard-response","118","784698","0.0-1.0-7.0-3.0-1.17","20:26:01","2","","","","","","","<div>
            <img class='stim' src=""pictures/food/2.jpg""></div><div class=""button_prompt"">
                    <b>请用数字键0-9回答</b>
                    </div>","","","","","","","","","","","","","","","","","","",""
"915","null","sub_response","html-keyboard-response","119","785699","0.0-1.0-7.0-3.0-2.17","20:26:01","2","","","","","","","<div style='text-align: center;'>
                            <span style=""color: green; font-size: 40px""><b>正确！+1 pts</b></span></div>
                            ","","learn","2","2","2","learn","9","9","[0, 1, 2, 3, 4, 5, 6, 7, 8, 9]","17","5","setsize","3S10A","food","1","2","9","1",""
"null","null","fixation","html-keyboard-response","120","786201","0.0-1.0-7.0-3.0-0.18","20:26:01","2","","","","","","","fixation","","","","","","","","","","","","","","","","","","",""
"729","3","pic_response","html-keyboard-response","121","786931","0.0-1.0-7.0-3.0-1.18","20:26:01","2","","","","","","","<div>
            <img class='stim' src=""pictures/food/0.jpg""></div><div class=""button_prompt"">
                    <b>请用数字键0-9回答</b>
                    </div>","","","","","","","","","","","","","","","","","","",""
"729","null","sub_response","html-keyboard-response","122","787933","0.0-1.0-7.0-3.0-2.18","20:26:01","2","","","","","","","<div style='text-align: center;'>
                            <span style=""color: green; font-size: 40px""><b>正确！+1 pts</b></span></div>
                            ","","learn","0","0","0","learn","2","2","[0, 1, 2, 3, 4, 5, 6, 7, 8, 9]","18","6","setsize","3S10A","food","1","3","2","1",""
"null","null","fixation","html-keyboard-response","123","788435","0.0-1.0-7.0-3.0-0.19","20:26:01","2","","","","","","","fixation","","","","","","","","","","","","","","","","","","",""
"1081","1","pic_response","html-keyboard-response","124","789517","0.0-1.0-7.0-3.0-1.19","20:26:01","2","","","","","","","<div>
            <img class='stim' src=""pictures/food/2.jpg""></div><div class=""button_prompt"">
                    <b>请用数字键0-9回答</b>
                    </div>","","","","","","","","","","","","","","","","","","",""
"1081","null","sub_response","html-keyboard-response","125","790518","0.0-1.0-7.0-3.0-2.19","20:26:01","2","","","","","","","<div style='text-align: center;'>
                            <span style=""color: red; font-size: 40px""><b>错误！+0 pts</b></span></div>
                            ","","learn","2","2","2","learn","9","9","[0, 1, 2, 3, 4, 5, 6, 7, 8, 9]","19","6","setsize","3S10A","food","1","0","0","0",""
"null","null","fixation","html-keyboard-response","126","791020","0.0-1.0-7.0-3.0-0.20","20:26:01","2","","","","","","","fixation","","","","","","","","","","","","","","","","","","",""
"1135","0","pic_response","html-keyboard-response","127","792156","0.0-1.0-7.0-3.0-1.20","20:26:01","2","","","","","","","<div>
            <img class='stim' src=""pictures/food/1.jpg""></div><div class=""button_prompt"">
                    <b>请用数字键0-9回答</b>
                    </div>","","","","","","","","","","","","","","","","","","",""
"1135","null","sub_response","html-keyboard-response","128","793158","0.0-1.0-7.0-3.0-2.20","20:26:01","2","","","","","","","<div style='text-align: center;'>
                            <span style=""color: red; font-size: 40px""><b>错误！+0 pts</b></span></div>
                            ","","learn","1","1","1","learn","6","6","[0, 1, 2, 3, 4, 5, 6, 7, 8, 9]","20","6","setsize","3S10A","food","1","0","9","0",""
"null","null","fixation","html-keyboard-response","129","793660","0.0-1.0-7.0-3.0-0.21","20:26:01","2","","","","","","","fixation","","","","","","","","","","","","","","","","","","",""
"1465","0","pic_response","html-keyboard-response","130","795126","0.0-1.0-7.0-3.0-1.21","20:26:01","2","","","","","","","<div>
            <img class='stim' src=""pictures/food/2.jpg""></div><div class=""button_prompt"">
                    <b>请用数字键0-9回答</b>
                    </div>","","","","","","","","","","","","","","","","","","",""
"1465","null","sub_response","html-keyboard-response","131","796128","0.0-1.0-7.0-3.0-2.21","20:26:01","2","","","","","","","<div style='text-align: center;'>
                            <span style=""color: green; font-size: 40px""><b>正确！+1 pts</b></span></div>
                            ","","learn","2","2","2","learn","9","9","[0, 1, 2, 3, 4, 5, 6, 7, 8, 9]","21","7","setsize","3S10A","food","1","1","9","1",""
"null","null","fixation","html-keyboard-response","132","796628","0.0-1.0-7.0-3.0-0.22","20:26:01","2","","","","","","","fixation","","","","","","","","","","","","","","","","","","",""
"755","3","pic_response","html-keyboard-response","133","797384","0.0-1.0-7.0-3.0-1.22","20:26:01","2","","","","","","","<div>
            <img class='stim' src=""pictures/food/0.jpg""></div><div class=""button_prompt"">
                    <b>请用数字键0-9回答</b>
                    </div>","","","","","","","","","","","","","","","","","","",""
"755","null","sub_response","html-keyboard-response","134","798385","0.0-1.0-7.0-3.0-2.22","20:26:01","2","","","","","","","<div style='text-align: center;'>
                            <span style=""color: green; font-size: 40px""><b>正确！+1 pts</b></span></div>
                            ","","learn","0","0","0","learn","2","2","[0, 1, 2, 3, 4, 5, 6, 7, 8, 9]","22","7","setsize","3S10A","food","1","2","2","1",""
"null","null","fixation","html-keyboard-response","135","798886","0.0-1.0-7.0-3.0-0.23","20:26:01","2","","","","","","","fixation","","","","","","","","","","","","","","","","","","",""
"838","2","pic_response","html-keyboard-response","136","799725","0.0-1.0-7.0-3.0-1.23","20:26:01","2","","","","","","","<div>
            <img class='stim' src=""pictures/food/1.jpg""></div><div class=""button_prompt"">
                    <b>请用数字键0-9回答</b>
                    </div>","","","","","","","","","","","","","","","","","","",""
"838","null","sub_response","html-keyboard-response","137","800726","0.0-1.0-7.0-3.0-2.23","20:26:01","2","","","","","","","<div style='text-align: center;'>
                            <span style=""color: red; font-size: 40px""><b>错误！+0 pts</b></span></div>
                            ","","learn","1","1","1","learn","6","6","[0, 1, 2, 3, 4, 5, 6, 7, 8, 9]","23","7","setsize","3S10A","food","1","0","1","0",""
"null","null","fixation","html-keyboard-response","138","801229","0.0-1.0-7.0-3.0-0.24","20:26:01","2","","","","","","","fixation","","","","","","","","","","","","","","","","","","",""
"1139","0","pic_response","html-keyboard-response","139","802368","0.0-1.0-7.0-3.0-1.24","20:26:01","2","","","","","","","<div>
            <img class='stim' src=""pictures/food/2.jpg""></div><div class=""button_prompt"">
                    <b>请用数字键0-9回答</b>
                    </div>","","","","","","","","","","","","","","","","","","",""
"1139","null","sub_response","html-keyboard-response","140","803369","0.0-1.0-7.0-3.0-2.24","20:26:01","2","","","","","","","<div style='text-align: center;'>
                            <span style=""color: green; font-size: 40px""><b>正确！+1 pts</b></span></div>
                            ","","learn","2","2","2","learn","9","9","[0, 1, 2, 3, 4, 5, 6, 7, 8, 9]","24","8","setsize","3S10A","food","1","1","9","1",""
"null","null","fixation","html-keyboard-response","141","803871","0.0-1.0-7.0-3.0-0.25","20:26:01","2","","","","","","","fixation","","","","","","","","","","","","","","","","","","",""
"1261","0","pic_response","html-keyboard-response","142","805133","0.0-1.0-7.0-3.0-1.25","20:26:01","2","","","","","","","<div>
            <img class='stim' src=""pictures/food/1.jpg""></div><div class=""button_prompt"">
                    <b>请用数字键0-9回答</b>
                    </div>","","","","","","","","","","","","","","","","","","",""
"1261","null","sub_response","html-keyboard-response","143","806135","0.0-1.0-7.0-3.0-2.25","20:26:01","2","","","","","","","<div style='text-align: center;'>
                            <span style=""color: red; font-size: 40px""><b>错误！+0 pts</b></span></div>
                            ","","learn","1","1","1","learn","6","6","[0, 1, 2, 3, 4, 5, 6, 7, 8, 9]","25","8","setsize","3S10A","food","1","0","9","0",""
"null","null","fixation","html-keyboard-response","144","806637","0.0-1.0-7.0-3.0-0.26","20:26:01","2","","","","","","","fixation","","","","","","","","","","","","","","","","","","",""
"603","3","pic_response","html-keyboard-response","145","807241","0.0-1.0-7.0-3.0-1.26","20:26:01","2","","","","","","","<div>
            <img class='stim' src=""pictures/food/0.jpg""></div><div class=""button_prompt"">
                    <b>请用数字键0-9回答</b>
                    </div>","","","","","","","","","","","","","","","","","","",""
"603","null","sub_response","html-keyboard-response","146","808243","0.0-1.0-7.0-3.0-2.26","20:26:01","2","","","","","","","<div style='text-align: center;'>
                            <span style=""color: green; font-size: 40px""><b>正确！+1 pts</b></span></div>
                            ","","learn","0","0","0","learn","2","2","[0, 1, 2, 3, 4, 5, 6, 7, 8, 9]","26","8","setsize","3S10A","food","1","1","2","1",""
"null","null","fixation","html-keyboard-response","147","808744","0.0-1.0-7.0-3.0-0.27","20:26:01","2","","","","","","","fixation","","","","","","","","","","","","","","","","","","",""
"1302","0","pic_response","html-keyboard-response","148","810048","0.0-1.0-7.0-3.0-1.27","20:26:01","2","","","","","","","<div>
            <img class='stim' src=""pictures/food/2.jpg""></div><div class=""button_prompt"">
                    <b>请用数字键0-9回答</b>
                    </div>","","","","","","","","","","","","","","","","","","",""
"1302","null","sub_response","html-keyboard-response","149","811049","0.0-1.0-7.0-3.0-2.27","20:26:01","2","","","","","","","<div style='text-align: center;'>
                            <span style=""color: green; font-size: 40px""><b>正确！+1 pts</b></span></div>
                            ","","learn","2","2","2","learn","9","9","[0, 1, 2, 3, 4, 5, 6, 7, 8, 9]","27","9","setsize","3S10A","food","1","2","9","1",""
"null","null","fixation","html-keyboard-response","150","811551","0.0-1.0-7.0-3.0-0.28","20:26:01","2","","","","","","","fixation","","","","","","","","","","","","","","","","","","",""
"1409","0","pic_response","html-keyboard-response","151","812961","0.0-1.0-7.0-3.0-1.28","20:26:01","2","","","","","","","<div>
            <img class='stim' src=""pictures/food/1.jpg""></div><div class=""button_prompt"">
                    <b>请用数字键0-9回答</b>
                    </div>","","","","","","","","","","","","","","","","","","",""
"1409","null","sub_response","html-keyboard-response","152","813963","0.0-1.0-7.0-3.0-2.28","20:26:01","2","","","","","","","<div style='text-align: center;'>
                            <span style=""color: red; font-size: 40px""><b>错误！+0 pts</b></span></div>
                            ","","learn","1","1","1","learn","6","6","[0, 1, 2, 3, 4, 5, 6, 7, 8, 9]","28","9","setsize","3S10A","food","1","0","9","0",""
"null","null","fixation","html-keyboard-response","153","814465","0.0-1.0-7.0-3.0-0.29","20:26:01","2","","","","","","","fixation","","","","","","","","","","","","","","","","","","",""
"1001","3","pic_response","html-keyboard-response","154","815467","0.0-1.0-7.0-3.0-1.29","20:26:01","2","","","","","","","<div>
            <img class='stim' src=""pictures/food/0.jpg""></div><div class=""button_prompt"">
                    <b>请用数字键0-9回答</b>
                    </div>","","","","","","","","","","","","","","","","","","",""
"1001","null","sub_response","html-keyboard-response","155","816468","0.0-1.0-7.0-3.0-2.29","20:26:01","2","","","","","","","<div style='text-align: center;'>
                            <span style=""color: green; font-size: 40px""><b>正确！+1 pts</b></span></div>
                            ","","learn","0","0","0","learn","2","2","[0, 1, 2, 3, 4, 5, 6, 7, 8, 9]","29","9","setsize","3S10A","food","1","1","2","1",""
"null","null","fixation","html-keyboard-response","156","816971","0.0-1.0-7.0-3.0-0.30","20:26:01","2","","","","","","","fixation","","","","","","","","","","","","","","","","","","",""
"792","3","pic_response","html-keyboard-response","157","817763","0.0-1.0-7.0-3.0-1.30","20:26:01","2","","","","","","","<div>
            <img class='stim' src=""pictures/food/0.jpg""></div><div class=""button_prompt"">
                    <b>请用数字键0-9回答</b>
                    </div>","","","","","","","","","","","","","","","","","","",""
"792","null","sub_response","html-keyboard-response","158","818765","0.0-1.0-7.0-3.0-2.30","20:26:01","2","","","","","","","<div style='text-align: center;'>
                            <span style=""color: green; font-size: 40px""><b>正确！+1 pts</b></span></div>
                            ","","learn","0","0","0","learn","2","2","[0, 1, 2, 3, 4, 5, 6, 7, 8, 9]","30","10","setsize","3S10A","food","1","2","2","1",""
"null","null","fixation","html-keyboard-response","159","819266","0.0-1.0-7.0-3.0-0.31","20:26:01","2","","","","","","","fixation","","","","","","","","","","","","","","","","","","",""
"824","1","pic_response","html-keyboard-response","160","820091","0.0-1.0-7.0-3.0-1.31","20:26:01","2","","","","","","","<div>
            <img class='stim' src=""pictures/food/1.jpg""></div><div class=""button_prompt"">
                    <b>请用数字键0-9回答</b>
                    </div>","","","","","","","","","","","","","","","","","","",""
"824","null","sub_response","html-keyboard-response","161","821093","0.0-1.0-7.0-3.0-2.31","20:26:01","2","","","","","","","<div style='text-align: center;'>
                            <span style=""color: red; font-size: 40px""><b>错误！+0 pts</b></span></div>
                            ","","learn","1","1","1","learn","6","6","[0, 1, 2, 3, 4, 5, 6, 7, 8, 9]","31","10","setsize","3S10A","food","1","0","0","0",""
"null","null","fixation","html-keyboard-response","162","821595","0.0-1.0-7.0-3.0-0.32","20:26:01","2","","","","","","","fixation","","","","","","","","","","","","","","","","","","",""
"1431","0","pic_response","html-keyboard-response","163","823027","0.0-1.0-7.0-3.0-1.32","20:26:01","2","","","","","","","<div>
            <img class='stim' src=""pictures/food/2.jpg""></div><div class=""button_prompt"">
                    <b>请用数字键0-9回答</b>
                    </div>","","","","","","","","","","","","","","","","","","",""
"1431","null","sub_response","html-keyboard-response","164","824029","0.0-1.0-7.0-3.0-2.32","20:26:01","2","","","","","","","<div style='text-align: center;'>
                            <span style=""color: green; font-size: 40px""><b>正确！+1 pts</b></span></div>
                            ","","learn","2","2","2","learn","9","9","[0, 1, 2, 3, 4, 5, 6, 7, 8, 9]","32","10","setsize","3S10A","food","1","1","9","1",""
"null","null","fixation","html-keyboard-response","165","824531","0.0-1.0-7.0-3.0-0.33","20:26:01","2","","","","","","","fixation","","","","","","","","","","","","","","","","","","",""
"1677","3","pic_response","html-keyboard-response","166","826208","0.0-1.0-7.0-3.0-1.33","20:26:01","2","","","","","","","<div>
            <img class='stim' src=""pictures/food/2.jpg""></div><div class=""button_prompt"">
                    <b>请用数字键0-9回答</b>
                    </div>","","","","","","","","","","","","","","","","","","",""
"1677","null","sub_response","html-keyboard-response","167","827210","0.0-1.0-7.0-3.0-2.33","20:26:01","2","","","","","","","<div style='text-align: center;'>
                            <span style=""color: red; font-size: 40px""><b>错误！+0 pts</b></span></div>
                            ","","learn","2","2","2","learn","9","9","[0, 1, 2, 3, 4, 5, 6, 7, 8, 9]","33","11","setsize","3S10A","food","1","0","2","0",""
"null","null","fixation","html-keyboard-response","168","827711","0.0-1.0-7.0-3.0-0.34","20:26:01","2","","","","","","","fixation","","","","","","","","","","","","","","","","","","",""
"677","3","pic_response","html-keyboard-response","169","828389","0.0-1.0-7.0-3.0-1.34","20:26:01","2","","","","","","","<div>
            <img class='stim' src=""pictures/food/0.jpg""></div><div class=""button_prompt"">
                    <b>请用数字键0-9回答</b>
                    </div>","","","","","","","","","","","","","","","","","","",""
"677","null","sub_response","html-keyboard-response","170","829392","0.0-1.0-7.0-3.0-2.34","20:26:01","2","","","","","","","<div style='text-align: center;'>
                            <span style=""color: green; font-size: 40px""><b>正确！+1 pts</b></span></div>
                            ","","learn","0","0","0","learn","2","2","[0, 1, 2, 3, 4, 5, 6, 7, 8, 9]","34","11","setsize","3S10A","food","1","1","2","1",""
"null","null","fixation","html-keyboard-response","171","829894","0.0-1.0-7.0-3.0-0.35","20:26:01","2","","","","","","","fixation","","","","","","","","","","","","","","","","","","",""
"932","4","pic_response","html-keyboard-response","172","830826","0.0-1.0-7.0-3.0-1.35","20:26:01","2","","","","","","","<div>
            <img class='stim' src=""pictures/food/1.jpg""></div><div class=""button_prompt"">
                    <b>请用数字键0-9回答</b>
                    </div>","","","","","","","","","","","","","","","","","","",""
"932","null","sub_response","html-keyboard-response","173","831828","0.0-1.0-7.0-3.0-2.35","20:26:01","2","","","","","","","<div style='text-align: center;'>
                            <span style=""color: red; font-size: 40px""><b>错误！+0 pts</b></span></div>
                            ","","learn","1","1","1","learn","6","6","[0, 1, 2, 3, 4, 5, 6, 7, 8, 9]","35","11","setsize","3S10A","food","1","0","3","0",""
"null","null","fixation","html-keyboard-response","174","832330","0.0-1.0-7.0-3.0-0.36","20:26:01","2","","","","","","","fixation","","","","","","","","","","","","","","","","","","",""
"907","3","pic_response","html-keyboard-response","175","833238","0.0-1.0-7.0-3.0-1.36","20:26:01","2","","","","","","","<div>
            <img class='stim' src=""pictures/food/0.jpg""></div><div class=""button_prompt"">
                    <b>请用数字键0-9回答</b>
                    </div>","","","","","","","","","","","","","","","","","","",""
"907","null","sub_response","html-keyboard-response","176","834239","0.0-1.0-7.0-3.0-2.36","20:26:01","2","","","","","","","<div style='text-align: center;'>
                            <span style=""color: green; font-size: 40px""><b>正确！+1 pts</b></span></div>
                            ","","learn","0","0","0","learn","2","2","[0, 1, 2, 3, 4, 5, 6, 7, 8, 9]","36","12","setsize","3S10A","food","1","1","2","1",""
"null","null","fixation","html-keyboard-response","177","834741","0.0-1.0-7.0-3.0-0.37","20:26:01","2","","","","","","","fixation","","","","","","","","","","","","","","","","","","",""
"1497","2","pic_response","html-keyboard-response","178","836239","0.0-1.0-7.0-3.0-1.37","20:26:01","2","","","","","","","<div>
            <img class='stim' src=""pictures/food/1.jpg""></div><div class=""button_prompt"">
                    <b>请用数字键0-9回答</b>
                    </div>","","","","","","","","","","","","","","","","","","",""
"1497","null","sub_response","html-keyboard-response","179","837241","0.0-1.0-7.0-3.0-2.37","20:26:01","2","","","","","","","<div style='text-align: center;'>
                            <span style=""color: red; font-size: 40px""><b>错误！+0 pts</b></span></div>
                            ","","learn","1","1","1","learn","6","6","[0, 1, 2, 3, 4, 5, 6, 7, 8, 9]","37","12","setsize","3S10A","food","1","0","1","0",""
"null","null","fixation","html-keyboard-response","180","837743","0.0-1.0-7.0-3.0-0.38","20:26:01","2","","","","","","","fixation","","","","","","","","","","","","","","","","","","",""
"1691","0","pic_response","html-keyboard-response","181","839435","0.0-1.0-7.0-3.0-1.38","20:26:01","2","","","","","","","<div>
            <img class='stim' src=""pictures/food/2.jpg""></div><div class=""button_prompt"">
                    <b>请用数字键0-9回答</b>
                    </div>","","","","","","","","","","","","","","","","","","",""
"1691","null","sub_response","html-keyboard-response","182","840437","0.0-1.0-7.0-3.0-2.38","20:26:01","2","","","","","","","<div style='text-align: center;'>
                            <span style=""color: green; font-size: 40px""><b>正确！+1 pts</b></span></div>
                            ","","learn","2","2","2","learn","9","9","[0, 1, 2, 3, 4, 5, 6, 7, 8, 9]","38","12","setsize","3S10A","food","1","1","9","1",""
"null","null","fixation","html-keyboard-response","183","840939","0.0-1.0-7.0-3.0-0.39","20:26:01","2","","","","","","","fixation","","","","","","","","","","","","","","","","","","",""
"700","3","pic_response","html-keyboard-response","184","841640","0.0-1.0-7.0-3.0-1.39","20:26:01","2","","","","","","","<div>
            <img class='stim' src=""pictures/food/0.jpg""></div><div class=""button_prompt"">
                    <b>请用数字键0-9回答</b>
                    </div>","","","","","","","","","","","","","","","","","","",""
"700","null","sub_response","html-keyboard-response","185","842641","0.0-1.0-7.0-3.0-2.39","20:26:01","2","","","","","","","<div style='text-align: center;'>
                            <span style=""color: green; font-size: 40px""><b>正确！+1 pts</b></span></div>
                            ","","learn","0","0","0","learn","2","2","[0, 1, 2, 3, 4, 5, 6, 7, 8, 9]","39","13","setsize","3S10A","food","1","2","2","1",""
"null","null","fixation","html-keyboard-response","186","843143","0.0-1.0-7.0-3.0-0.40","20:26:01","2","","","","","","","fixation","","","","","","","","","","","","","","","","","","",""
"466","3","pic_response","html-keyboard-response","187","843610","0.0-1.0-7.0-3.0-1.40","20:26:01","2","","","","","","","<div>
            <img class='stim' src=""pictures/food/1.jpg""></div><div class=""button_prompt"">
                    <b>请用数字键0-9回答</b>
                    </div>","","","","","","","","","","","","","","","","","","",""
"466","null","sub_response","html-keyboard-response","188","844611","0.0-1.0-7.0-3.0-2.40","20:26:01","2","","","","","","","<div style='text-align: center;'>
                            <span style=""color: red; font-size: 40px""><b>错误！+0 pts</b></span></div>
                            ","","learn","1","1","1","learn","6","6","[0, 1, 2, 3, 4, 5, 6, 7, 8, 9]","40","13","setsize","3S10A","food","1","0","2","0",""
"null","null","fixation","html-keyboard-response","189","845112","0.0-1.0-7.0-3.0-0.41","20:26:01","2","","","","","","","fixation","","","","","","","","","","","","","","","","","","",""
"979","0","pic_response","html-keyboard-response","190","846091","0.0-1.0-7.0-3.0-1.41","20:26:01","2","","","","","","","<div>
            <img class='stim' src=""pictures/food/2.jpg""></div><div class=""button_prompt"">
                    <b>请用数字键0-9回答</b>
                    </div>","","","","","","","","","","","","","","","","","","",""
"979","null","sub_response","html-keyboard-response","191","847093","0.0-1.0-7.0-3.0-2.41","20:26:01","2","","","","","","","<div style='text-align: center;'>
                            <span style=""color: green; font-size: 40px""><b>正确！+1 pts</b></span></div>
                            ","","learn","2","2","2","learn","9","9","[0, 1, 2, 3, 4, 5, 6, 7, 8, 9]","41","13","setsize","3S10A","food","1","1","9","1",""
"null","null","fixation","html-keyboard-response","192","847594","0.0-1.0-7.0-3.0-0.42","20:26:01","2","","","","","","","fixation","","","","","","","","","","","","","","","","","","",""
"764","3","pic_response","html-keyboard-response","193","848359","0.0-1.0-7.0-3.0-1.42","20:26:01","2","","","","","","","<div>
            <img class='stim' src=""pictures/food/0.jpg""></div><div class=""button_prompt"">
                    <b>请用数字键0-9回答</b>
                    </div>","","","","","","","","","","","","","","","","","","",""
"764","null","sub_response","html-keyboard-response","194","849362","0.0-1.0-7.0-3.0-2.42","20:26:01","2","","","","","","","<div style='text-align: center;'>
                            <span style=""color: green; font-size: 40px""><b>正确！+1 pts</b></span></div>
                            ","","learn","0","0","0","learn","2","2","[0, 1, 2, 3, 4, 5, 6, 7, 8, 9]","42","14","setsize","3S10A","food","1","2","2","1",""
"null","null","fixation","html-keyboard-response","195","849863","0.0-1.0-7.0-3.0-0.43","20:26:01","2","","","","","","","fixation","","","","","","","","","","","","","","","","","","",""
"976","5","pic_response","html-keyboard-response","196","850841","0.0-1.0-7.0-3.0-1.43","20:26:01","2","","","","","","","<div>
            <img class='stim' src=""pictures/food/1.jpg""></div><div class=""button_prompt"">
                    <b>请用数字键0-9回答</b>
                    </div>","","","","","","","","","","","","","","","","","","",""
"976","null","sub_response","html-keyboard-response","197","851842","0.0-1.0-7.0-3.0-2.43","20:26:01","2","","","","","","","<div style='text-align: center;'>
                            <span style=""color: red; font-size: 40px""><b>错误！+0 pts</b></span></div>
                            ","","learn","1","1","1","learn","6","6","[0, 1, 2, 3, 4, 5, 6, 7, 8, 9]","43","14","setsize","3S10A","food","1","0","4","0",""
"null","null","fixation","html-keyboard-response","198","852344","0.0-1.0-7.0-3.0-0.44","20:26:01","2","","","","","","","fixation","","","","","","","","","","","","","","","","","","",""
"904","0","pic_response","html-keyboard-response","199","853249","0.0-1.0-7.0-3.0-1.44","20:26:01","2","","","","","","","<div>
            <img class='stim' src=""pictures/food/2.jpg""></div><div class=""button_prompt"">
                    <b>请用数字键0-9回答</b>
                    </div>","","","","","","","","","","","","","","","","","","",""
"904","null","sub_response","html-keyboard-response","200","854251","0.0-1.0-7.0-3.0-2.44","20:26:01","2","","","","","","","<div style='text-align: center;'>
                            <span style=""color: green; font-size: 40px""><b>正确！+1 pts</b></span></div>
                            ","","learn","2","2","2","learn","9","9","[0, 1, 2, 3, 4, 5, 6, 7, 8, 9]","44","14","setsize","3S10A","food","1","1","9","1",""
"null","null","fixation","html-keyboard-response","201","854752","0.0-1.0-7.0-3.0-0.45","20:26:01","2","","","","","","","fixation","","","","","","","","","","","","","","","","","","",""
"658","3","pic_response","html-keyboard-response","202","855411","0.0-1.0-7.0-3.0-1.45","20:26:01","2","","","","","","","<div>
            <img class='stim' src=""pictures/food/0.jpg""></div><div class=""button_prompt"">
                    <b>请用数字键0-9回答</b>
                    </div>","","","","","","","","","","","","","","","","","","",""
"658","null","sub_response","html-keyboard-response","203","856413","0.0-1.0-7.0-3.0-2.45","20:26:01","2","","","","","","","<div style='text-align: center;'>
                            <span style=""color: green; font-size: 40px""><b>正确！+1 pts</b></span></div>
                            ","","learn","0","0","0","learn","2","2","[0, 1, 2, 3, 4, 5, 6, 7, 8, 9]","45","15","setsize","3S10A","food","1","2","2","1",""
"null","null","fixation","html-keyboard-response","204","856915","0.0-1.0-7.0-3.0-0.46","20:26:01","2","","","","","","","fixation","","","","","","","","","","","","","","","","","","",""
"1216","0","pic_response","html-keyboard-response","205","858132","0.0-1.0-7.0-3.0-1.46","20:26:01","2","","","","","","","<div>
            <img class='stim' src=""pictures/food/2.jpg""></div><div class=""button_prompt"">
                    <b>请用数字键0-9回答</b>
                    </div>","","","","","","","","","","","","","","","","","","",""
"1216","null","sub_response","html-keyboard-response","206","859134","0.0-1.0-7.0-3.0-2.46","20:26:01","2","","","","","","","<div style='text-align: center;'>
                            <span style=""color: green; font-size: 40px""><b>正确！+1 pts</b></span></div>
                            ","","learn","2","2","2","learn","9","9","[0, 1, 2, 3, 4, 5, 6, 7, 8, 9]","46","15","setsize","3S10A","food","1","3","9","1",""
"null","null","fixation","html-keyboard-response","207","859636","0.0-1.0-7.0-3.0-0.47","20:26:01","2","","","","","","","fixation","","","","","","","","","","","","","","","","","","",""
"763","6","pic_response","html-keyboard-response","208","860399","0.0-1.0-7.0-3.0-1.47","20:26:01","2","","","","","","","<div>
            <img class='stim' src=""pictures/food/1.jpg""></div><div class=""button_prompt"">
                    <b>请用数字键0-9回答</b>
                    </div>","","","","","","","","","","","","","","","","","","",""
"763","null","sub_response","html-keyboard-response","209","861400","0.0-1.0-7.0-3.0-2.47","20:26:01","2","","","","","","","<div style='text-align: center;'>
                            <span style=""color: red; font-size: 40px""><b>错误！+0 pts</b></span></div>
                            ","","learn","1","1","1","learn","6","6","[0, 1, 2, 3, 4, 5, 6, 7, 8, 9]","47","15","setsize","3S10A","food","1","0","5","0",""
"null","null","fixation","html-keyboard-response","210","861902","0.0-1.0-7.0-3.0-0.48","20:26:01","2","","","","","","","fixation","","","","","","","","","","","","","","","","","","",""
"1034","3","pic_response","html-keyboard-response","211","862938","0.0-1.0-7.0-3.0-1.48","20:26:01","2","","","","","","","<div>
            <img class='stim' src=""pictures/food/0.jpg""></div><div class=""button_prompt"">
                    <b>请用数字键0-9回答</b>
                    </div>","","","","","","","","","","","","","","","","","","",""
"1034","null","sub_response","html-keyboard-response","212","863939","0.0-1.0-7.0-3.0-2.48","20:26:01","2","","","","","","","<div style='text-align: center;'>
                            <span style=""color: green; font-size: 40px""><b>正确！+1 pts</b></span></div>
                            ","","learn","0","0","0","learn","2","2","[0, 1, 2, 3, 4, 5, 6, 7, 8, 9]","48","16","setsize","3S10A","food","1","1","2","1",""
"null","null","fixation","html-keyboard-response","213","864441","0.0-1.0-7.0-3.0-0.49","20:26:01","2","","","","","","","fixation","","","","","","","","","","","","","","","","","","",""
"798","7","pic_response","html-keyboard-response","214","865239","0.0-1.0-7.0-3.0-1.49","20:26:01","2","","","","","","","<div>
            <img class='stim' src=""pictures/food/1.jpg""></div><div class=""button_prompt"">
                    <b>请用数字键0-9回答</b>
                    </div>","","","","","","","","","","","","","","","","","","",""
"798","null","sub_response","html-keyboard-response","215","866240","0.0-1.0-7.0-3.0-2.49","20:26:01","2","","","","","","","<div style='text-align: center;'>
                            <span style=""color: green; font-size: 40px""><b>正确！+1 pts</b></span></div>
                            ","","learn","1","1","1","learn","6","6","[0, 1, 2, 3, 4, 5, 6, 7, 8, 9]","49","16","setsize","3S10A","food","1","2","6","1",""
"null","null","fixation","html-keyboard-response","216","866742","0.0-1.0-7.0-3.0-0.50","20:26:01","2","","","","","","","fixation","","","","","","","","","","","","","","","","","","",""
"1208","0","pic_response","html-keyboard-response","217","867951","0.0-1.0-7.0-3.0-1.50","20:26:01","2","","","","","","","<div>
            <img class='stim' src=""pictures/food/2.jpg""></div><div class=""button_prompt"">
                    <b>请用数字键0-9回答</b>
                    </div>","","","","","","","","","","","","","","","","","","",""
"1208","null","sub_response","html-keyboard-response","218","868952","0.0-1.0-7.0-3.0-2.50","20:26:01","2","","","","","","","<div style='text-align: center;'>
                            <span style=""color: green; font-size: 40px""><b>正确！+1 pts</b></span></div>
                            ","","learn","2","2","2","learn","9","9","[0, 1, 2, 3, 4, 5, 6, 7, 8, 9]","50","16","setsize","3S10A","food","1","3","9","1",""
"null","null","fixation","html-keyboard-response","219","869453","0.0-1.0-7.0-3.0-0.51","20:26:01","2","","","","","","","fixation","","","","","","","","","","","","","","","","","","",""
"1327","7","pic_response","html-keyboard-response","220","870781","0.0-1.0-7.0-3.0-1.51","20:26:01","2","","","","","","","<div>
            <img class='stim' src=""pictures/food/1.jpg""></div><div class=""button_prompt"">
                    <b>请用数字键0-9回答</b>
                    </div>","","","","","","","","","","","","","","","","","","",""
"1327","null","sub_response","html-keyboard-response","221","871782","0.0-1.0-7.0-3.0-2.51","20:26:01","2","","","","","","","<div style='text-align: center;'>
                            <span style=""color: green; font-size: 40px""><b>正确！+1 pts</b></span></div>
                            ","","learn","1","1","1","learn","6","6","[0, 1, 2, 3, 4, 5, 6, 7, 8, 9]","51","17","setsize","3S10A","food","1","4","6","1",""
"null","null","fixation","html-keyboard-response","222","872284","0.0-1.0-7.0-3.0-0.52","20:26:01","2","","","","","","","fixation","","","","","","","","","","","","","","","","","","",""
"560","3","pic_response","html-keyboard-response","223","872845","0.0-1.0-7.0-3.0-1.52","20:26:01","2","","","","","","","<div>
            <img class='stim' src=""pictures/food/0.jpg""></div><div class=""button_prompt"">
                    <b>请用数字键0-9回答</b>
                    </div>","","","","","","","","","","","","","","","","","","",""
"560","null","sub_response","html-keyboard-response","224","873847","0.0-1.0-7.0-3.0-2.52","20:26:01","2","","","","","","","<div style='text-align: center;'>
                            <span style=""color: green; font-size: 40px""><b>正确！+1 pts</b></span></div>
                            ","","learn","0","0","0","learn","2","2","[0, 1, 2, 3, 4, 5, 6, 7, 8, 9]","52","17","setsize","3S10A","food","1","5","2","1",""
"null","null","fixation","html-keyboard-response","225","874349","0.0-1.0-7.0-3.0-0.53","20:26:01","2","","","","","","","fixation","","","","","","","","","","","","","","","","","","",""
"717","0","pic_response","html-keyboard-response","226","875066","0.0-1.0-7.0-3.0-1.53","20:26:01","2","","","","","","","<div>
            <img class='stim' src=""pictures/food/2.jpg""></div><div class=""button_prompt"">
                    <b>请用数字键0-9回答</b>
                    </div>","","","","","","","","","","","","","","","","","","",""
"717","null","sub_response","html-keyboard-response","227","876068","0.0-1.0-7.0-3.0-2.53","20:26:01","2","","","","","","","<div style='text-align: center;'>
                            <span style=""color: green; font-size: 40px""><b>正确！+1 pts</b></span></div>
                            ","","learn","2","2","2","learn","9","9","[0, 1, 2, 3, 4, 5, 6, 7, 8, 9]","53","17","setsize","3S10A","food","1","6","9","1",""
"null","null","fixation","html-keyboard-response","228","876571","0.0-1.0-7.0-3.0-0.54","20:26:01","2","","","","","","","fixation","","","","","","","","","","","","","","","","","","",""
"568","3","pic_response","html-keyboard-response","229","877140","0.0-1.0-7.0-3.0-1.54","20:26:01","2","","","","","","","<div>
            <img class='stim' src=""pictures/food/0.jpg""></div><div class=""button_prompt"">
                    <b>请用数字键0-9回答</b>
                    </div>","","","","","","","","","","","","","","","","","","",""
"568","null","sub_response","html-keyboard-response","230","878142","0.0-1.0-7.0-3.0-2.54","20:26:01","2","","","","","","","<div style='text-align: center;'>
                            <span style=""color: green; font-size: 40px""><b>正确！+1 pts</b></span></div>
                            ","","learn","0","0","0","learn","2","2","[0, 1, 2, 3, 4, 5, 6, 7, 8, 9]","54","18","setsize","3S10A","food","1","7","2","1",""
"null","null","fixation","html-keyboard-response","231","878643","0.0-1.0-7.0-3.0-0.55","20:26:01","2","","","","","","","fixation","","","","","","","","","","","","","","","","","","",""
"425","7","pic_response","html-keyboard-response","232","879070","0.0-1.0-7.0-3.0-1.55","20:26:01","2","","","","","","","<div>
            <img class='stim' src=""pictures/food/1.jpg""></div><div class=""button_prompt"">
                    <b>请用数字键0-9回答</b>
                    </div>","","","","","","","","","","","","","","","","","","",""
"425","null","sub_response","html-keyboard-response","233","880071","0.0-1.0-7.0-3.0-2.55","20:26:01","2","","","","","","","<div style='text-align: center;'>
                            <span style=""color: green; font-size: 40px""><b>正确！+1 pts</b></span></div>
                            ","","learn","1","1","1","learn","6","6","[0, 1, 2, 3, 4, 5, 6, 7, 8, 9]","55","18","setsize","3S10A","food","1","8","6","1",""
"null","null","fixation","html-keyboard-response","234","880572","0.0-1.0-7.0-3.0-0.56","20:26:01","2","","","","","","","fixation","","","","","","","","","","","","","","","","","","",""
"924","0","pic_response","html-keyboard-response","235","881497","0.0-1.0-7.0-3.0-1.56","20:26:01","2","","","","","","","<div>
            <img class='stim' src=""pictures/food/2.jpg""></div><div class=""button_prompt"">
                    <b>请用数字键0-9回答</b>
                    </div>","","","","","","","","","","","","","","","","","","",""
"924","null","sub_response","html-keyboard-response","236","882499","0.0-1.0-7.0-3.0-2.56","20:26:01","2","","","","","","","<div style='text-align: center;'>
                            <span style=""color: green; font-size: 40px""><b>正确！+1 pts</b></span></div>
                            ","","learn","2","2","2","learn","9","9","[0, 1, 2, 3, 4, 5, 6, 7, 8, 9]","56","18","setsize","3S10A","food","1","9","9","1",""
"2802"," ","","html-keyboard-response","237","885303","0.0-1.0-8.0","20:26:01","2","","","","","","","<div style=""font-size: 25px""><p>距下一个实验开始还有</p><div style=""font-size: 50px; color: blue""><p><span id=""clock"">1:00</span></div></p><p>按""空格""跳过休息</p></div>","","","","","","","","","","","","","","","","","","",""
"","","","preload","238","885492","0.0-1.0-9.0-0.0","20:26:01","2","true","false","[]","[]","[]","","","","","","","","","","","","","","","","","","","","",""
"9749"," ","","html-keyboard-response","239","895241","0.0-1.0-9.0-1.0","20:26:01","2","","","","","","","<div style='font-size: 32px; text-align: center;'
                    <p>请学习图片和数字之间的对应关系</p>
                    <p>我们将<span style='color: blue'><b> 告诉 </b></span>您选择的对错。请根据反馈学习。</p>
                    <p>请按""空格""继续实验。</p></div>","","","","","","","","","","","","","","","","","","",""
"9090"," ","inst","html-keyboard-response","240","904331","0.0-1.0-9.0-2.0","20:26:01","2","","","","","","","<img class='instruct_stim' src=""instruction/animals10.PNG""></div>","","","","","","","","","","","","","","","","","","",""
"null","null","fixation","html-keyboard-response","241","904832","0.0-1.0-9.0-3.0-0.0","20:26:01","2","","","","","","","fixation","","","","","","","","","","","","","","","","","","",""
"2410","1","pic_response","html-keyboard-response","242","907243","0.0-1.0-9.0-3.0-1.0","20:26:01","2","","","","","","","<div>
            <img class='stim' src=""pictures/animals/0.jpg""></div><div class=""button_prompt"">
                        <b>请用数字键1-3回答</b>
                        </div>","","","","","","","","","","","","","","","","","","",""
"2410","null","sub_response","html-keyboard-response","243","908246","0.0-1.0-9.0-3.0-2.0","20:26:01","2","","","","","","","<div style='text-align: center;'>
                            <span style=""color: green; font-size: 40px""><b>正确！+1 pts</b></span></div>
                            ","","learn","0","0","0","learn","0","0","[0, 1, 2]","0","0","setsize","10S3A","animals","2","10","0","1",""
"null","null","fixation","html-keyboard-response","244","908747","0.0-1.0-9.0-3.0-0.1","20:26:01","2","","","","","","","fixation","","","","","","","","","","","","","","","","","","",""
"936","3","pic_response","html-keyboard-response","245","909684","0.0-1.0-9.0-3.0-1.1","20:26:01","2","","","","","","","<div>
            <img class='stim' src=""pictures/animals/5.jpg""></div><div class=""button_prompt"">
                        <b>请用数字键1-3回答</b>
                        </div>","","","","","","","","","","","","","","","","","","",""
"936","null","sub_response","html-keyboard-response","246","910686","0.0-1.0-9.0-3.0-2.1","20:26:01","2","","","","","","","<div style='text-align: center;'>
                            <span style=""color: red; font-size: 40px""><b>错误！+0 pts</b></span></div>
                            ","","learn","5","5","5","learn","1","1","[0, 1, 2]","1","0","setsize","10S3A","animals","2","0","2","0",""
"null","null","fixation","html-keyboard-response","247","911188","0.0-1.0-9.0-3.0-0.2","20:26:01","2","","","","","","","fixation","","","","","","","","","","","","","","","","","","",""
"827","2","pic_response","html-keyboard-response","248","912016","0.0-1.0-9.0-3.0-1.2","20:26:01","2","","","","","","","<div>
            <img class='stim' src=""pictures/animals/6.jpg""></div><div class=""button_prompt"">
                        <b>请用数字键1-3回答</b>
                        </div>","","","","","","","","","","","","","","","","","","",""
"827","null","sub_response","html-keyboard-response","249","913017","0.0-1.0-9.0-3.0-2.2","20:26:01","2","","","","","","","<div style='text-align: center;'>
                            <span style=""color: red; font-size: 40px""><b>错误！+0 pts</b></span></div>
                            ","","learn","6","6","6","learn","2","2","[0, 1, 2]","2","0","setsize","10S3A","animals","2","0","1","0",""
"null","null","fixation","html-keyboard-response","250","913519","0.0-1.0-9.0-3.0-0.3","20:26:01","2","","","","","","","fixation","","","","","","","","","","","","","","","","","","",""
"849","3","pic_response","html-keyboard-response","251","914369","0.0-1.0-9.0-3.0-1.3","20:26:01","2","","","","","","","<div>
            <img class='stim' src=""pictures/animals/4.jpg""></div><div class=""button_prompt"">
                        <b>请用数字键1-3回答</b>
                        </div>","","","","","","","","","","","","","","","","","","",""
"849","null","sub_response","html-keyboard-response","252","915370","0.0-1.0-9.0-3.0-2.3","20:26:01","2","","","","","","","<div style='text-align: center;'>
                            <span style=""color: red; font-size: 40px""><b>错误！+0 pts</b></span></div>
                            ","","learn","4","4","4","learn","1","1","[0, 1, 2]","3","0","setsize","10S3A","animals","2","0","2","0",""
"null","null","fixation","html-keyboard-response","253","915873","0.0-1.0-9.0-3.0-0.4","20:26:01","2","","","","","","","fixation","","","","","","","","","","","","","","","","","","",""
"937","2","pic_response","html-keyboard-response","254","916811","0.0-1.0-9.0-3.0-1.4","20:26:01","2","","","","","","","<div>
            <img class='stim' src=""pictures/animals/3.jpg""></div><div class=""button_prompt"">
                        <b>请用数字键1-3回答</b>
                        </div>","","","","","","","","","","","","","","","","","","",""
"937","null","sub_response","html-keyboard-response","255","917814","0.0-1.0-9.0-3.0-2.4","20:26:01","2","","","","","","","<div style='text-align: center;'>
                            <span style=""color: green; font-size: 40px""><b>正确！+1 pts</b></span></div>
                            ","","learn","3","3","3","learn","1","1","[0, 1, 2]","4","0","setsize","10S3A","animals","2","1","1","1",""
"null","null","fixation","html-keyboard-response","256","918316","0.0-1.0-9.0-3.0-0.5","20:26:01","2","","","","","","","fixation","","","","","","","","","","","","","","","","","","",""
"946","1","pic_response","html-keyboard-response","257","919263","0.0-1.0-9.0-3.0-1.5","20:26:01","2","","","","","","","<div>
            <img class='stim' src=""pictures/animals/9.jpg""></div><div class=""button_prompt"">
                        <b>请用数字键1-3回答</b>
                        </div>","","","","","","","","","","","","","","","","","","",""
"946","null","sub_response","html-keyboard-response","258","920265","0.0-1.0-9.0-3.0-2.5","20:26:01","2","","","","","","","<div style='text-align: center;'>
                            <span style=""color: red; font-size: 40px""><b>错误！+0 pts</b></span></div>
                            ","","learn","9","9","9","learn","2","2","[0, 1, 2]","5","0","setsize","10S3A","animals","2","0","0","0",""
"null","null","fixation","html-keyboard-response","259","920766","0.0-1.0-9.0-3.0-0.6","20:26:01","2","","","","","","","fixation","","","","","","","","","","","","","","","","","","",""
"1162","3","pic_response","html-keyboard-response","260","921929","0.0-1.0-9.0-3.0-1.6","20:26:01","2","","","","","","","<div>
            <img class='stim' src=""pictures/animals/2.jpg""></div><div class=""button_prompt"">
                        <b>请用数字键1-3回答</b>
                        </div>","","","","","","","","","","","","","","","","","","",""
"1162","null","sub_response","html-keyboard-response","261","922931","0.0-1.0-9.0-3.0-2.6","20:26:01","2","","","","","","","<div style='text-align: center;'>
                            <span style=""color: red; font-size: 40px""><b>错误！+0 pts</b></span></div>
                            ","","learn","2","2","2","learn","0","0","[0, 1, 2]","6","0","setsize","10S3A","animals","2","0","2","0",""
"null","null","fixation","html-keyboard-response","262","923432","0.0-1.0-9.0-3.0-0.7","20:26:01","2","","","","","","","fixation","","","","","","","","","","","","","","","","","","",""
"714","2","pic_response","html-keyboard-response","263","924147","0.0-1.0-9.0-3.0-1.7","20:26:01","2","","","","","","","<div>
            <img class='stim' src=""pictures/animals/1.jpg""></div><div class=""button_prompt"">
                        <b>请用数字键1-3回答</b>
                        </div>","","","","","","","","","","","","","","","","","","",""
"714","null","sub_response","html-keyboard-response","264","925150","0.0-1.0-9.0-3.0-2.7","20:26:01","2","","","","","","","<div style='text-align: center;'>
                            <span style=""color: red; font-size: 40px""><b>错误！+0 pts</b></span></div>
                            ","","learn","1","1","1","learn","0","0","[0, 1, 2]","7","0","setsize","10S3A","animals","2","0","1","0",""
"null","null","fixation","html-keyboard-response","265","925651","0.0-1.0-9.0-3.0-0.8","20:26:01","2","","","","","","","fixation","","","","","","","","","","","","","","","","","","",""
"982","3","pic_response","html-keyboard-response","266","926634","0.0-1.0-9.0-3.0-1.8","20:26:01","2","","","","","","","<div>
            <img class='stim' src=""pictures/animals/8.jpg""></div><div class=""button_prompt"">
                        <b>请用数字键1-3回答</b>
                        </div>","","","","","","","","","","","","","","","","","","",""
"982","null","sub_response","html-keyboard-response","267","927636","0.0-1.0-9.0-3.0-2.8","20:26:01","2","","","","","","","<div style='text-align: center;'>
                            <span style=""color: green; font-size: 40px""><b>正确！+1 pts</b></span></div>
                            ","","learn","8","8","8","learn","2","2","[0, 1, 2]","8","0","setsize","10S3A","animals","2","1","2","1",""
"null","null","fixation","html-keyboard-response","268","928138","0.0-1.0-9.0-3.0-0.9","20:26:01","2","","","","","","","fixation","","","","","","","","","","","","","","","","","","",""
"1213","1","pic_response","html-keyboard-response","269","929352","0.0-1.0-9.0-3.0-1.9","20:26:01","2","","","","","","","<div>
            <img class='stim' src=""pictures/animals/7.jpg""></div><div class=""button_prompt"">
                        <b>请用数字键1-3回答</b>
                        </div>","","","","","","","","","","","","","","","","","","",""
"1213","null","sub_response","html-keyboard-response","270","930353","0.0-1.0-9.0-3.0-2.9","20:26:01","2","","","","","","","<div style='text-align: center;'>
                            <span style=""color: red; font-size: 40px""><b>错误！+0 pts</b></span></div>
                            ","","learn","7","7","7","learn","2","2","[0, 1, 2]","9","0","setsize","10S3A","animals","2","0","0","0",""
"null","null","fixation","html-keyboard-response","271","930854","0.0-1.0-9.0-3.0-0.10","20:26:01","2","","","","","","","fixation","","","","","","","","","","","","","","","","","","",""
"1112","2","pic_response","html-keyboard-response","272","931967","0.0-1.0-9.0-3.0-1.10","20:26:01","2","","","","","","","<div>
            <img class='stim' src=""pictures/animals/3.jpg""></div><div class=""button_prompt"">
                        <b>请用数字键1-3回答</b>
                        </div>","","","","","","","","","","","","","","","","","","",""
"1112","null","sub_response","html-keyboard-response","273","932968","0.0-1.0-9.0-3.0-2.10","20:26:01","2","","","","","","","<div style='text-align: center;'>
                            <span style=""color: green; font-size: 40px""><b>正确！+1 pts</b></span></div>
                            ","","learn","3","3","3","learn","1","1","[0, 1, 2]","10","1","setsize","10S3A","animals","2","1","1","1",""
"null","null","fixation","html-keyboard-response","274","933470","0.0-1.0-9.0-3.0-0.11","20:26:01","2","","","","","","","fixation","","","","","","","","","","","","","","","","","","",""
"1019","3","pic_response","html-keyboard-response","275","934490","0.0-1.0-9.0-3.0-1.11","20:26:01","2","","","","","","","<div>
            <img class='stim' src=""pictures/animals/9.jpg""></div><div class=""button_prompt"">
                        <b>请用数字键1-3回答</b>
                        </div>","","","","","","","","","","","","","","","","","","",""
"1019","null","sub_response","html-keyboard-response","276","935491","0.0-1.0-9.0-3.0-2.11","20:26:01","2","","","","","","","<div style='text-align: center;'>
                            <span style=""color: green; font-size: 40px""><b>正确！+1 pts</b></span></div>
                            ","","learn","9","9","9","learn","2","2","[0, 1, 2]","11","1","setsize","10S3A","animals","2","2","2","1",""
"null","null","fixation","html-keyboard-response","277","935993","0.0-1.0-9.0-3.0-0.12","20:26:01","2","","","","","","","fixation","","","","","","","","","","","","","","","","","","",""
"634","1","pic_response","html-keyboard-response","278","936628","0.0-1.0-9.0-3.0-1.12","20:26:01","2","","","","","","","<div>
            <img class='stim' src=""pictures/animals/2.jpg""></div><div class=""button_prompt"">
                        <b>请用数字键1-3回答</b>
                        </div>","","","","","","","","","","","","","","","","","","",""
"634","null","sub_response","html-keyboard-response","279","937630","0.0-1.0-9.0-3.0-2.12","20:26:01","2","","","","","","","<div style='text-align: center;'>
                            <span style=""color: green; font-size: 40px""><b>正确！+1 pts</b></span></div>
                            ","","learn","2","2","2","learn","0","0","[0, 1, 2]","12","1","setsize","10S3A","animals","2","3","0","1",""
"null","null","fixation","html-keyboard-response","280","938132","0.0-1.0-9.0-3.0-0.13","20:26:01","2","","","","","","","fixation","","","","","","","","","","","","","","","","","","",""
"829","1","pic_response","html-keyboard-response","281","938961","0.0-1.0-9.0-3.0-1.13","20:26:01","2","","","","","","","<div>
            <img class='stim' src=""pictures/animals/6.jpg""></div><div class=""button_prompt"">
                        <b>请用数字键1-3回答</b>
                        </div>","","","","","","","","","","","","","","","","","","",""
"829","null","sub_response","html-keyboard-response","282","939963","0.0-1.0-9.0-3.0-2.13","20:26:01","2","","","","","","","<div style='text-align: center;'>
                            <span style=""color: red; font-size: 40px""><b>错误！+0 pts</b></span></div>
                            ","","learn","6","6","6","learn","2","2","[0, 1, 2]","13","1","setsize","10S3A","animals","2","0","0","0",""
"null","null","fixation","html-keyboard-response","283","940464","0.0-1.0-9.0-3.0-0.14","20:26:01","2","","","","","","","fixation","","","","","","","","","","","","","","","","","","",""
"1099","3","pic_response","html-keyboard-response","284","941564","0.0-1.0-9.0-3.0-1.14","20:26:01","2","","","","","","","<div>
            <img class='stim' src=""pictures/animals/7.jpg""></div><div class=""button_prompt"">
                        <b>请用数字键1-3回答</b>
                        </div>","","","","","","","","","","","","","","","","","","",""
"1099","null","sub_response","html-keyboard-response","285","942566","0.0-1.0-9.0-3.0-2.14","20:26:01","2","","","","","","","<div style='text-align: center;'>
                            <span style=""color: green; font-size: 40px""><b>正确！+1 pts</b></span></div>
                            ","","learn","7","7","7","learn","2","2","[0, 1, 2]","14","1","setsize","10S3A","animals","2","1","2","1",""
"null","null","fixation","html-keyboard-response","286","943067","0.0-1.0-9.0-3.0-0.15","20:26:01","2","","","","","","","fixation","","","","","","","","","","","","","","","","","","",""
"634","2","pic_response","html-keyboard-response","287","943702","0.0-1.0-9.0-3.0-1.15","20:26:01","2","","","","","","","<div>
            <img class='stim' src=""pictures/animals/4.jpg""></div><div class=""button_prompt"">
                        <b>请用数字键1-3回答</b>
                        </div>","","","","","","","","","","","","","","","","","","",""
"634","null","sub_response","html-keyboard-response","288","944704","0.0-1.0-9.0-3.0-2.15","20:26:01","2","","","","","","","<div style='text-align: center;'>
                            <span style=""color: green; font-size: 40px""><b>正确！+1 pts</b></span></div>
                            ","","learn","4","4","4","learn","1","1","[0, 1, 2]","15","1","setsize","10S3A","animals","2","2","1","1",""
"null","null","fixation","html-keyboard-response","289","945205","0.0-1.0-9.0-3.0-0.16","20:26:01","2","","","","","","","fixation","","","","","","","","","","","","","","","","","","",""
"918","1","pic_response","html-keyboard-response","290","946124","0.0-1.0-9.0-3.0-1.16","20:26:01","2","","","","","","","<div>
            <img class='stim' src=""pictures/animals/0.jpg""></div><div class=""button_prompt"">
                        <b>请用数字键1-3回答</b>
                        </div>","","","","","","","","","","","","","","","","","","",""
"918","null","sub_response","html-keyboard-response","291","947126","0.0-1.0-9.0-3.0-2.16","20:26:01","2","","","","","","","<div style='text-align: center;'>
                            <span style=""color: green; font-size: 40px""><b>正确！+1 pts</b></span></div>
                            ","","learn","0","0","0","learn","0","0","[0, 1, 2]","16","1","setsize","10S3A","animals","2","3","0","1",""
"null","null","fixation","html-keyboard-response","292","947627","0.0-1.0-9.0-3.0-0.17","20:26:01","2","","","","","","","fixation","","","","","","","","","","","","","","","","","","",""
"824","3","pic_response","html-keyboard-response","293","948452","0.0-1.0-9.0-3.0-1.17","20:26:01","2","","","","","","","<div>
            <img class='stim' src=""pictures/animals/1.jpg""></div><div class=""button_prompt"">
                        <b>请用数字键1-3回答</b>
                        </div>","","","","","","","","","","","","","","","","","","",""
"824","null","sub_response","html-keyboard-response","294","949454","0.0-1.0-9.0-3.0-2.17","20:26:01","2","","","","","","","<div style='text-align: center;'>
                            <span style=""color: red; font-size: 40px""><b>错误！+0 pts</b></span></div>
                            ","","learn","1","1","1","learn","0","0","[0, 1, 2]","17","1","setsize","10S3A","animals","2","0","2","0",""
"null","null","fixation","html-keyboard-response","295","949955","0.0-1.0-9.0-3.0-0.18","20:26:01","2","","","","","","","fixation","","","","","","","","","","","","","","","","","","",""
"768","2","pic_response","html-keyboard-response","296","950725","0.0-1.0-9.0-3.0-1.18","20:26:01","2","","","","","","","<div>
            <img class='stim' src=""pictures/animals/5.jpg""></div><div class=""button_prompt"">
                        <b>请用数字键1-3回答</b>
                        </div>","","","","","","","","","","","","","","","","","","",""
"768","null","sub_response","html-keyboard-response","297","951727","0.0-1.0-9.0-3.0-2.18","20:26:01","2","","","","","","","<div style='text-align: center;'>
                            <span style=""color: green; font-size: 40px""><b>正确！+1 pts</b></span></div>
                            ","","learn","5","5","5","learn","1","1","[0, 1, 2]","18","1","setsize","10S3A","animals","2","1","1","1",""
"null","null","fixation","html-keyboard-response","298","952228","0.0-1.0-9.0-3.0-0.19","20:26:01","2","","","","","","","fixation","","","","","","","","","","","","","","","","","","",""
"868","3","pic_response","html-keyboard-response","299","953097","0.0-1.0-9.0-3.0-1.19","20:26:01","2","","","","","","","<div>
            <img class='stim' src=""pictures/animals/8.jpg""></div><div class=""button_prompt"">
                        <b>请用数字键1-3回答</b>
                        </div>","","","","","","","","","","","","","","","","","","",""
"868","null","sub_response","html-keyboard-response","300","954100","0.0-1.0-9.0-3.0-2.19","20:26:01","2","","","","","","","<div style='text-align: center;'>
                            <span style=""color: green; font-size: 40px""><b>正确！+1 pts</b></span></div>
                            ","","learn","8","8","8","learn","2","2","[0, 1, 2]","19","1","setsize","10S3A","animals","2","2","2","1",""
"null","null","fixation","html-keyboard-response","301","954601","0.0-1.0-9.0-3.0-0.20","20:26:01","2","","","","","","","fixation","","","","","","","","","","","","","","","","","","",""
"787","1","pic_response","html-keyboard-response","302","955390","0.0-1.0-9.0-3.0-1.20","20:26:01","2","","","","","","","<div>
            <img class='stim' src=""pictures/animals/0.jpg""></div><div class=""button_prompt"">
                        <b>请用数字键1-3回答</b>
                        </div>","","","","","","","","","","","","","","","","","","",""
"787","null","sub_response","html-keyboard-response","303","956392","0.0-1.0-9.0-3.0-2.20","20:26:01","2","","","","","","","<div style='text-align: center;'>
                            <span style=""color: green; font-size: 40px""><b>正确！+1 pts</b></span></div>
                            ","","learn","0","0","0","learn","0","0","[0, 1, 2]","20","2","setsize","10S3A","animals","2","3","0","1",""
"null","null","fixation","html-keyboard-response","304","956894","0.0-1.0-9.0-3.0-0.21","20:26:01","2","","","","","","","fixation","","","","","","","","","","","","","","","","","","",""
"1102","2","pic_response","html-keyboard-response","305","957997","0.0-1.0-9.0-3.0-1.21","20:26:01","2","","","","","","","<div>
            <img class='stim' src=""pictures/animals/1.jpg""></div><div class=""button_prompt"">
                        <b>请用数字键1-3回答</b>
                        </div>","","","","","","","","","","","","","","","","","","",""
"1102","null","sub_response","html-keyboard-response","306","958999","0.0-1.0-9.0-3.0-2.21","20:26:01","2","","","","","","","<div style='text-align: center;'>
                            <span style=""color: red; font-size: 40px""><b>错误！+0 pts</b></span></div>
                            ","","learn","1","1","1","learn","0","0","[0, 1, 2]","21","2","setsize","10S3A","animals","2","0","1","0",""
"null","null","fixation","html-keyboard-response","307","959501","0.0-1.0-9.0-3.0-0.22","20:26:01","2","","","","","","","fixation","","","","","","","","","","","","","","","","","","",""
"702","3","pic_response","html-keyboard-response","308","960204","0.0-1.0-9.0-3.0-1.22","20:26:01","2","","","","","","","<div>
            <img class='stim' src=""pictures/animals/8.jpg""></div><div class=""button_prompt"">
                        <b>请用数字键1-3回答</b>
                        </div>","","","","","","","","","","","","","","","","","","",""
"702","null","sub_response","html-keyboard-response","309","961207","0.0-1.0-9.0-3.0-2.22","20:26:01","2","","","","","","","<div style='text-align: center;'>
                            <span style=""color: green; font-size: 40px""><b>正确！+1 pts</b></span></div>
                            ","","learn","8","8","8","learn","2","2","[0, 1, 2]","22","2","setsize","10S3A","animals","2","1","2","1",""
"null","null","fixation","html-keyboard-response","310","961708","0.0-1.0-9.0-3.0-0.23","20:26:01","2","","","","","","","fixation","","","","","","","","","","","","","","","","","","",""
"633","1","pic_response","html-keyboard-response","311","962342","0.0-1.0-9.0-3.0-1.23","20:26:01","2","","","","","","","<div>
            <img class='stim' src=""pictures/animals/9.jpg""></div><div class=""button_prompt"">
                        <b>请用数字键1-3回答</b>
                        </div>","","","","","","","","","","","","","","","","","","",""
"633","null","sub_response","html-keyboard-response","312","963344","0.0-1.0-9.0-3.0-2.23","20:26:01","2","","","","","","","<div style='text-align: center;'>
                            <span style=""color: red; font-size: 40px""><b>错误！+0 pts</b></span></div>
                            ","","learn","9","9","9","learn","2","2","[0, 1, 2]","23","2","setsize","10S3A","animals","2","0","0","0",""
"null","null","fixation","html-keyboard-response","313","963846","0.0-1.0-9.0-3.0-0.24","20:26:01","2","","","","","","","fixation","","","","","","","","","","","","","","","","","","",""
"669","2","pic_response","html-keyboard-response","314","964516","0.0-1.0-9.0-3.0-1.24","20:26:01","2","","","","","","","<div>
            <img class='stim' src=""pictures/animals/3.jpg""></div><div class=""button_prompt"">
                        <b>请用数字键1-3回答</b>
                        </div>","","","","","","","","","","","","","","","","","","",""
"669","null","sub_response","html-keyboard-response","315","965518","0.0-1.0-9.0-3.0-2.24","20:26:01","2","","","","","","","<div style='text-align: center;'>
                            <span style=""color: green; font-size: 40px""><b>正确！+1 pts</b></span></div>
                            ","","learn","3","3","3","learn","1","1","[0, 1, 2]","24","2","setsize","10S3A","animals","2","1","1","1",""
"null","null","fixation","html-keyboard-response","316","966020","0.0-1.0-9.0-3.0-0.25","20:26:01","2","","","","","","","fixation","","","","","","","","","","","","","","","","","","",""
"724","1","pic_response","html-keyboard-response","317","966744","0.0-1.0-9.0-3.0-1.25","20:26:01","2","","","","","","","<div>
            <img class='stim' src=""pictures/animals/2.jpg""></div><div class=""button_prompt"">
                        <b>请用数字键1-3回答</b>
                        </div>","","","","","","","","","","","","","","","","","","",""
"724","null","sub_response","html-keyboard-response","318","967746","0.0-1.0-9.0-3.0-2.25","20:26:01","2","","","","","","","<div style='text-align: center;'>
                            <span style=""color: green; font-size: 40px""><b>正确！+1 pts</b></span></div>
                            ","","learn","2","2","2","learn","0","0","[0, 1, 2]","25","2","setsize","10S3A","animals","2","2","0","1",""
"null","null","fixation","html-keyboard-response","319","968248","0.0-1.0-9.0-3.0-0.26","20:26:01","2","","","","","","","fixation","","","","","","","","","","","","","","","","","","",""
