"rt","response","screen_id","trial_type","trial_index","time_elapsed","internal_node_id","start_time","n_Prac","success","timeout","failed_images","failed_audio","failed_video","view_history","stimulus","question_order","stage","s","word","word_id","phase","a_cor","a_real","a_ava","trial","tps","task_type","block_typ","pic_typ","block_id","cum_r","a","r","plugin_name"
"175788","{""sub_id"":""010"",""task_type"":""task1"",""name"":""刘文"",""gender"":""F""}","basic_info","survey-html-form","0","175791","0.0-0.0","18:00:22","3","","","","","","","","","","","","","","","","","","","","","","","","","",""
"","","","preload","1","176231","0.0-1.0-0.0","18:00:22","3","true","false","[]","[]","[]","","","","","","","","","","","","","","","","","","","","",""
"","","","preload","2","176295","0.0-1.0-1.0","18:00:22","3","true","false","[]","[]","[]","","","","","","","","","","","","","","","","","","","","",""
"","","","fullscreen","3","179310","0.0-1.0-2.0","18:00:22","3","true","","","","","","","","","","","","","","","","","","","","","","","","",""
"28039","","instruct","instructions","4","207349","0.0-1.0-3.0-0.0","18:00:22","3","","","","","","[{""page_index"":0,""viewing_time"":9537},{""page_index"":1,""viewing_time"":8721},{""page_index"":2,""viewing_time"":9781}]","","","","","","","","","","","","","","","","","","","",""
"17314","{""Q0"":"""",""task1"":""<span style='font-size: 24px'>学习图片和数字的对应关系</span>"",""task2"":""<span style='font-size: 24px'> 数字键1-3 </span>"",""task3"":""<span style='font-size: 24px'> 看到图片选出正确对应的数字 </span>""}","question","survey-multi-choice","5","224665","0.0-1.0-3.0-1.0","18:00:22","3","","","","","","","","[0,1,2,3]","","","","","","","","","","","","","","","","","",""
"3660"," ","inst_q","html-keyboard-response","6","228326","0.0-1.0-3.0-2.0","18:00:22","3","","","","","","","inst","","1","","","","","","","","","","","","","","","","",""
"16342","","instruct","instructions","7","244669","0.0-1.0-3.1-0.1","18:00:22","3","","","","","","[{""page_index"":0,""viewing_time"":5325},{""page_index"":1,""viewing_time"":425},{""page_index"":2,""viewing_time"":1800},{""page_index"":1,""viewing_time"":5035},{""page_index"":2,""viewing_time"":3755}]","","","","","","","","","","","","","","","","","","","",""
"13023","{""Q0"":"""",""task1"":""<span style='font-size: 24px'>学习图片和数字的对应关系</span>"",""task2"":""<span style='font-size: 24px'> 图片下方标注为可用的数字键（数字键1-3或0-9） </span>"",""task3"":""<span style='font-size: 24px'> 看到图片选出正确对应的数字 </span>""}","question","survey-multi-choice","8","257692","0.0-1.0-3.1-1.1","18:00:22","3","","","","","","","","[0,1,2,3]","","","","","","","","","","","","","","","","","",""
"5508"," ","inst_q","html-keyboard-response","9","263201","0.0-1.0-3.1-2.1","18:00:22","3","","","","","","","inst","","1","","","","","","","","","","","","","","","","",""
"","","","preload","10","263264","0.0-1.0-4.0-0.0","18:00:22","3","true","false","[]","[]","[]","","","","","","","","","","","","","","","","","","","","",""
"4343"," ","","html-keyboard-response","11","267608","0.0-1.0-4.0-1.0","18:00:22","3","","","","","","","<div style='font-size: 32px; text-align: center;'
                    <p>请学习图片和数字之间的对应关系</p>
                    <p>我们将<span style='color: blue'><b> 告诉 </b></span>您选择的对错。请根据反馈学习。</p>
                    <p>请按""空格""继续实验。</p></div>","","","","","","","","","","","","","","","","","","",""
"11230"," ","inst","html-keyboard-response","12","278838","0.0-1.0-4.0-2.0","18:00:22","3","","","","","","","<img class='instruct_stim' src=""instruction/prac3.PNG""></div>","","","","","","","","","","","","","","","","","","",""
"null","null","fixation","html-keyboard-response","13","279340","0.0-1.0-4.0-3.0-0.0","18:00:22","3","","","","","","","fixation","","","","","","","","","","","","","","","","","","",""
"1421","1","pic_response","html-keyboard-response","14","280762","0.0-1.0-4.0-3.0-1.0","18:00:22","3","","","","","","","<div>
            <img class='stim' src=""pictures/prac/0.jpg""></div><div class=""button_prompt"">
                        <b>请用数字键1-3回答</b>
                        </div>","","","","","","","","","","","","","","","","","","",""
"1421","null","sub_response","html-keyboard-response","15","281764","0.0-1.0-4.0-3.0-2.0","18:00:22","3","","","","","","","<div style='text-align: center;'>
                            <span style=""color: green; font-size: 40px""><b>正确！+1 pts</b></span></div>
                            ","","learn","0","0","0","learn","0","0","[0, 1, 2]","0","0","setsize","99","prac","0","1","0","1",""
"null","null","fixation","html-keyboard-response","16","282265","0.0-1.0-4.0-3.0-0.1","18:00:22","3","","","","","","","fixation","","","","","","","","","","","","","","","","","","",""
"1788","2","pic_response","html-keyboard-response","17","284053","0.0-1.0-4.0-3.0-1.1","18:00:22","3","","","","","","","<div>
            <img class='stim' src=""pictures/prac/2.jpg""></div><div class=""button_prompt"">
                        <b>请用数字键1-3回答</b>
                        </div>","","","","","","","","","","","","","","","","","","",""
"1788","null","sub_response","html-keyboard-response","18","285055","0.0-1.0-4.0-3.0-2.1","18:00:22","3","","","","","","","<div style='text-align: center;'>
                            <span style=""color: red; font-size: 40px""><b>错误！+0 pts</b></span></div>
                            ","","learn","2","2","2","learn","2","2","[0, 1, 2]","1","0","setsize","99","prac","0","0","1","0",""
"null","null","fixation","html-keyboard-response","19","285557","0.0-1.0-4.0-3.0-0.2","18:00:22","3","","","","","","","fixation","","","","","","","","","","","","","","","","","","",""
"2287","2","pic_response","html-keyboard-response","20","287844","0.0-1.0-4.0-3.0-1.2","18:00:22","3","","","","","","","<div>
            <img class='stim' src=""pictures/prac/1.jpg""></div><div class=""button_prompt"">
                        <b>请用数字键1-3回答</b>
                        </div>","","","","","","","","","","","","","","","","","","",""
"2287","null","sub_response","html-keyboard-response","21","288846","0.0-1.0-4.0-3.0-2.2","18:00:22","3","","","","","","","<div style='text-align: center;'>
                            <span style=""color: red; font-size: 40px""><b>错误！+0 pts</b></span></div>
                            ","","learn","1","1","1","learn","0","0","[0, 1, 2]","2","0","setsize","99","prac","0","0","1","0",""
"null","null","fixation","html-keyboard-response","22","289348","0.0-1.0-4.0-3.0-0.3","18:00:22","3","","","","","","","fixation","","","","","","","","","","","","","","","","","","",""
"1244","1","pic_response","html-keyboard-response","23","290592","0.0-1.0-4.0-3.0-1.3","18:00:22","3","","","","","","","<div>
            <img class='stim' src=""pictures/prac/2.jpg""></div><div class=""button_prompt"">
                        <b>请用数字键1-3回答</b>
                        </div>","","","","","","","","","","","","","","","","","","",""
"1244","null","sub_response","html-keyboard-response","24","291596","0.0-1.0-4.0-3.0-2.3","18:00:22","3","","","","","","","<div style='text-align: center;'>
                            <span style=""color: red; font-size: 40px""><b>错误！+0 pts</b></span></div>
                            ","","learn","2","2","2","learn","2","2","[0, 1, 2]","3","1","setsize","99","prac","0","0","0","0",""
"null","null","fixation","html-keyboard-response","25","292097","0.0-1.0-4.0-3.0-0.4","18:00:22","3","","","","","","","fixation","","","","","","","","","","","","","","","","","","",""
"1318","1","pic_response","html-keyboard-response","26","293416","0.0-1.0-4.0-3.0-1.4","18:00:22","3","","","","","","","<div>
            <img class='stim' src=""pictures/prac/0.jpg""></div><div class=""button_prompt"">
                        <b>请用数字键1-3回答</b>
                        </div>","","","","","","","","","","","","","","","","","","",""
"1318","null","sub_response","html-keyboard-response","27","294416","0.0-1.0-4.0-3.0-2.4","18:00:22","3","","","","","","","<div style='text-align: center;'>
                            <span style=""color: green; font-size: 40px""><b>正确！+1 pts</b></span></div>
                            ","","learn","0","0","0","learn","0","0","[0, 1, 2]","4","1","setsize","99","prac","0","1","0","1",""
"null","null","fixation","html-keyboard-response","28","294918","0.0-1.0-4.0-3.0-0.5","18:00:22","3","","","","","","","fixation","","","","","","","","","","","","","","","","","","",""
"854","2","pic_response","html-keyboard-response","29","295773","0.0-1.0-4.0-3.0-1.5","18:00:22","3","","","","","","","<div>
            <img class='stim' src=""pictures/prac/1.jpg""></div><div class=""button_prompt"">
                        <b>请用数字键1-3回答</b>
                        </div>","","","","","","","","","","","","","","","","","","",""
"854","null","sub_response","html-keyboard-response","30","296774","0.0-1.0-4.0-3.0-2.5","18:00:22","3","","","","","","","<div style='text-align: center;'>
                            <span style=""color: red; font-size: 40px""><b>错误！+0 pts</b></span></div>
                            ","","learn","1","1","1","learn","0","0","[0, 1, 2]","5","1","setsize","99","prac","0","0","1","0",""
"","","","preload","31","296776","0.0-1.0-4.1-0.1","18:00:22","3","true","false","[]","[]","[]","","","","","","","","","","","","","","","","","","","","",""
"3863"," ","","html-keyboard-response","32","300638","0.0-1.0-4.1-1.1","18:00:22","3","","","","","","","<div style='font-size: 32px; text-align: center;'
                    <p>请学习图片和数字之间的对应关系</p>
                    <p>我们将<span style='color: blue'><b> 告诉 </b></span>您选择的对错。请根据反馈学习。</p>
                    <p>请按""空格""继续实验。</p></div>","","","","","","","","","","","","","","","","","","",""
"3837"," ","inst","html-keyboard-response","33","304475","0.0-1.0-4.1-2.1","18:00:22","3","","","","","","","<img class='instruct_stim' src=""instruction/prac3.PNG""></div>","","","","","","","","","","","","","","","","","","",""
"null","null","fixation","html-keyboard-response","34","304976","0.0-1.0-4.1-3.1-0.6","18:00:22","3","","","","","","","fixation","","","","","","","","","","","","","","","","","","",""
"1192","1","pic_response","html-keyboard-response","35","306169","0.0-1.0-4.1-3.1-1.6","18:00:22","3","","","","","","","<div>
            <img class='stim' src=""pictures/prac/0.jpg""></div><div class=""button_prompt"">
                        <b>请用数字键1-3回答</b>
                        </div>","","","","","","","","","","","","","","","","","","",""
"1192","null","sub_response","html-keyboard-response","36","307170","0.0-1.0-4.1-3.1-2.6","18:00:22","3","","","","","","","<div style='text-align: center;'>
                            <span style=""color: green; font-size: 40px""><b>正确！+1 pts</b></span></div>
                            ","","learn","0","0","0","learn","0","0","[0, 1, 2]","0","0","setsize","99","prac","0","1","0","1",""
"null","null","fixation","html-keyboard-response","37","307672","0.0-1.0-4.1-3.1-0.7","18:00:22","3","","","","","","","fixation","","","","","","","","","","","","","","","","","","",""
"2057","3","pic_response","html-keyboard-response","38","309729","0.0-1.0-4.1-3.1-1.7","18:00:22","3","","","","","","","<div>
            <img class='stim' src=""pictures/prac/2.jpg""></div><div class=""button_prompt"">
                        <b>请用数字键1-3回答</b>
                        </div>","","","","","","","","","","","","","","","","","","",""
"2057","null","sub_response","html-keyboard-response","39","310731","0.0-1.0-4.1-3.1-2.7","18:00:22","3","","","","","","","<div style='text-align: center;'>
                            <span style=""color: green; font-size: 40px""><b>正确！+1 pts</b></span></div>
                            ","","learn","2","2","2","learn","2","2","[0, 1, 2]","1","0","setsize","99","prac","0","2","2","1",""
"null","null","fixation","html-keyboard-response","40","311232","0.0-1.0-4.1-3.1-0.8","18:00:22","3","","","","","","","fixation","","","","","","","","","","","","","","","","","","",""
"895","2","pic_response","html-keyboard-response","41","312128","0.0-1.0-4.1-3.1-1.8","18:00:22","3","","","","","","","<div>
            <img class='stim' src=""pictures/prac/1.jpg""></div><div class=""button_prompt"">
                        <b>请用数字键1-3回答</b>
                        </div>","","","","","","","","","","","","","","","","","","",""
"895","null","sub_response","html-keyboard-response","42","313129","0.0-1.0-4.1-3.1-2.8","18:00:22","3","","","","","","","<div style='text-align: center;'>
                            <span style=""color: red; font-size: 40px""><b>错误！+0 pts</b></span></div>
                            ","","learn","1","1","1","learn","0","0","[0, 1, 2]","2","0","setsize","99","prac","0","0","1","0",""
"null","null","fixation","html-keyboard-response","43","313630","0.0-1.0-4.1-3.1-0.9","18:00:22","3","","","","","","","fixation","","","","","","","","","","","","","","","","","","",""
"1713","1","pic_response","html-keyboard-response","44","315345","0.0-1.0-4.1-3.1-1.9","18:00:22","3","","","","","","","<div>
            <img class='stim' src=""pictures/prac/2.jpg""></div><div class=""button_prompt"">
                        <b>请用数字键1-3回答</b>
                        </div>","","","","","","","","","","","","","","","","","","",""
"1713","null","sub_response","html-keyboard-response","45","316346","0.0-1.0-4.1-3.1-2.9","18:00:22","3","","","","","","","<div style='text-align: center;'>
                            <span style=""color: red; font-size: 40px""><b>错误！+0 pts</b></span></div>
                            ","","learn","2","2","2","learn","2","2","[0, 1, 2]","3","1","setsize","99","prac","0","0","0","0",""
"null","null","fixation","html-keyboard-response","46","316847","0.0-1.0-4.1-3.1-0.10","18:00:22","3","","","","","","","fixation","","","","","","","","","","","","","","","","","","",""
"679","1","pic_response","html-keyboard-response","47","317527","0.0-1.0-4.1-3.1-1.10","18:00:22","3","","","","","","","<div>
            <img class='stim' src=""pictures/prac/0.jpg""></div><div class=""button_prompt"">
                        <b>请用数字键1-3回答</b>
                        </div>","","","","","","","","","","","","","","","","","","",""
"679","null","sub_response","html-keyboard-response","48","318528","0.0-1.0-4.1-3.1-2.10","18:00:22","3","","","","","","","<div style='text-align: center;'>
                            <span style=""color: green; font-size: 40px""><b>正确！+1 pts</b></span></div>
                            ","","learn","0","0","0","learn","0","0","[0, 1, 2]","4","1","setsize","99","prac","0","1","0","1",""
"null","null","fixation","html-keyboard-response","49","319030","0.0-1.0-4.1-3.1-0.11","18:00:22","3","","","","","","","fixation","","","","","","","","","","","","","","","","","","",""
"1732","1","pic_response","html-keyboard-response","50","320763","0.0-1.0-4.1-3.1-1.11","18:00:22","3","","","","","","","<div>
            <img class='stim' src=""pictures/prac/1.jpg""></div><div class=""button_prompt"">
                        <b>请用数字键1-3回答</b>
                        </div>","","","","","","","","","","","","","","","","","","",""
"1732","null","sub_response","html-keyboard-response","51","321764","0.0-1.0-4.1-3.1-2.11","18:00:22","3","","","","","","","<div style='text-align: center;'>
                            <span style=""color: green; font-size: 40px""><b>正确！+1 pts</b></span></div>
                            ","","learn","1","1","1","learn","0","0","[0, 1, 2]","5","1","setsize","99","prac","0","2","0","1",""
"","","","preload","52","321765","0.0-1.0-4.2-0.2","18:00:22","3","true","false","[]","[]","[]","","","","","","","","","","","","","","","","","","","","",""
"4128"," ","","html-keyboard-response","53","325894","0.0-1.0-4.2-1.2","18:00:22","3","","","","","","","<div style='font-size: 32px; text-align: center;'
                    <p>请学习图片和数字之间的对应关系</p>
                    <p>我们将<span style='color: blue'><b> 告诉 </b></span>您选择的对错。请根据反馈学习。</p>
                    <p>请按""空格""继续实验。</p></div>","","","","","","","","","","","","","","","","","","",""
"1313"," ","inst","html-keyboard-response","54","327207","0.0-1.0-4.2-2.2","18:00:22","3","","","","","","","<img class='instruct_stim' src=""instruction/prac3.PNG""></div>","","","","","","","","","","","","","","","","","","",""
"null","null","fixation","html-keyboard-response","55","327710","0.0-1.0-4.2-3.2-0.12","18:00:22","3","","","","","","","fixation","","","","","","","","","","","","","","","","","","",""
"791","1","pic_response","html-keyboard-response","56","328501","0.0-1.0-4.2-3.2-1.12","18:00:22","3","","","","","","","<div>
            <img class='stim' src=""pictures/prac/0.jpg""></div><div class=""button_prompt"">
                        <b>请用数字键1-3回答</b>
                        </div>","","","","","","","","","","","","","","","","","","",""
"791","null","sub_response","html-keyboard-response","57","329503","0.0-1.0-4.2-3.2-2.12","18:00:22","3","","","","","","","<div style='text-align: center;'>
                            <span style=""color: green; font-size: 40px""><b>正确！+1 pts</b></span></div>
                            ","","learn","0","0","0","learn","0","0","[0, 1, 2]","0","0","setsize","99","prac","0","3","0","1",""
"null","null","fixation","html-keyboard-response","58","330004","0.0-1.0-4.2-3.2-0.13","18:00:22","3","","","","","","","fixation","","","","","","","","","","","","","","","","","","",""
"897","3","pic_response","html-keyboard-response","59","330902","0.0-1.0-4.2-3.2-1.13","18:00:22","3","","","","","","","<div>
            <img class='stim' src=""pictures/prac/2.jpg""></div><div class=""button_prompt"">
                        <b>请用数字键1-3回答</b>
                        </div>","","","","","","","","","","","","","","","","","","",""
"897","null","sub_response","html-keyboard-response","60","331903","0.0-1.0-4.2-3.2-2.13","18:00:22","3","","","","","","","<div style='text-align: center;'>
                            <span style=""color: green; font-size: 40px""><b>正确！+1 pts</b></span></div>
                            ","","learn","2","2","2","learn","2","2","[0, 1, 2]","1","0","setsize","99","prac","0","4","2","1",""
"null","null","fixation","html-keyboard-response","61","332405","0.0-1.0-4.2-3.2-0.14","18:00:22","3","","","","","","","fixation","","","","","","","","","","","","","","","","","","",""
"495","1","pic_response","html-keyboard-response","62","332900","0.0-1.0-4.2-3.2-1.14","18:00:22","3","","","","","","","<div>
            <img class='stim' src=""pictures/prac/1.jpg""></div><div class=""button_prompt"">
                        <b>请用数字键1-3回答</b>
                        </div>","","","","","","","","","","","","","","","","","","",""
"495","null","sub_response","html-keyboard-response","63","333901","0.0-1.0-4.2-3.2-2.14","18:00:22","3","","","","","","","<div style='text-align: center;'>
                            <span style=""color: green; font-size: 40px""><b>正确！+1 pts</b></span></div>
                            ","","learn","1","1","1","learn","0","0","[0, 1, 2]","2","0","setsize","99","prac","0","5","0","1",""
"null","null","fixation","html-keyboard-response","64","334402","0.0-1.0-4.2-3.2-0.15","18:00:22","3","","","","","","","fixation","","","","","","","","","","","","","","","","","","",""
"899","3","pic_response","html-keyboard-response","65","335301","0.0-1.0-4.2-3.2-1.15","18:00:22","3","","","","","","","<div>
            <img class='stim' src=""pictures/prac/2.jpg""></div><div class=""button_prompt"">
                        <b>请用数字键1-3回答</b>
                        </div>","","","","","","","","","","","","","","","","","","",""
"899","null","sub_response","html-keyboard-response","66","336303","0.0-1.0-4.2-3.2-2.15","18:00:22","3","","","","","","","<div style='text-align: center;'>
                            <span style=""color: green; font-size: 40px""><b>正确！+1 pts</b></span></div>
                            ","","learn","2","2","2","learn","2","2","[0, 1, 2]","3","1","setsize","99","prac","0","6","2","1",""
"null","null","fixation","html-keyboard-response","67","336803","0.0-1.0-4.2-3.2-0.16","18:00:22","3","","","","","","","fixation","","","","","","","","","","","","","","","","","","",""
"540","1","pic_response","html-keyboard-response","68","337344","0.0-1.0-4.2-3.2-1.16","18:00:22","3","","","","","","","<div>
            <img class='stim' src=""pictures/prac/0.jpg""></div><div class=""button_prompt"">
                        <b>请用数字键1-3回答</b>
                        </div>","","","","","","","","","","","","","","","","","","",""
"540","null","sub_response","html-keyboard-response","69","338346","0.0-1.0-4.2-3.2-2.16","18:00:22","3","","","","","","","<div style='text-align: center;'>
                            <span style=""color: green; font-size: 40px""><b>正确！+1 pts</b></span></div>
                            ","","learn","0","0","0","learn","0","0","[0, 1, 2]","4","1","setsize","99","prac","0","7","0","1",""
"null","null","fixation","html-keyboard-response","70","338847","0.0-1.0-4.2-3.2-0.17","18:00:22","3","","","","","","","fixation","","","","","","","","","","","","","","","","","","",""
"626","1","pic_response","html-keyboard-response","71","339474","0.0-1.0-4.2-3.2-1.17","18:00:22","3","","","","","","","<div>
            <img class='stim' src=""pictures/prac/1.jpg""></div><div class=""button_prompt"">
                        <b>请用数字键1-3回答</b>
                        </div>","","","","","","","","","","","","","","","","","","",""
"626","null","sub_response","html-keyboard-response","72","340474","0.0-1.0-4.2-3.2-2.17","18:00:22","3","","","","","","","<div style='text-align: center;'>
                            <span style=""color: green; font-size: 40px""><b>正确！+1 pts</b></span></div>
                            ","","learn","1","1","1","learn","0","0","[0, 1, 2]","5","1","setsize","99","prac","0","8","0","1",""
"2369"," ","","html-keyboard-response","73","342844","0.0-1.0-5.0","18:00:22","3","","","","","","","<div style=""font-size: 25px""><p>距下一个实验开始还有</p><div style=""font-size: 50px; color: blue""><p><span id=""clock"">1:00</span></div></p><p>按""空格""跳过休息</p></div>","","","","","","","","","","","","","","","","","","",""
"997"," ","","html-keyboard-response","74","343841","0.0-1.0-6.0","18:00:22","3","","","","","","","<div style='font-size: 32px; text-align: center;'
                    <p>请按""空格""继续正式实验。</p></div>","","","","","","","","","","","","","","","","","","",""
"","","","preload","75","344018","0.0-1.0-7.0-0.0","18:00:22","3","true","false","[]","[]","[]","","","","","","","","","","","","","","","","","","","","",""
"2521"," ","","html-keyboard-response","76","346539","0.0-1.0-7.0-1.0","18:00:22","3","","","","","","","<div style='font-size: 32px; text-align: center;'
                    <p>请学习图片和数字之间的对应关系</p>
                    <p>我们将<span style='color: blue'><b> 告诉 </b></span>您选择的对错。请根据反馈学习。</p>
                    <p>请按""空格""继续实验。</p></div>","","","","","","","","","","","","","","","","","","",""
"6543"," ","inst","html-keyboard-response","77","353082","0.0-1.0-7.0-2.0","18:00:22","3","","","","","","","<img class='instruct_stim' src=""instruction/animals3.PNG""></div>","","","","","","","","","","","","","","","","","","",""
"null","null","fixation","html-keyboard-response","78","353583","0.0-1.0-7.0-3.0-0.0","18:00:22","3","","","","","","","fixation","","","","","","","","","","","","","","","","","","",""
"1491","1","pic_response","html-keyboard-response","79","355075","0.0-1.0-7.0-3.0-1.0","18:00:22","3","","","","","","","<div>
            <img class='stim' src=""pictures/animals/1.jpg""></div><div class=""button_prompt"">
                        <b>请用数字键1-3回答</b>
                        </div>","","","","","","","","","","","","","","","","","","",""
"1491","null","sub_response","html-keyboard-response","80","356077","0.0-1.0-7.0-3.0-2.0","18:00:22","3","","","","","","","<div style='text-align: center;'>
                            <span style=""color: green; font-size: 40px""><b>正确！+1 pts</b></span></div>
                            ","","learn","1","1","1","learn","0","0","[0, 1, 2]","0","0","setsize","3S3A","animals","1","9","0","1",""
"null","null","fixation","html-keyboard-response","81","356579","0.0-1.0-7.0-3.0-0.1","18:00:22","3","","","","","","","fixation","","","","","","","","","","","","","","","","","","",""
"1281","2","pic_response","html-keyboard-response","82","357860","0.0-1.0-7.0-3.0-1.1","18:00:22","3","","","","","","","<div>
            <img class='stim' src=""pictures/animals/0.jpg""></div><div class=""button_prompt"">
                        <b>请用数字键1-3回答</b>
                        </div>","","","","","","","","","","","","","","","","","","",""
"1281","null","sub_response","html-keyboard-response","83","358862","0.0-1.0-7.0-3.0-2.1","18:00:22","3","","","","","","","<div style='text-align: center;'>
                            <span style=""color: red; font-size: 40px""><b>错误！+0 pts</b></span></div>
                            ","","learn","0","0","0","learn","0","0","[0, 1, 2]","1","0","setsize","3S3A","animals","1","0","1","0",""
"null","null","fixation","html-keyboard-response","84","359363","0.0-1.0-7.0-3.0-0.2","18:00:22","3","","","","","","","fixation","","","","","","","","","","","","","","","","","","",""
"1500","3","pic_response","html-keyboard-response","85","360863","0.0-1.0-7.0-3.0-1.2","18:00:22","3","","","","","","","<div>
            <img class='stim' src=""pictures/animals/2.jpg""></div><div class=""button_prompt"">
                        <b>请用数字键1-3回答</b>
                        </div>","","","","","","","","","","","","","","","","","","",""
"1500","null","sub_response","html-keyboard-response","86","361865","0.0-1.0-7.0-3.0-2.2","18:00:22","3","","","","","","","<div style='text-align: center;'>
                            <span style=""color: green; font-size: 40px""><b>正确！+1 pts</b></span></div>
                            ","","learn","2","2","2","learn","2","2","[0, 1, 2]","2","0","setsize","3S3A","animals","1","1","2","1",""
"null","null","fixation","html-keyboard-response","87","362366","0.0-1.0-7.0-3.0-0.3","18:00:22","3","","","","","","","fixation","","","","","","","","","","","","","","","","","","",""
"874","1","pic_response","html-keyboard-response","88","363241","0.0-1.0-7.0-3.0-1.3","18:00:22","3","","","","","","","<div>
            <img class='stim' src=""pictures/animals/1.jpg""></div><div class=""button_prompt"">
                        <b>请用数字键1-3回答</b>
                        </div>","","","","","","","","","","","","","","","","","","",""
"874","null","sub_response","html-keyboard-response","89","364242","0.0-1.0-7.0-3.0-2.3","18:00:22","3","","","","","","","<div style='text-align: center;'>
                            <span style=""color: green; font-size: 40px""><b>正确！+1 pts</b></span></div>
                            ","","learn","1","1","1","learn","0","0","[0, 1, 2]","3","1","setsize","3S3A","animals","1","2","0","1",""
"null","null","fixation","html-keyboard-response","90","364742","0.0-1.0-7.0-3.0-0.4","18:00:22","3","","","","","","","fixation","","","","","","","","","","","","","","","","","","",""
"2719","1","pic_response","html-keyboard-response","91","367462","0.0-1.0-7.0-3.0-1.4","18:00:22","3","","","","","","","<div>
            <img class='stim' src=""pictures/animals/0.jpg""></div><div class=""button_prompt"">
                        <b>请用数字键1-3回答</b>
                        </div>","","","","","","","","","","","","","","","","","","",""
"2719","null","sub_response","html-keyboard-response","92","368463","0.0-1.0-7.0-3.0-2.4","18:00:22","3","","","","","","","<div style='text-align: center;'>
                            <span style=""color: green; font-size: 40px""><b>正确！+1 pts</b></span></div>
                            ","","learn","0","0","0","learn","0","0","[0, 1, 2]","4","1","setsize","3S3A","animals","1","3","0","1",""
"null","null","fixation","html-keyboard-response","93","368965","0.0-1.0-7.0-3.0-0.5","18:00:22","3","","","","","","","fixation","","","","","","","","","","","","","","","","","","",""
"576","3","pic_response","html-keyboard-response","94","369542","0.0-1.0-7.0-3.0-1.5","18:00:22","3","","","","","","","<div>
            <img class='stim' src=""pictures/animals/2.jpg""></div><div class=""button_prompt"">
                        <b>请用数字键1-3回答</b>
                        </div>","","","","","","","","","","","","","","","","","","",""
"576","null","sub_response","html-keyboard-response","95","370542","0.0-1.0-7.0-3.0-2.5","18:00:22","3","","","","","","","<div style='text-align: center;'>
                            <span style=""color: green; font-size: 40px""><b>正确！+1 pts</b></span></div>
                            ","","learn","2","2","2","learn","2","2","[0, 1, 2]","5","1","setsize","3S3A","animals","1","4","2","1",""
"null","null","fixation","html-keyboard-response","96","371044","0.0-1.0-7.0-3.0-0.6","18:00:22","3","","","","","","","fixation","","","","","","","","","","","","","","","","","","",""
"1005","3","pic_response","html-keyboard-response","97","372049","0.0-1.0-7.0-3.0-1.6","18:00:22","3","","","","","","","<div>
            <img class='stim' src=""pictures/animals/2.jpg""></div><div class=""button_prompt"">
                        <b>请用数字键1-3回答</b>
                        </div>","","","","","","","","","","","","","","","","","","",""
"1005","null","sub_response","html-keyboard-response","98","373051","0.0-1.0-7.0-3.0-2.6","18:00:22","3","","","","","","","<div style='text-align: center;'>
                            <span style=""color: green; font-size: 40px""><b>正确！+1 pts</b></span></div>
                            ","","learn","2","2","2","learn","2","2","[0, 1, 2]","6","2","setsize","3S3A","animals","1","5","2","1",""
"null","null","fixation","html-keyboard-response","99","373552","0.0-1.0-7.0-3.0-0.7","18:00:22","3","","","","","","","fixation","","","","","","","","","","","","","","","","","","",""
"743","1","pic_response","html-keyboard-response","100","374297","0.0-1.0-7.0-3.0-1.7","18:00:22","3","","","","","","","<div>
            <img class='stim' src=""pictures/animals/0.jpg""></div><div class=""button_prompt"">
                        <b>请用数字键1-3回答</b>
                        </div>","","","","","","","","","","","","","","","","","","",""
"743","null","sub_response","html-keyboard-response","101","375298","0.0-1.0-7.0-3.0-2.7","18:00:22","3","","","","","","","<div style='text-align: center;'>
                            <span style=""color: green; font-size: 40px""><b>正确！+1 pts</b></span></div>
                            ","","learn","0","0","0","learn","0","0","[0, 1, 2]","7","2","setsize","3S3A","animals","1","6","0","1",""
"null","null","fixation","html-keyboard-response","102","375800","0.0-1.0-7.0-3.0-0.8","18:00:22","3","","","","","","","fixation","","","","","","","","","","","","","","","","","","",""
"820","1","pic_response","html-keyboard-response","103","376621","0.0-1.0-7.0-3.0-1.8","18:00:22","3","","","","","","","<div>
            <img class='stim' src=""pictures/animals/1.jpg""></div><div class=""button_prompt"">
                        <b>请用数字键1-3回答</b>
                        </div>","","","","","","","","","","","","","","","","","","",""
"820","null","sub_response","html-keyboard-response","104","377622","0.0-1.0-7.0-3.0-2.8","18:00:22","3","","","","","","","<div style='text-align: center;'>
                            <span style=""color: green; font-size: 40px""><b>正确！+1 pts</b></span></div>
                            ","","learn","1","1","1","learn","0","0","[0, 1, 2]","8","2","setsize","3S3A","animals","1","7","0","1",""
"null","null","fixation","html-keyboard-response","105","378123","0.0-1.0-7.0-3.0-0.9","18:00:22","3","","","","","","","fixation","","","","","","","","","","","","","","","","","","",""
"715","1","pic_response","html-keyboard-response","106","378839","0.0-1.0-7.0-3.0-1.9","18:00:22","3","","","","","","","<div>
            <img class='stim' src=""pictures/animals/0.jpg""></div><div class=""button_prompt"">
                        <b>请用数字键1-3回答</b>
                        </div>","","","","","","","","","","","","","","","","","","",""
"715","null","sub_response","html-keyboard-response","107","379841","0.0-1.0-7.0-3.0-2.9","18:00:22","3","","","","","","","<div style='text-align: center;'>
                            <span style=""color: green; font-size: 40px""><b>正确！+1 pts</b></span></div>
                            ","","learn","0","0","0","learn","0","0","[0, 1, 2]","9","3","setsize","3S3A","animals","1","8","0","1",""
"null","null","fixation","html-keyboard-response","108","380342","0.0-1.0-7.0-3.0-0.10","18:00:22","3","","","","","","","fixation","","","","","","","","","","","","","","","","","","",""
"477","3","pic_response","html-keyboard-response","109","380819","0.0-1.0-7.0-3.0-1.10","18:00:22","3","","","","","","","<div>
            <img class='stim' src=""pictures/animals/2.jpg""></div><div class=""button_prompt"">
                        <b>请用数字键1-3回答</b>
                        </div>","","","","","","","","","","","","","","","","","","",""
"477","null","sub_response","html-keyboard-response","110","381821","0.0-1.0-7.0-3.0-2.10","18:00:22","3","","","","","","","<div style='text-align: center;'>
                            <span style=""color: green; font-size: 40px""><b>正确！+1 pts</b></span></div>
                            ","","learn","2","2","2","learn","2","2","[0, 1, 2]","10","3","setsize","3S3A","animals","1","9","2","1",""
"null","null","fixation","html-keyboard-response","111","382321","0.0-1.0-7.0-3.0-0.11","18:00:22","3","","","","","","","fixation","","","","","","","","","","","","","","","","","","",""
"589","1","pic_response","html-keyboard-response","112","382911","0.0-1.0-7.0-3.0-1.11","18:00:22","3","","","","","","","<div>
            <img class='stim' src=""pictures/animals/1.jpg""></div><div class=""button_prompt"">
                        <b>请用数字键1-3回答</b>
                        </div>","","","","","","","","","","","","","","","","","","",""
"589","null","sub_response","html-keyboard-response","113","383913","0.0-1.0-7.0-3.0-2.11","18:00:22","3","","","","","","","<div style='text-align: center;'>
                            <span style=""color: green; font-size: 40px""><b>正确！+1 pts</b></span></div>
                            ","","learn","1","1","1","learn","0","0","[0, 1, 2]","11","3","setsize","3S3A","animals","1","10","0","1",""
"null","null","fixation","html-keyboard-response","114","384414","0.0-1.0-7.0-3.0-0.12","18:00:22","3","","","","","","","fixation","","","","","","","","","","","","","","","","","","",""
"463","1","pic_response","html-keyboard-response","115","384878","0.0-1.0-7.0-3.0-1.12","18:00:22","3","","","","","","","<div>
            <img class='stim' src=""pictures/animals/1.jpg""></div><div class=""button_prompt"">
                        <b>请用数字键1-3回答</b>
                        </div>","","","","","","","","","","","","","","","","","","",""
"463","null","sub_response","html-keyboard-response","116","385879","0.0-1.0-7.0-3.0-2.12","18:00:22","3","","","","","","","<div style='text-align: center;'>
                            <span style=""color: green; font-size: 40px""><b>正确！+1 pts</b></span></div>
                            ","","learn","1","1","1","learn","0","0","[0, 1, 2]","12","4","setsize","3S3A","animals","1","11","0","1",""
"null","null","fixation","html-keyboard-response","117","386381","0.0-1.0-7.0-3.0-0.13","18:00:22","3","","","","","","","fixation","","","","","","","","","","","","","","","","","","",""
"812","1","pic_response","html-keyboard-response","118","387193","0.0-1.0-7.0-3.0-1.13","18:00:22","3","","","","","","","<div>
            <img class='stim' src=""pictures/animals/0.jpg""></div><div class=""button_prompt"">
                        <b>请用数字键1-3回答</b>
                        </div>","","","","","","","","","","","","","","","","","","",""
"812","null","sub_response","html-keyboard-response","119","388195","0.0-1.0-7.0-3.0-2.13","18:00:22","3","","","","","","","<div style='text-align: center;'>
                            <span style=""color: green; font-size: 40px""><b>正确！+1 pts</b></span></div>
                            ","","learn","0","0","0","learn","0","0","[0, 1, 2]","13","4","setsize","3S3A","animals","1","12","0","1",""
"null","null","fixation","html-keyboard-response","120","388697","0.0-1.0-7.0-3.0-0.14","18:00:22","3","","","","","","","fixation","","","","","","","","","","","","","","","","","","",""
"655","3","pic_response","html-keyboard-response","121","389353","0.0-1.0-7.0-3.0-1.14","18:00:22","3","","","","","","","<div>
            <img class='stim' src=""pictures/animals/2.jpg""></div><div class=""button_prompt"">
                        <b>请用数字键1-3回答</b>
                        </div>","","","","","","","","","","","","","","","","","","",""
"655","null","sub_response","html-keyboard-response","122","390354","0.0-1.0-7.0-3.0-2.14","18:00:22","3","","","","","","","<div style='text-align: center;'>
                            <span style=""color: green; font-size: 40px""><b>正确！+1 pts</b></span></div>
                            ","","learn","2","2","2","learn","2","2","[0, 1, 2]","14","4","setsize","3S3A","animals","1","13","2","1",""
"null","null","fixation","html-keyboard-response","123","390855","0.0-1.0-7.0-3.0-0.15","18:00:22","3","","","","","","","fixation","","","","","","","","","","","","","","","","","","",""
"689","1","pic_response","html-keyboard-response","124","391545","0.0-1.0-7.0-3.0-1.15","18:00:22","3","","","","","","","<div>
            <img class='stim' src=""pictures/animals/0.jpg""></div><div class=""button_prompt"">
                        <b>请用数字键1-3回答</b>
                        </div>","","","","","","","","","","","","","","","","","","",""
"689","null","sub_response","html-keyboard-response","125","392546","0.0-1.0-7.0-3.0-2.15","18:00:22","3","","","","","","","<div style='text-align: center;'>
                            <span style=""color: green; font-size: 40px""><b>正确！+1 pts</b></span></div>
                            ","","learn","0","0","0","learn","0","0","[0, 1, 2]","15","5","setsize","3S3A","animals","1","14","0","1",""
"null","null","fixation","html-keyboard-response","126","393047","0.0-1.0-7.0-3.0-0.16","18:00:22","3","","","","","","","fixation","","","","","","","","","","","","","","","","","","",""
"528","3","pic_response","html-keyboard-response","127","393575","0.0-1.0-7.0-3.0-1.16","18:00:22","3","","","","","","","<div>
            <img class='stim' src=""pictures/animals/2.jpg""></div><div class=""button_prompt"">
                        <b>请用数字键1-3回答</b>
                        </div>","","","","","","","","","","","","","","","","","","",""
"528","null","sub_response","html-keyboard-response","128","394576","0.0-1.0-7.0-3.0-2.16","18:00:22","3","","","","","","","<div style='text-align: center;'>
                            <span style=""color: green; font-size: 40px""><b>正确！+1 pts</b></span></div>
                            ","","learn","2","2","2","learn","2","2","[0, 1, 2]","16","5","setsize","3S3A","animals","1","15","2","1",""
"null","null","fixation","html-keyboard-response","129","395078","0.0-1.0-7.0-3.0-0.17","18:00:22","3","","","","","","","fixation","","","","","","","","","","","","","","","","","","",""
"538","1","pic_response","html-keyboard-response","130","395617","0.0-1.0-7.0-3.0-1.17","18:00:22","3","","","","","","","<div>
            <img class='stim' src=""pictures/animals/1.jpg""></div><div class=""button_prompt"">
                        <b>请用数字键1-3回答</b>
                        </div>","","","","","","","","","","","","","","","","","","",""
"538","null","sub_response","html-keyboard-response","131","396619","0.0-1.0-7.0-3.0-2.17","18:00:22","3","","","","","","","<div style='text-align: center;'>
                            <span style=""color: green; font-size: 40px""><b>正确！+1 pts</b></span></div>
                            ","","learn","1","1","1","learn","0","0","[0, 1, 2]","17","5","setsize","3S3A","animals","1","16","0","1",""
"null","null","fixation","html-keyboard-response","132","397119","0.0-1.0-7.0-3.0-0.18","18:00:22","3","","","","","","","fixation","","","","","","","","","","","","","","","","","","",""
"651","1","pic_response","html-keyboard-response","133","397771","0.0-1.0-7.0-3.0-1.18","18:00:22","3","","","","","","","<div>
            <img class='stim' src=""pictures/animals/0.jpg""></div><div class=""button_prompt"">
                        <b>请用数字键1-3回答</b>
                        </div>","","","","","","","","","","","","","","","","","","",""
"651","null","sub_response","html-keyboard-response","134","398773","0.0-1.0-7.0-3.0-2.18","18:00:22","3","","","","","","","<div style='text-align: center;'>
                            <span style=""color: green; font-size: 40px""><b>正确！+1 pts</b></span></div>
                            ","","learn","0","0","0","learn","0","0","[0, 1, 2]","18","6","setsize","3S3A","animals","1","17","0","1",""
"null","null","fixation","html-keyboard-response","135","399275","0.0-1.0-7.0-3.0-0.19","18:00:22","3","","","","","","","fixation","","","","","","","","","","","","","","","","","","",""
"631","1","pic_response","html-keyboard-response","136","399907","0.0-1.0-7.0-3.0-1.19","18:00:22","3","","","","","","","<div>
            <img class='stim' src=""pictures/animals/1.jpg""></div><div class=""button_prompt"">
                        <b>请用数字键1-3回答</b>
                        </div>","","","","","","","","","","","","","","","","","","",""
"631","null","sub_response","html-keyboard-response","137","400909","0.0-1.0-7.0-3.0-2.19","18:00:22","3","","","","","","","<div style='text-align: center;'>
                            <span style=""color: green; font-size: 40px""><b>正确！+1 pts</b></span></div>
                            ","","learn","1","1","1","learn","0","0","[0, 1, 2]","19","6","setsize","3S3A","animals","1","18","0","1",""
"null","null","fixation","html-keyboard-response","138","401411","0.0-1.0-7.0-3.0-0.20","18:00:22","3","","","","","","","fixation","","","","","","","","","","","","","","","","","","",""
"366","3","pic_response","html-keyboard-response","139","401777","0.0-1.0-7.0-3.0-1.20","18:00:22","3","","","","","","","<div>
            <img class='stim' src=""pictures/animals/2.jpg""></div><div class=""button_prompt"">
                        <b>请用数字键1-3回答</b>
                        </div>","","","","","","","","","","","","","","","","","","",""
"366","null","sub_response","html-keyboard-response","140","402778","0.0-1.0-7.0-3.0-2.20","18:00:22","3","","","","","","","<div style='text-align: center;'>
                            <span style=""color: green; font-size: 40px""><b>正确！+1 pts</b></span></div>
                            ","","learn","2","2","2","learn","2","2","[0, 1, 2]","20","6","setsize","3S3A","animals","1","19","2","1",""
"null","null","fixation","html-keyboard-response","141","403280","0.0-1.0-7.0-3.0-0.21","18:00:22","3","","","","","","","fixation","","","","","","","","","","","","","","","","","","",""
"647","1","pic_response","html-keyboard-response","142","403928","0.0-1.0-7.0-3.0-1.21","18:00:22","3","","","","","","","<div>
            <img class='stim' src=""pictures/animals/1.jpg""></div><div class=""button_prompt"">
                        <b>请用数字键1-3回答</b>
                        </div>","","","","","","","","","","","","","","","","","","",""
"647","null","sub_response","html-keyboard-response","143","404930","0.0-1.0-7.0-3.0-2.21","18:00:22","3","","","","","","","<div style='text-align: center;'>
                            <span style=""color: green; font-size: 40px""><b>正确！+1 pts</b></span></div>
                            ","","learn","1","1","1","learn","0","0","[0, 1, 2]","21","7","setsize","3S3A","animals","1","20","0","1",""
"null","null","fixation","html-keyboard-response","144","405432","0.0-1.0-7.0-3.0-0.22","18:00:22","3","","","","","","","fixation","","","","","","","","","","","","","","","","","","",""
"517","3","pic_response","html-keyboard-response","145","405949","0.0-1.0-7.0-3.0-1.22","18:00:22","3","","","","","","","<div>
            <img class='stim' src=""pictures/animals/2.jpg""></div><div class=""button_prompt"">
                        <b>请用数字键1-3回答</b>
                        </div>","","","","","","","","","","","","","","","","","","",""
"517","null","sub_response","html-keyboard-response","146","406950","0.0-1.0-7.0-3.0-2.22","18:00:22","3","","","","","","","<div style='text-align: center;'>
                            <span style=""color: green; font-size: 40px""><b>正确！+1 pts</b></span></div>
                            ","","learn","2","2","2","learn","2","2","[0, 1, 2]","22","7","setsize","3S3A","animals","1","21","2","1",""
"null","null","fixation","html-keyboard-response","147","407451","0.0-1.0-7.0-3.0-0.23","18:00:22","3","","","","","","","fixation","","","","","","","","","","","","","","","","","","",""
"612","1","pic_response","html-keyboard-response","148","408064","0.0-1.0-7.0-3.0-1.23","18:00:22","3","","","","","","","<div>
            <img class='stim' src=""pictures/animals/0.jpg""></div><div class=""button_prompt"">
                        <b>请用数字键1-3回答</b>
                        </div>","","","","","","","","","","","","","","","","","","",""
"612","null","sub_response","html-keyboard-response","149","409065","0.0-1.0-7.0-3.0-2.23","18:00:22","3","","","","","","","<div style='text-align: center;'>
                            <span style=""color: green; font-size: 40px""><b>正确！+1 pts</b></span></div>
                            ","","learn","0","0","0","learn","0","0","[0, 1, 2]","23","7","setsize","3S3A","animals","1","22","0","1",""
"null","null","fixation","html-keyboard-response","150","409567","0.0-1.0-7.0-3.0-0.24","18:00:22","3","","","","","","","fixation","","","","","","","","","","","","","","","","","","",""
"678","3","pic_response","html-keyboard-response","151","410245","0.0-1.0-7.0-3.0-1.24","18:00:22","3","","","","","","","<div>
            <img class='stim' src=""pictures/animals/2.jpg""></div><div class=""button_prompt"">
                        <b>请用数字键1-3回答</b>
                        </div>","","","","","","","","","","","","","","","","","","",""
"678","null","sub_response","html-keyboard-response","152","411246","0.0-1.0-7.0-3.0-2.24","18:00:22","3","","","","","","","<div style='text-align: center;'>
                            <span style=""color: green; font-size: 40px""><b>正确！+1 pts</b></span></div>
                            ","","learn","2","2","2","learn","2","2","[0, 1, 2]","24","8","setsize","3S3A","animals","1","23","2","1",""
"null","null","fixation","html-keyboard-response","153","411748","0.0-1.0-7.0-3.0-0.25","18:00:22","3","","","","","","","fixation","","","","","","","","","","","","","","","","","","",""
"444","1","pic_response","html-keyboard-response","154","412193","0.0-1.0-7.0-3.0-1.25","18:00:22","3","","","","","","","<div>
            <img class='stim' src=""pictures/animals/1.jpg""></div><div class=""button_prompt"">
                        <b>请用数字键1-3回答</b>
                        </div>","","","","","","","","","","","","","","","","","","",""
"444","null","sub_response","html-keyboard-response","155","413195","0.0-1.0-7.0-3.0-2.25","18:00:22","3","","","","","","","<div style='text-align: center;'>
                            <span style=""color: green; font-size: 40px""><b>正确！+1 pts</b></span></div>
                            ","","learn","1","1","1","learn","0","0","[0, 1, 2]","25","8","setsize","3S3A","animals","1","24","0","1",""
"null","null","fixation","html-keyboard-response","156","413696","0.0-1.0-7.0-3.0-0.26","18:00:22","3","","","","","","","fixation","","","","","","","","","","","","","","","","","","",""
"642","1","pic_response","html-keyboard-response","157","414338","0.0-1.0-7.0-3.0-1.26","18:00:22","3","","","","","","","<div>
            <img class='stim' src=""pictures/animals/0.jpg""></div><div class=""button_prompt"">
                        <b>请用数字键1-3回答</b>
                        </div>","","","","","","","","","","","","","","","","","","",""
"642","null","sub_response","html-keyboard-response","158","415340","0.0-1.0-7.0-3.0-2.26","18:00:22","3","","","","","","","<div style='text-align: center;'>
                            <span style=""color: green; font-size: 40px""><b>正确！+1 pts</b></span></div>
                            ","","learn","0","0","0","learn","0","0","[0, 1, 2]","26","8","setsize","3S3A","animals","1","25","0","1",""
"null","null","fixation","html-keyboard-response","159","415841","0.0-1.0-7.0-3.0-0.27","18:00:22","3","","","","","","","fixation","","","","","","","","","","","","","","","","","","",""
"609","1","pic_response","html-keyboard-response","160","416451","0.0-1.0-7.0-3.0-1.27","18:00:22","3","","","","","","","<div>
            <img class='stim' src=""pictures/animals/0.jpg""></div><div class=""button_prompt"">
                        <b>请用数字键1-3回答</b>
                        </div>","","","","","","","","","","","","","","","","","","",""
"609","null","sub_response","html-keyboard-response","161","417451","0.0-1.0-7.0-3.0-2.27","18:00:22","3","","","","","","","<div style='text-align: center;'>
                            <span style=""color: green; font-size: 40px""><b>正确！+1 pts</b></span></div>
                            ","","learn","0","0","0","learn","0","0","[0, 1, 2]","27","9","setsize","3S3A","animals","1","26","0","1",""
"null","null","fixation","html-keyboard-response","162","417953","0.0-1.0-7.0-3.0-0.28","18:00:22","3","","","","","","","fixation","","","","","","","","","","","","","","","","","","",""
"577","1","pic_response","html-keyboard-response","163","418530","0.0-1.0-7.0-3.0-1.28","18:00:22","3","","","","","","","<div>
            <img class='stim' src=""pictures/animals/1.jpg""></div><div class=""button_prompt"">
                        <b>请用数字键1-3回答</b>
                        </div>","","","","","","","","","","","","","","","","","","",""
"577","null","sub_response","html-keyboard-response","164","419532","0.0-1.0-7.0-3.0-2.28","18:00:22","3","","","","","","","<div style='text-align: center;'>
                            <span style=""color: green; font-size: 40px""><b>正确！+1 pts</b></span></div>
                            ","","learn","1","1","1","learn","0","0","[0, 1, 2]","28","9","setsize","3S3A","animals","1","27","0","1",""
"null","null","fixation","html-keyboard-response","165","420033","0.0-1.0-7.0-3.0-0.29","18:00:22","3","","","","","","","fixation","","","","","","","","","","","","","","","","","","",""
"651","3","pic_response","html-keyboard-response","166","420685","0.0-1.0-7.0-3.0-1.29","18:00:22","3","","","","","","","<div>
            <img class='stim' src=""pictures/animals/2.jpg""></div><div class=""button_prompt"">
                        <b>请用数字键1-3回答</b>
                        </div>","","","","","","","","","","","","","","","","","","",""
"651","null","sub_response","html-keyboard-response","167","421687","0.0-1.0-7.0-3.0-2.29","18:00:22","3","","","","","","","<div style='text-align: center;'>
                            <span style=""color: green; font-size: 40px""><b>正确！+1 pts</b></span></div>
                            ","","learn","2","2","2","learn","2","2","[0, 1, 2]","29","9","setsize","3S3A","animals","1","28","2","1",""
"null","null","fixation","html-keyboard-response","168","422188","0.0-1.0-7.0-3.0-0.30","18:00:22","3","","","","","","","fixation","","","","","","","","","","","","","","","","","","",""
"465","3","pic_response","html-keyboard-response","169","422653","0.0-1.0-7.0-3.0-1.30","18:00:22","3","","","","","","","<div>
            <img class='stim' src=""pictures/animals/2.jpg""></div><div class=""button_prompt"">
                        <b>请用数字键1-3回答</b>
                        </div>","","","","","","","","","","","","","","","","","","",""
"465","null","sub_response","html-keyboard-response","170","423654","0.0-1.0-7.0-3.0-2.30","18:00:22","3","","","","","","","<div style='text-align: center;'>
                            <span style=""color: green; font-size: 40px""><b>正确！+1 pts</b></span></div>
                            ","","learn","2","2","2","learn","2","2","[0, 1, 2]","30","10","setsize","3S3A","animals","1","29","2","1",""
"null","null","fixation","html-keyboard-response","171","424155","0.0-1.0-7.0-3.0-0.31","18:00:22","3","","","","","","","fixation","","","","","","","","","","","","","","","","","","",""
"601","1","pic_response","html-keyboard-response","172","424756","0.0-1.0-7.0-3.0-1.31","18:00:22","3","","","","","","","<div>
            <img class='stim' src=""pictures/animals/1.jpg""></div><div class=""button_prompt"">
                        <b>请用数字键1-3回答</b>
                        </div>","","","","","","","","","","","","","","","","","","",""
"601","null","sub_response","html-keyboard-response","173","425758","0.0-1.0-7.0-3.0-2.31","18:00:22","3","","","","","","","<div style='text-align: center;'>
                            <span style=""color: green; font-size: 40px""><b>正确！+1 pts</b></span></div>
                            ","","learn","1","1","1","learn","0","0","[0, 1, 2]","31","10","setsize","3S3A","animals","1","30","0","1",""
"null","null","fixation","html-keyboard-response","174","426259","0.0-1.0-7.0-3.0-0.32","18:00:22","3","","","","","","","fixation","","","","","","","","","","","","","","","","","","",""
"534","1","pic_response","html-keyboard-response","175","426794","0.0-1.0-7.0-3.0-1.32","18:00:22","3","","","","","","","<div>
            <img class='stim' src=""pictures/animals/0.jpg""></div><div class=""button_prompt"">
                        <b>请用数字键1-3回答</b>
                        </div>","","","","","","","","","","","","","","","","","","",""
"534","null","sub_response","html-keyboard-response","176","427795","0.0-1.0-7.0-3.0-2.32","18:00:22","3","","","","","","","<div style='text-align: center;'>
                            <span style=""color: green; font-size: 40px""><b>正确！+1 pts</b></span></div>
                            ","","learn","0","0","0","learn","0","0","[0, 1, 2]","32","10","setsize","3S3A","animals","1","31","0","1",""
"null","null","fixation","html-keyboard-response","177","428296","0.0-1.0-7.0-3.0-0.33","18:00:22","3","","","","","","","fixation","","","","","","","","","","","","","","","","","","",""
"726","1","pic_response","html-keyboard-response","178","429023","0.0-1.0-7.0-3.0-1.33","18:00:22","3","","","","","","","<div>
            <img class='stim' src=""pictures/animals/1.jpg""></div><div class=""button_prompt"">
                        <b>请用数字键1-3回答</b>
                        </div>","","","","","","","","","","","","","","","","","","",""
"726","null","sub_response","html-keyboard-response","179","430024","0.0-1.0-7.0-3.0-2.33","18:00:22","3","","","","","","","<div style='text-align: center;'>
                            <span style=""color: green; font-size: 40px""><b>正确！+1 pts</b></span></div>
                            ","","learn","1","1","1","learn","0","0","[0, 1, 2]","33","11","setsize","3S3A","animals","1","32","0","1",""
"null","null","fixation","html-keyboard-response","180","430526","0.0-1.0-7.0-3.0-0.34","18:00:22","3","","","","","","","fixation","","","","","","","","","","","","","","","","","","",""
"414","3","pic_response","html-keyboard-response","181","430940","0.0-1.0-7.0-3.0-1.34","18:00:22","3","","","","","","","<div>
            <img class='stim' src=""pictures/animals/2.jpg""></div><div class=""button_prompt"">
                        <b>请用数字键1-3回答</b>
                        </div>","","","","","","","","","","","","","","","","","","",""
"414","null","sub_response","html-keyboard-response","182","431944","0.0-1.0-7.0-3.0-2.34","18:00:22","3","","","","","","","<div style='text-align: center;'>
                            <span style=""color: green; font-size: 40px""><b>正确！+1 pts</b></span></div>
                            ","","learn","2","2","2","learn","2","2","[0, 1, 2]","34","11","setsize","3S3A","animals","1","33","2","1",""
"null","null","fixation","html-keyboard-response","183","432446","0.0-1.0-7.0-3.0-0.35","18:00:22","3","","","","","","","fixation","","","","","","","","","","","","","","","","","","",""
"587","1","pic_response","html-keyboard-response","184","433034","0.0-1.0-7.0-3.0-1.35","18:00:22","3","","","","","","","<div>
            <img class='stim' src=""pictures/animals/0.jpg""></div><div class=""button_prompt"">
                        <b>请用数字键1-3回答</b>
                        </div>","","","","","","","","","","","","","","","","","","",""
"587","null","sub_response","html-keyboard-response","185","434035","0.0-1.0-7.0-3.0-2.35","18:00:22","3","","","","","","","<div style='text-align: center;'>
                            <span style=""color: green; font-size: 40px""><b>正确！+1 pts</b></span></div>
                            ","","learn","0","0","0","learn","0","0","[0, 1, 2]","35","11","setsize","3S3A","animals","1","34","0","1",""
"null","null","fixation","html-keyboard-response","186","434537","0.0-1.0-7.0-3.0-0.36","18:00:22","3","","","","","","","fixation","","","","","","","","","","","","","","","","","","",""
"656","1","pic_response","html-keyboard-response","187","435193","0.0-1.0-7.0-3.0-1.36","18:00:22","3","","","","","","","<div>
            <img class='stim' src=""pictures/animals/1.jpg""></div><div class=""button_prompt"">
                        <b>请用数字键1-3回答</b>
                        </div>","","","","","","","","","","","","","","","","","","",""
"656","null","sub_response","html-keyboard-response","188","436194","0.0-1.0-7.0-3.0-2.36","18:00:22","3","","","","","","","<div style='text-align: center;'>
                            <span style=""color: green; font-size: 40px""><b>正确！+1 pts</b></span></div>
                            ","","learn","1","1","1","learn","0","0","[0, 1, 2]","36","12","setsize","3S3A","animals","1","35","0","1",""
"null","null","fixation","html-keyboard-response","189","436695","0.0-1.0-7.0-3.0-0.37","18:00:22","3","","","","","","","fixation","","","","","","","","","","","","","","","","","","",""
"571","3","pic_response","html-keyboard-response","190","437266","0.0-1.0-7.0-3.0-1.37","18:00:22","3","","","","","","","<div>
            <img class='stim' src=""pictures/animals/2.jpg""></div><div class=""button_prompt"">
                        <b>请用数字键1-3回答</b>
                        </div>","","","","","","","","","","","","","","","","","","",""
"571","null","sub_response","html-keyboard-response","191","438268","0.0-1.0-7.0-3.0-2.37","18:00:22","3","","","","","","","<div style='text-align: center;'>
                            <span style=""color: green; font-size: 40px""><b>正确！+1 pts</b></span></div>
                            ","","learn","2","2","2","learn","2","2","[0, 1, 2]","37","12","setsize","3S3A","animals","1","36","2","1",""
"null","null","fixation","html-keyboard-response","192","438770","0.0-1.0-7.0-3.0-0.38","18:00:22","3","","","","","","","fixation","","","","","","","","","","","","","","","","","","",""
"581","1","pic_response","html-keyboard-response","193","439351","0.0-1.0-7.0-3.0-1.38","18:00:22","3","","","","","","","<div>
            <img class='stim' src=""pictures/animals/0.jpg""></div><div class=""button_prompt"">
                        <b>请用数字键1-3回答</b>
                        </div>","","","","","","","","","","","","","","","","","","",""
"581","null","sub_response","html-keyboard-response","194","440352","0.0-1.0-7.0-3.0-2.38","18:00:22","3","","","","","","","<div style='text-align: center;'>
                            <span style=""color: green; font-size: 40px""><b>正确！+1 pts</b></span></div>
                            ","","learn","0","0","0","learn","0","0","[0, 1, 2]","38","12","setsize","3S3A","animals","1","37","0","1",""
"null","null","fixation","html-keyboard-response","195","440854","0.0-1.0-7.0-3.0-0.39","18:00:22","3","","","","","","","fixation","","","","","","","","","","","","","","","","","","",""
"410","1","pic_response","html-keyboard-response","196","441265","0.0-1.0-7.0-3.0-1.39","18:00:22","3","","","","","","","<div>
            <img class='stim' src=""pictures/animals/0.jpg""></div><div class=""button_prompt"">
                        <b>请用数字键1-3回答</b>
                        </div>","","","","","","","","","","","","","","","","","","",""
"410","null","sub_response","html-keyboard-response","197","442266","0.0-1.0-7.0-3.0-2.39","18:00:22","3","","","","","","","<div style='text-align: center;'>
                            <span style=""color: green; font-size: 40px""><b>正确！+1 pts</b></span></div>
                            ","","learn","0","0","0","learn","0","0","[0, 1, 2]","39","13","setsize","3S3A","animals","1","38","0","1",""
"null","null","fixation","html-keyboard-response","198","442767","0.0-1.0-7.0-3.0-0.40","18:00:22","3","","","","","","","fixation","","","","","","","","","","","","","","","","","","",""
"355","3","pic_response","html-keyboard-response","199","443122","0.0-1.0-7.0-3.0-1.40","18:00:22","3","","","","","","","<div>
            <img class='stim' src=""pictures/animals/2.jpg""></div><div class=""button_prompt"">
                        <b>请用数字键1-3回答</b>
                        </div>","","","","","","","","","","","","","","","","","","",""
"355","null","sub_response","html-keyboard-response","200","444124","0.0-1.0-7.0-3.0-2.40","18:00:22","3","","","","","","","<div style='text-align: center;'>
                            <span style=""color: green; font-size: 40px""><b>正确！+1 pts</b></span></div>
                            ","","learn","2","2","2","learn","2","2","[0, 1, 2]","40","13","setsize","3S3A","animals","1","39","2","1",""
"null","null","fixation","html-keyboard-response","201","444624","0.0-1.0-7.0-3.0-0.41","18:00:22","3","","","","","","","fixation","","","","","","","","","","","","","","","","","","",""
"505","1","pic_response","html-keyboard-response","202","445130","0.0-1.0-7.0-3.0-1.41","18:00:22","3","","","","","","","<div>
            <img class='stim' src=""pictures/animals/1.jpg""></div><div class=""button_prompt"">
                        <b>请用数字键1-3回答</b>
                        </div>","","","","","","","","","","","","","","","","","","",""
"505","null","sub_response","html-keyboard-response","203","446136","0.0-1.0-7.0-3.0-2.41","18:00:22","3","","","","","","","<div style='text-align: center;'>
                            <span style=""color: green; font-size: 40px""><b>正确！+1 pts</b></span></div>
                            ","","learn","1","1","1","learn","0","0","[0, 1, 2]","41","13","setsize","3S3A","animals","1","40","0","1",""
"null","null","fixation","html-keyboard-response","204","446636","0.0-1.0-7.0-3.0-0.42","18:00:22","3","","","","","","","fixation","","","","","","","","","","","","","","","","","","",""
"538","1","pic_response","html-keyboard-response","205","447175","0.0-1.0-7.0-3.0-1.42","18:00:22","3","","","","","","","<div>
            <img class='stim' src=""pictures/animals/1.jpg""></div><div class=""button_prompt"">
                        <b>请用数字键1-3回答</b>
                        </div>","","","","","","","","","","","","","","","","","","",""
"538","null","sub_response","html-keyboard-response","206","448177","0.0-1.0-7.0-3.0-2.42","18:00:22","3","","","","","","","<div style='text-align: center;'>
                            <span style=""color: green; font-size: 40px""><b>正确！+1 pts</b></span></div>
                            ","","learn","1","1","1","learn","0","0","[0, 1, 2]","42","14","setsize","3S3A","animals","1","41","0","1",""
"null","null","fixation","html-keyboard-response","207","448677","0.0-1.0-7.0-3.0-0.43","18:00:22","3","","","","","","","fixation","","","","","","","","","","","","","","","","","","",""
"520","3","pic_response","html-keyboard-response","208","449198","0.0-1.0-7.0-3.0-1.43","18:00:22","3","","","","","","","<div>
            <img class='stim' src=""pictures/animals/2.jpg""></div><div class=""button_prompt"">
                        <b>请用数字键1-3回答</b>
                        </div>","","","","","","","","","","","","","","","","","","",""
"520","null","sub_response","html-keyboard-response","209","450199","0.0-1.0-7.0-3.0-2.43","18:00:22","3","","","","","","","<div style='text-align: center;'>
                            <span style=""color: green; font-size: 40px""><b>正确！+1 pts</b></span></div>
                            ","","learn","2","2","2","learn","2","2","[0, 1, 2]","43","14","setsize","3S3A","animals","1","42","2","1",""
"null","null","fixation","html-keyboard-response","210","450701","0.0-1.0-7.0-3.0-0.44","18:00:22","3","","","","","","","fixation","","","","","","","","","","","","","","","","","","",""
"671","1","pic_response","html-keyboard-response","211","451372","0.0-1.0-7.0-3.0-1.44","18:00:22","3","","","","","","","<div>
            <img class='stim' src=""pictures/animals/0.jpg""></div><div class=""button_prompt"">
                        <b>请用数字键1-3回答</b>
                        </div>","","","","","","","","","","","","","","","","","","",""
"671","null","sub_response","html-keyboard-response","212","452374","0.0-1.0-7.0-3.0-2.44","18:00:22","3","","","","","","","<div style='text-align: center;'>
                            <span style=""color: green; font-size: 40px""><b>正确！+1 pts</b></span></div>
                            ","","learn","0","0","0","learn","0","0","[0, 1, 2]","44","14","setsize","3S3A","animals","1","43","0","1",""
"null","null","fixation","html-keyboard-response","213","452875","0.0-1.0-7.0-3.0-0.45","18:00:22","3","","","","","","","fixation","","","","","","","","","","","","","","","","","","",""
"504","3","pic_response","html-keyboard-response","214","453380","0.0-1.0-7.0-3.0-1.45","18:00:22","3","","","","","","","<div>
            <img class='stim' src=""pictures/animals/2.jpg""></div><div class=""button_prompt"">
                        <b>请用数字键1-3回答</b>
                        </div>","","","","","","","","","","","","","","","","","","",""
"504","null","sub_response","html-keyboard-response","215","454382","0.0-1.0-7.0-3.0-2.45","18:00:22","3","","","","","","","<div style='text-align: center;'>
                            <span style=""color: green; font-size: 40px""><b>正确！+1 pts</b></span></div>
                            ","","learn","2","2","2","learn","2","2","[0, 1, 2]","45","15","setsize","3S3A","animals","1","44","2","1",""
"3889"," ","","html-keyboard-response","216","458272","0.0-1.0-8.0","18:00:22","3","","","","","","","<div style=""font-size: 25px""><p>距下一个实验开始还有</p><div style=""font-size: 50px; color: blue""><p><span id=""clock"">1:00</span></div></p><p>按""空格""跳过休息</p></div>","","","","","","","","","","","","","","","","","","",""
"","","","preload","217","458453","0.0-1.0-9.0-0.0","18:00:22","3","true","false","[]","[]","[]","","","","","","","","","","","","","","","","","","","","",""
"1458"," ","","html-keyboard-response","218","459912","0.0-1.0-9.0-1.0","18:00:22","3","","","","","","","<div style='font-size: 32px; text-align: center;'
                    <p>请学习图片和数字之间的对应关系</p>
                    <p>我们将<span style='color: blue'><b> 告诉 </b></span>您选择的对错。请根据反馈学习。</p>
                    <p>请按""空格""继续实验。</p></div>","","","","","","","","","","","","","","","","","","",""
"4863"," ","inst","html-keyboard-response","219","464776","0.0-1.0-9.0-2.0","18:00:22","3","","","","","","","<img class='instruct_stim' src=""instruction/furniture10.PNG""></div>","","","","","","","","","","","","","","","","","","",""
"null","null","fixation","html-keyboard-response","220","465291","0.0-1.0-9.0-3.0-0.0","18:00:22","3","","","","","","","fixation","","","","","","","","","","","","","","","","","","",""
"1569","1","pic_response","html-keyboard-response","221","466861","0.0-1.0-9.0-3.0-1.0","18:00:22","3","","","","","","","<div>
            <img class='stim' src=""pictures/furniture/4.jpg""></div><div class=""button_prompt"">
                    <b>请用数字键0-9回答</b>
                    </div>","","","","","","","","","","","","","","","","","","",""
"1569","null","sub_response","html-keyboard-response","222","467863","0.0-1.0-9.0-3.0-2.0","18:00:22","3","","","","","","","<div style='text-align: center;'>
                            <span style=""color: red; font-size: 40px""><b>错误！+0 pts</b></span></div>
                            ","","learn","4","4","4","learn","4","4","[0, 1, 2, 3, 4, 5, 6, 7, 8, 9]","0","0","setsize","10S10A","furniture","2","0","0","0",""
"null","null","fixation","html-keyboard-response","223","468363","0.0-1.0-9.0-3.0-0.1","18:00:22","3","","","","","","","fixation","","","","","","","","","","","","","","","","","","",""
"null","null","pic_response","html-keyboard-response","224","471365","0.0-1.0-9.0-3.0-1.1","18:00:22","3","","","","","","","<div>
            <img class='stim' src=""pictures/furniture/0.jpg""></div><div class=""button_prompt"">
                    <b>请用数字键0-9回答</b>
                    </div>","","","","","","","","","","","","","","","","","","",""
"null","null","sub_response","html-keyboard-response","225","472366","0.0-1.0-9.0-3.0-2.1","18:00:22","3","","","","","","","<div style='text-align: center;'>
                            <span style=""color: red; font-size: 40px""><b>错误！+0 pts</b></span></div>
                            ","","learn","0","0","0","learn","0","0","[0, 1, 2, 3, 4, 5, 6, 7, 8, 9]","1","0","setsize","10S10A","furniture","2","0","999","0",""
"null","null","fixation","html-keyboard-response","226","472868","0.0-1.0-9.0-3.0-0.2","18:00:22","3","","","","","","","fixation","","","","","","","","","","","","","","","","","","",""
"972","1","pic_response","html-keyboard-response","227","473841","0.0-1.0-9.0-3.0-1.2","18:00:22","3","","","","","","","<div>
            <img class='stim' src=""pictures/furniture/3.jpg""></div><div class=""button_prompt"">
                    <b>请用数字键0-9回答</b>
                    </div>","","","","","","","","","","","","","","","","","","",""
"972","null","sub_response","html-keyboard-response","228","474842","0.0-1.0-9.0-3.0-2.2","18:00:22","3","","","","","","","<div style='text-align: center;'>
                            <span style=""color: red; font-size: 40px""><b>错误！+0 pts</b></span></div>
                            ","","learn","3","3","3","learn","3","3","[0, 1, 2, 3, 4, 5, 6, 7, 8, 9]","2","0","setsize","10S10A","furniture","2","0","0","0",""
"null","null","fixation","html-keyboard-response","229","475342","0.0-1.0-9.0-3.0-0.3","18:00:22","3","","","","","","","fixation","","","","","","","","","","","","","","","","","","",""
"2861","2","pic_response","html-keyboard-response","230","478204","0.0-1.0-9.0-3.0-1.3","18:00:22","3","","","","","","","<div>
            <img class='stim' src=""pictures/furniture/5.jpg""></div><div class=""button_prompt"">
                    <b>请用数字键0-9回答</b>
                    </div>","","","","","","","","","","","","","","","","","","",""
"2861","null","sub_response","html-keyboard-response","231","479205","0.0-1.0-9.0-3.0-2.3","18:00:22","3","","","","","","","<div style='text-align: center;'>
                            <span style=""color: red; font-size: 40px""><b>错误！+0 pts</b></span></div>
                            ","","learn","5","5","5","learn","5","5","[0, 1, 2, 3, 4, 5, 6, 7, 8, 9]","3","0","setsize","10S10A","furniture","2","0","1","0",""
"null","null","fixation","html-keyboard-response","232","479707","0.0-1.0-9.0-3.0-0.4","18:00:22","3","","","","","","","fixation","","","","","","","","","","","","","","","","","","",""
"1912","3","pic_response","html-keyboard-response","233","481620","0.0-1.0-9.0-3.0-1.4","18:00:22","3","","","","","","","<div>
            <img class='stim' src=""pictures/furniture/1.jpg""></div><div class=""button_prompt"">
                    <b>请用数字键0-9回答</b>
                    </div>","","","","","","","","","","","","","","","","","","",""
"1912","null","sub_response","html-keyboard-response","234","482621","0.0-1.0-9.0-3.0-2.4","18:00:22","3","","","","","","","<div style='text-align: center;'>
                            <span style=""color: red; font-size: 40px""><b>错误！+0 pts</b></span></div>
                            ","","learn","1","1","1","learn","1","1","[0, 1, 2, 3, 4, 5, 6, 7, 8, 9]","4","0","setsize","10S10A","furniture","2","0","2","0",""
"null","null","fixation","html-keyboard-response","235","483121","0.0-1.0-9.0-3.0-0.5","18:00:22","3","","","","","","","fixation","","","","","","","","","","","","","","","","","","",""
"830","4","pic_response","html-keyboard-response","236","483952","0.0-1.0-9.0-3.0-1.5","18:00:22","3","","","","","","","<div>
            <img class='stim' src=""pictures/furniture/2.jpg""></div><div class=""button_prompt"">
                    <b>请用数字键0-9回答</b>
                    </div>","","","","","","","","","","","","","","","","","","",""
"830","null","sub_response","html-keyboard-response","237","484953","0.0-1.0-9.0-3.0-2.5","18:00:22","3","","","","","","","<div style='text-align: center;'>
                            <span style=""color: red; font-size: 40px""><b>错误！+0 pts</b></span></div>
                            ","","learn","2","2","2","learn","2","2","[0, 1, 2, 3, 4, 5, 6, 7, 8, 9]","5","0","setsize","10S10A","furniture","2","0","3","0",""
"null","null","fixation","html-keyboard-response","238","485454","0.0-1.0-9.0-3.0-0.6","18:00:22","3","","","","","","","fixation","","","","","","","","","","","","","","","","","","",""
"637","1","pic_response","html-keyboard-response","239","486092","0.0-1.0-9.0-3.0-1.6","18:00:22","3","","","","","","","<div>
            <img class='stim' src=""pictures/furniture/8.jpg""></div><div class=""button_prompt"">
                    <b>请用数字键0-9回答</b>
                    </div>","","","","","","","","","","","","","","","","","","",""
"637","null","sub_response","html-keyboard-response","240","487094","0.0-1.0-9.0-3.0-2.6","18:00:22","3","","","","","","","<div style='text-align: center;'>
                            <span style=""color: red; font-size: 40px""><b>错误！+0 pts</b></span></div>
                            ","","learn","8","8","8","learn","8","8","[0, 1, 2, 3, 4, 5, 6, 7, 8, 9]","6","0","setsize","10S10A","furniture","2","0","0","0",""
"null","null","fixation","html-keyboard-response","241","487595","0.0-1.0-9.0-3.0-0.7","18:00:22","3","","","","","","","fixation","","","","","","","","","","","","","","","","","","",""
"453","5","pic_response","html-keyboard-response","242","488048","0.0-1.0-9.0-3.0-1.7","18:00:22","3","","","","","","","<div>
            <img class='stim' src=""pictures/furniture/6.jpg""></div><div class=""button_prompt"">
                    <b>请用数字键0-9回答</b>
                    </div>","","","","","","","","","","","","","","","","","","",""
"453","null","sub_response","html-keyboard-response","243","489049","0.0-1.0-9.0-3.0-2.7","18:00:22","3","","","","","","","<div style='text-align: center;'>
                            <span style=""color: red; font-size: 40px""><b>错误！+0 pts</b></span></div>
                            ","","learn","6","6","6","learn","6","6","[0, 1, 2, 3, 4, 5, 6, 7, 8, 9]","7","0","setsize","10S10A","furniture","2","0","4","0",""
"null","null","fixation","html-keyboard-response","244","489551","0.0-1.0-9.0-3.0-0.8","18:00:22","3","","","","","","","fixation","","","","","","","","","","","","","","","","","","",""
"1670","6","pic_response","html-keyboard-response","245","491221","0.0-1.0-9.0-3.0-1.8","18:00:22","3","","","","","","","<div>
            <img class='stim' src=""pictures/furniture/9.jpg""></div><div class=""button_prompt"">
                    <b>请用数字键0-9回答</b>
                    </div>","","","","","","","","","","","","","","","","","","",""
"1670","null","sub_response","html-keyboard-response","246","492223","0.0-1.0-9.0-3.0-2.8","18:00:22","3","","","","","","","<div style='text-align: center;'>
                            <span style=""color: red; font-size: 40px""><b>错误！+0 pts</b></span></div>
                            ","","learn","9","9","9","learn","9","9","[0, 1, 2, 3, 4, 5, 6, 7, 8, 9]","8","0","setsize","10S10A","furniture","2","0","5","0",""
"null","null","fixation","html-keyboard-response","247","492725","0.0-1.0-9.0-3.0-0.9","18:00:22","3","","","","","","","fixation","","","","","","","","","","","","","","","","","","",""
"941","7","pic_response","html-keyboard-response","248","493666","0.0-1.0-9.0-3.0-1.9","18:00:22","3","","","","","","","<div>
            <img class='stim' src=""pictures/furniture/7.jpg""></div><div class=""button_prompt"">
                    <b>请用数字键0-9回答</b>
                    </div>","","","","","","","","","","","","","","","","","","",""
"941","null","sub_response","html-keyboard-response","249","494667","0.0-1.0-9.0-3.0-2.9","18:00:22","3","","","","","","","<div style='text-align: center;'>
                            <span style=""color: red; font-size: 40px""><b>错误！+0 pts</b></span></div>
                            ","","learn","7","7","7","learn","7","7","[0, 1, 2, 3, 4, 5, 6, 7, 8, 9]","9","0","setsize","10S10A","furniture","2","0","6","0",""
"null","null","fixation","html-keyboard-response","250","495169","0.0-1.0-9.0-3.0-0.10","18:00:22","3","","","","","","","fixation","","","","","","","","","","","","","","","","","","",""
"1392","3","pic_response","html-keyboard-response","251","496562","0.0-1.0-9.0-3.0-1.10","18:00:22","3","","","","","","","<div>
            <img class='stim' src=""pictures/furniture/4.jpg""></div><div class=""button_prompt"">
                    <b>请用数字键0-9回答</b>
                    </div>","","","","","","","","","","","","","","","","","","",""
"1392","null","sub_response","html-keyboard-response","252","497563","0.0-1.0-9.0-3.0-2.10","18:00:22","3","","","","","","","<div style='text-align: center;'>
                            <span style=""color: red; font-size: 40px""><b>错误！+0 pts</b></span></div>
                            ","","learn","4","4","4","learn","4","4","[0, 1, 2, 3, 4, 5, 6, 7, 8, 9]","10","1","setsize","10S10A","furniture","2","0","2","0",""
"null","null","fixation","html-keyboard-response","253","498065","0.0-1.0-9.0-3.0-0.11","18:00:22","3","","","","","","","fixation","","","","","","","","","","","","","","","","","","",""
"963","2","pic_response","html-keyboard-response","254","499028","0.0-1.0-9.0-3.0-1.11","18:00:22","3","","","","","","","<div>
            <img class='stim' src=""pictures/furniture/7.jpg""></div><div class=""button_prompt"">
                    <b>请用数字键0-9回答</b>
                    </div>","","","","","","","","","","","","","","","","","","",""
"963","null","sub_response","html-keyboard-response","255","500029","0.0-1.0-9.0-3.0-2.11","18:00:22","3","","","","","","","<div style='text-align: center;'>
                            <span style=""color: red; font-size: 40px""><b>错误！+0 pts</b></span></div>
                            ","","learn","7","7","7","learn","7","7","[0, 1, 2, 3, 4, 5, 6, 7, 8, 9]","11","1","setsize","10S10A","furniture","2","0","1","0",""
"null","null","fixation","html-keyboard-response","256","500537","0.0-1.0-9.0-3.0-0.12","18:00:22","3","","","","","","","fixation","","","","","","","","","","","","","","","","","","",""
"599","4","pic_response","html-keyboard-response","257","501136","0.0-1.0-9.0-3.0-1.12","18:00:22","3","","","","","","","<div>
            <img class='stim' src=""pictures/furniture/0.jpg""></div><div class=""button_prompt"">
                    <b>请用数字键0-9回答</b>
                    </div>","","","","","","","","","","","","","","","","","","",""
"599","null","sub_response","html-keyboard-response","258","502138","0.0-1.0-9.0-3.0-2.12","18:00:22","3","","","","","","","<div style='text-align: center;'>
                            <span style=""color: red; font-size: 40px""><b>错误！+0 pts</b></span></div>
                            ","","learn","0","0","0","learn","0","0","[0, 1, 2, 3, 4, 5, 6, 7, 8, 9]","12","1","setsize","10S10A","furniture","2","0","3","0",""
"null","null","fixation","html-keyboard-response","259","502640","0.0-1.0-9.0-3.0-0.13","18:00:22","3","","","","","","","fixation","","","","","","","","","","","","","","","","","","",""
"746","8","pic_response","html-keyboard-response","260","503386","0.0-1.0-9.0-3.0-1.13","18:00:22","3","","","","","","","<div>
            <img class='stim' src=""pictures/furniture/3.jpg""></div><div class=""button_prompt"">
                    <b>请用数字键0-9回答</b>
                    </div>","","","","","","","","","","","","","","","","","","",""
"746","null","sub_response","html-keyboard-response","261","504388","0.0-1.0-9.0-3.0-2.13","18:00:22","3","","","","","","","<div style='text-align: center;'>
                            <span style=""color: red; font-size: 40px""><b>错误！+0 pts</b></span></div>
                            ","","learn","3","3","3","learn","3","3","[0, 1, 2, 3, 4, 5, 6, 7, 8, 9]","13","1","setsize","10S10A","furniture","2","0","7","0",""
"null","null","fixation","html-keyboard-response","262","504889","0.0-1.0-9.0-3.0-0.14","18:00:22","3","","","","","","","fixation","","","","","","","","","","","","","","","","","","",""
"362","9","pic_response","html-keyboard-response","263","505251","0.0-1.0-9.0-3.0-1.14","18:00:22","3","","","","","","","<div>
            <img class='stim' src=""pictures/furniture/9.jpg""></div><div class=""button_prompt"">
                    <b>请用数字键0-9回答</b>
                    </div>","","","","","","","","","","","","","","","","","","",""
"362","null","sub_response","html-keyboard-response","264","506253","0.0-1.0-9.0-3.0-2.14","18:00:22","3","","","","","","","<div style='text-align: center;'>
                            <span style=""color: red; font-size: 40px""><b>错误！+0 pts</b></span></div>
                            ","","learn","9","9","9","learn","9","9","[0, 1, 2, 3, 4, 5, 6, 7, 8, 9]","14","1","setsize","10S10A","furniture","2","0","8","0",""
"null","null","fixation","html-keyboard-response","265","506754","0.0-1.0-9.0-3.0-0.15","18:00:22","3","","","","","","","fixation","","","","","","","","","","","","","","","","","","",""
"993","7","pic_response","html-keyboard-response","266","507748","0.0-1.0-9.0-3.0-1.15","18:00:22","3","","","","","","","<div>
            <img class='stim' src=""pictures/furniture/8.jpg""></div><div class=""button_prompt"">
                    <b>请用数字键0-9回答</b>
                    </div>","","","","","","","","","","","","","","","","","","",""
"993","null","sub_response","html-keyboard-response","267","508751","0.0-1.0-9.0-3.0-2.15","18:00:22","3","","","","","","","<div style='text-align: center;'>
                            <span style=""color: red; font-size: 40px""><b>错误！+0 pts</b></span></div>
                            ","","learn","8","8","8","learn","8","8","[0, 1, 2, 3, 4, 5, 6, 7, 8, 9]","15","1","setsize","10S10A","furniture","2","0","6","0",""
"null","null","fixation","html-keyboard-response","268","509252","0.0-1.0-9.0-3.0-0.16","18:00:22","3","","","","","","","fixation","","","","","","","","","","","","","","","","","","",""
"524","6","pic_response","html-keyboard-response","269","509776","0.0-1.0-9.0-3.0-1.16","18:00:22","3","","","","","","","<div>
            <img class='stim' src=""pictures/furniture/6.jpg""></div><div class=""button_prompt"">
                    <b>请用数字键0-9回答</b>
                    </div>","","","","","","","","","","","","","","","","","","",""
"524","null","sub_response","html-keyboard-response","270","510778","0.0-1.0-9.0-3.0-2.16","18:00:22","3","","","","","","","<div style='text-align: center;'>
                            <span style=""color: red; font-size: 40px""><b>错误！+0 pts</b></span></div>
                            ","","learn","6","6","6","learn","6","6","[0, 1, 2, 3, 4, 5, 6, 7, 8, 9]","16","1","setsize","10S10A","furniture","2","0","5","0",""
"null","null","fixation","html-keyboard-response","271","511278","0.0-1.0-9.0-3.0-0.17","18:00:22","3","","","","","","","fixation","","","","","","","","","","","","","","","","","","",""
"972","4","pic_response","html-keyboard-response","272","512251","0.0-1.0-9.0-3.0-1.17","18:00:22","3","","","","","","","<div>
            <img class='stim' src=""pictures/furniture/1.jpg""></div><div class=""button_prompt"">
                    <b>请用数字键0-9回答</b>
                    </div>","","","","","","","","","","","","","","","","","","",""
"972","null","sub_response","html-keyboard-response","273","513252","0.0-1.0-9.0-3.0-2.17","18:00:22","3","","","","","","","<div style='text-align: center;'>
                            <span style=""color: red; font-size: 40px""><b>错误！+0 pts</b></span></div>
                            ","","learn","1","1","1","learn","1","1","[0, 1, 2, 3, 4, 5, 6, 7, 8, 9]","17","1","setsize","10S10A","furniture","2","0","3","0",""
"null","null","fixation","html-keyboard-response","274","513753","0.0-1.0-9.0-3.0-0.18","18:00:22","3","","","","","","","fixation","","","","","","","","","","","","","","","","","","",""
"540","1","pic_response","html-keyboard-response","275","514293","0.0-1.0-9.0-3.0-1.18","18:00:22","3","","","","","","","<div>
            <img class='stim' src=""pictures/furniture/2.jpg""></div><div class=""button_prompt"">
                    <b>请用数字键0-9回答</b>
                    </div>","","","","","","","","","","","","","","","","","","",""
"540","null","sub_response","html-keyboard-response","276","515294","0.0-1.0-9.0-3.0-2.18","18:00:22","3","","","","","","","<div style='text-align: center;'>
                            <span style=""color: red; font-size: 40px""><b>错误！+0 pts</b></span></div>
                            ","","learn","2","2","2","learn","2","2","[0, 1, 2, 3, 4, 5, 6, 7, 8, 9]","18","1","setsize","10S10A","furniture","2","0","0","0",""
"null","null","fixation","html-keyboard-response","277","515795","0.0-1.0-9.0-3.0-0.19","18:00:22","3","","","","","","","fixation","","","","","","","","","","","","","","","","","","",""
"1228","1","pic_response","html-keyboard-response","278","517024","0.0-1.0-9.0-3.0-1.19","18:00:22","3","","","","","","","<div>
            <img class='stim' src=""pictures/furniture/5.jpg""></div><div class=""button_prompt"">
                    <b>请用数字键0-9回答</b>
                    </div>","","","","","","","","","","","","","","","","","","",""
"1228","null","sub_response","html-keyboard-response","279","518026","0.0-1.0-9.0-3.0-2.19","18:00:22","3","","","","","","","<div style='text-align: center;'>
                            <span style=""color: red; font-size: 40px""><b>错误！+0 pts</b></span></div>
                            ","","learn","5","5","5","learn","5","5","[0, 1, 2, 3, 4, 5, 6, 7, 8, 9]","19","1","setsize","10S10A","furniture","2","0","0","0",""
"null","null","fixation","html-keyboard-response","280","518528","0.0-1.0-9.0-3.0-0.20","18:00:22","3","","","","","","","fixation","","","","","","","","","","","","","","","","","","",""
"877","1","pic_response","html-keyboard-response","281","519405","0.0-1.0-9.0-3.0-1.20","18:00:22","3","","","","","","","<div>
            <img class='stim' src=""pictures/furniture/3.jpg""></div><div class=""button_prompt"">
                    <b>请用数字键0-9回答</b>
                    </div>","","","","","","","","","","","","","","","","","","",""
"877","null","sub_response","html-keyboard-response","282","520406","0.0-1.0-9.0-3.0-2.20","18:00:22","3","","","","","","","<div style='text-align: center;'>
                            <span style=""color: red; font-size: 40px""><b>错误！+0 pts</b></span></div>
                            ","","learn","3","3","3","learn","3","3","[0, 1, 2, 3, 4, 5, 6, 7, 8, 9]","20","2","setsize","10S10A","furniture","2","0","0","0",""
"null","null","fixation","html-keyboard-response","283","520908","0.0-1.0-9.0-3.0-0.21","18:00:22","3","","","","","","","fixation","","","","","","","","","","","","","","","","","","",""
"666","1","pic_response","html-keyboard-response","284","521574","0.0-1.0-9.0-3.0-1.21","18:00:22","3","","","","","","","<div>
            <img class='stim' src=""pictures/furniture/9.jpg""></div><div class=""button_prompt"">
                    <b>请用数字键0-9回答</b>
                    </div>","","","","","","","","","","","","","","","","","","",""
"666","null","sub_response","html-keyboard-response","285","522576","0.0-1.0-9.0-3.0-2.21","18:00:22","3","","","","","","","<div style='text-align: center;'>
                            <span style=""color: red; font-size: 40px""><b>错误！+0 pts</b></span></div>
                            ","","learn","9","9","9","learn","9","9","[0, 1, 2, 3, 4, 5, 6, 7, 8, 9]","21","2","setsize","10S10A","furniture","2","0","0","0",""
"null","null","fixation","html-keyboard-response","286","523078","0.0-1.0-9.0-3.0-0.22","18:00:22","3","","","","","","","fixation","","","","","","","","","","","","","","","","","","",""
"680","1","pic_response","html-keyboard-response","287","523758","0.0-1.0-9.0-3.0-1.22","18:00:22","3","","","","","","","<div>
            <img class='stim' src=""pictures/furniture/6.jpg""></div><div class=""button_prompt"">
                    <b>请用数字键0-9回答</b>
                    </div>","","","","","","","","","","","","","","","","","","",""
"680","null","sub_response","html-keyboard-response","288","524759","0.0-1.0-9.0-3.0-2.22","18:00:22","3","","","","","","","<div style='text-align: center;'>
                            <span style=""color: red; font-size: 40px""><b>错误！+0 pts</b></span></div>
                            ","","learn","6","6","6","learn","6","6","[0, 1, 2, 3, 4, 5, 6, 7, 8, 9]","22","2","setsize","10S10A","furniture","2","0","0","0",""
"null","null","fixation","html-keyboard-response","289","525261","0.0-1.0-9.0-3.0-0.23","18:00:22","3","","","","","","","fixation","","","","","","","","","","","","","","","","","","",""
"630","1","pic_response","html-keyboard-response","290","525892","0.0-1.0-9.0-3.0-1.23","18:00:22","3","","","","","","","<div>
            <img class='stim' src=""pictures/furniture/1.jpg""></div><div class=""button_prompt"">
                    <b>请用数字键0-9回答</b>
                    </div>","","","","","","","","","","","","","","","","","","",""
"630","null","sub_response","html-keyboard-response","291","526893","0.0-1.0-9.0-3.0-2.23","18:00:22","3","","","","","","","<div style='text-align: center;'>
                            <span style=""color: red; font-size: 40px""><b>错误！+0 pts</b></span></div>
                            ","","learn","1","1","1","learn","1","1","[0, 1, 2, 3, 4, 5, 6, 7, 8, 9]","23","2","setsize","10S10A","furniture","2","0","0","0",""
"null","null","fixation","html-keyboard-response","292","527394","0.0-1.0-9.0-3.0-0.24","18:00:22","3","","","","","","","fixation","","","","","","","","","","","","","","","","","","",""
"637","1","pic_response","html-keyboard-response","293","528031","0.0-1.0-9.0-3.0-1.24","18:00:22","3","","","","","","","<div>
            <img class='stim' src=""pictures/furniture/5.jpg""></div><div class=""button_prompt"">
                    <b>请用数字键0-9回答</b>
                    </div>","","","","","","","","","","","","","","","","","","",""
"637","null","sub_response","html-keyboard-response","294","529033","0.0-1.0-9.0-3.0-2.24","18:00:22","3","","","","","","","<div style='text-align: center;'>
                            <span style=""color: red; font-size: 40px""><b>错误！+0 pts</b></span></div>
                            ","","learn","5","5","5","learn","5","5","[0, 1, 2, 3, 4, 5, 6, 7, 8, 9]","24","2","setsize","10S10A","furniture","2","0","0","0",""
"null","null","fixation","html-keyboard-response","295","529534","0.0-1.0-9.0-3.0-0.25","18:00:22","3","","","","","","","fixation","","","","","","","","","","","","","","","","","","",""
"578","1","pic_response","html-keyboard-response","296","530113","0.0-1.0-9.0-3.0-1.25","18:00:22","3","","","","","","","<div>
            <img class='stim' src=""pictures/furniture/2.jpg""></div><div class=""button_prompt"">
                    <b>请用数字键0-9回答</b>
                    </div>","","","","","","","","","","","","","","","","","","",""
"578","null","sub_response","html-keyboard-response","297","531115","0.0-1.0-9.0-3.0-2.25","18:00:22","3","","","","","","","<div style='text-align: center;'>
                            <span style=""color: red; font-size: 40px""><b>错误！+0 pts</b></span></div>
                            ","","learn","2","2","2","learn","2","2","[0, 1, 2, 3, 4, 5, 6, 7, 8, 9]","25","2","setsize","10S10A","furniture","2","0","0","0",""
"null","null","fixation","html-keyboard-response","298","531617","0.0-1.0-9.0-3.0-0.26","18:00:22","3","","","","","","","fixation","","","","","","","","","","","","","","","","","","",""
"635","1","pic_response","html-keyboard-response","299","532252","0.0-1.0-9.0-3.0-1.26","18:00:22","3","","","","","","","<div>
            <img class='stim' src=""pictures/furniture/0.jpg""></div><div class=""button_prompt"">
                    <b>请用数字键0-9回答</b>
                    </div>","","","","","","","","","","","","","","","","","","",""
"635","null","sub_response","html-keyboard-response","300","533253","0.0-1.0-9.0-3.0-2.26","18:00:22","3","","","","","","","<div style='text-align: center;'>
                            <span style=""color: green; font-size: 40px""><b>正确！+1 pts</b></span></div>
                            ","","learn","0","0","0","learn","0","0","[0, 1, 2, 3, 4, 5, 6, 7, 8, 9]","26","2","setsize","10S10A","furniture","2","1","0","1",""
"null","null","fixation","html-keyboard-response","301","533755","0.0-1.0-9.0-3.0-0.27","18:00:22","3","","","","","","","fixation","","","","","","","","","","","","","","","","","","",""
"1475","2","pic_response","html-keyboard-response","302","535231","0.0-1.0-9.0-3.0-1.27","18:00:22","3","","","","","","","<div>
            <img class='stim' src=""pictures/furniture/4.jpg""></div><div class=""button_prompt"">
                    <b>请用数字键0-9回答</b>
                    </div>","","","","","","","","","","","","","","","","","","",""
"1475","null","sub_response","html-keyboard-response","303","536232","0.0-1.0-9.0-3.0-2.27","18:00:22","3","","","","","","","<div style='text-align: center;'>
                            <span style=""color: red; font-size: 40px""><b>错误！+0 pts</b></span></div>
                            ","","learn","4","4","4","learn","4","4","[0, 1, 2, 3, 4, 5, 6, 7, 8, 9]","27","2","setsize","10S10A","furniture","2","0","1","0",""
"null","null","fixation","html-keyboard-response","304","536735","0.0-1.0-9.0-3.0-0.28","18:00:22","3","","","","","","","fixation","","","","","","","","","","","","","","","","","","",""
"1368","2","pic_response","html-keyboard-response","305","538104","0.0-1.0-9.0-3.0-1.28","18:00:22","3","","","","","","","<div>
            <img class='stim' src=""pictures/furniture/7.jpg""></div><div class=""button_prompt"">
                    <b>请用数字键0-9回答</b>
                    </div>","","","","","","","","","","","","","","","","","","",""
"1368","null","sub_response","html-keyboard-response","306","539106","0.0-1.0-9.0-3.0-2.28","18:00:22","3","","","","","","","<div style='text-align: center;'>
                            <span style=""color: red; font-size: 40px""><b>错误！+0 pts</b></span></div>
                            ","","learn","7","7","7","learn","7","7","[0, 1, 2, 3, 4, 5, 6, 7, 8, 9]","28","2","setsize","10S10A","furniture","2","0","1","0",""
"null","null","fixation","html-keyboard-response","307","539607","0.0-1.0-9.0-3.0-0.29","18:00:22","3","","","","","","","fixation","","","","","","","","","","","","","","","","","","",""
"1268","2","pic_response","html-keyboard-response","308","540876","0.0-1.0-9.0-3.0-1.29","18:00:22","3","","","","","","","<div>
            <img class='stim' src=""pictures/furniture/8.jpg""></div><div class=""button_prompt"">
                    <b>请用数字键0-9回答</b>
                    </div>","","","","","","","","","","","","","","","","","","",""
"1268","null","sub_response","html-keyboard-response","309","541877","0.0-1.0-9.0-3.0-2.29","18:00:22","3","","","","","","","<div style='text-align: center;'>
                            <span style=""color: red; font-size: 40px""><b>错误！+0 pts</b></span></div>
                            ","","learn","8","8","8","learn","8","8","[0, 1, 2, 3, 4, 5, 6, 7, 8, 9]","29","2","setsize","10S10A","furniture","2","0","1","0",""
"null","null","fixation","html-keyboard-response","310","542379","0.0-1.0-9.0-3.0-0.30","18:00:22","3","","","","","","","fixation","","","","","","","","","","","","","","","","","","",""
"812","2","pic_response","html-keyboard-response","311","543192","0.0-1.0-9.0-3.0-1.30","18:00:22","3","","","","","","","<div>
            <img class='stim' src=""pictures/furniture/5.jpg""></div><div class=""button_prompt"">
                    <b>请用数字键0-9回答</b>
                    </div>","","","","","","","","","","","","","","","","","","",""
"812","null","sub_response","html-keyboard-response","312","544193","0.0-1.0-9.0-3.0-2.30","18:00:22","3","","","","","","","<div style='text-align: center;'>
                            <span style=""color: red; font-size: 40px""><b>错误！+0 pts</b></span></div>
                            ","","learn","5","5","5","learn","5","5","[0, 1, 2, 3, 4, 5, 6, 7, 8, 9]","30","3","setsize","10S10A","furniture","2","0","1","0",""
"null","null","fixation","html-keyboard-response","313","544695","0.0-1.0-9.0-3.0-0.31","18:00:22","3","","","","","","","fixation","","","","","","","","","","","","","","","","","","",""
"390","2","pic_response","html-keyboard-response","314","545085","0.0-1.0-9.0-3.0-1.31","18:00:22","3","","","","","","","<div>
            <img class='stim' src=""pictures/furniture/3.jpg""></div><div class=""button_prompt"">
                    <b>请用数字键0-9回答</b>
                    </div>","","","","","","","","","","","","","","","","","","",""
"390","null","sub_response","html-keyboard-response","315","546086","0.0-1.0-9.0-3.0-2.31","18:00:22","3","","","","","","","<div style='text-align: center;'>
                            <span style=""color: red; font-size: 40px""><b>错误！+0 pts</b></span></div>
                            ","","learn","3","3","3","learn","3","3","[0, 1, 2, 3, 4, 5, 6, 7, 8, 9]","31","3","setsize","10S10A","furniture","2","0","1","0",""
"null","null","fixation","html-keyboard-response","316","546587","0.0-1.0-9.0-3.0-0.32","18:00:22","3","","","","","","","fixation","","","","","","","","","","","","","","","","","","",""
"430","2","pic_response","html-keyboard-response","317","547017","0.0-1.0-9.0-3.0-1.32","18:00:22","3","","","","","","","<div>
            <img class='stim' src=""pictures/furniture/6.jpg""></div><div class=""button_prompt"">
                    <b>请用数字键0-9回答</b>
                    </div>","","","","","","","","","","","","","","","","","","",""
"430","null","sub_response","html-keyboard-response","318","548018","0.0-1.0-9.0-3.0-2.32","18:00:22","3","","","","","","","<div style='text-align: center;'>
                            <span style=""color: red; font-size: 40px""><b>错误！+0 pts</b></span></div>
                            ","","learn","6","6","6","learn","6","6","[0, 1, 2, 3, 4, 5, 6, 7, 8, 9]","32","3","setsize","10S10A","furniture","2","0","1","0",""
