"rt","response","screen_id","trial_type","trial_index","time_elapsed","internal_node_id","start_time","n_Prac","success","timeout","failed_images","failed_audio","failed_video","view_history","stimulus","question_order","stage","s","word","word_id","phase","a_cor","a_real","a_ava","trial","tps","task_type","block_typ","pic_typ","block_id","cum_r","a","r","plugin_name"
"37185","{""sub_id"":""0709"",""task_type"":""task1"",""name"":""yyj"",""gender"":""m""}","basic_info","survey-html-form","0","37191","0.0-0.0","07:09:39","2","","","","","","","","","","","","","","","","","","","","","","","","","",""
"","","","preload","1","39607","0.0-1.0-0.0","07:09:39","2","true","false","[]","[]","[]","","","","","","","","","","","","","","","","","","","","",""
"","","","preload","2","40088","0.0-1.0-1.0","07:09:39","2","true","false","[]","[]","[]","","","","","","","","","","","","","","","","","","","","",""
"","","","fullscreen","3","60826","0.0-1.0-2.0","07:09:39","2","true","","","","","","","","","","","","","","","","","","","","","","","","",""
"12594","","instruct","instructions","4","73421","0.0-1.0-3.0-0.0","07:09:39","2","","","","","","[{""page_index"":0,""viewing_time"":5514},{""page_index"":1,""viewing_time"":4882},{""page_index"":2,""viewing_time"":2198}]","","","","","","","","","","","","","","","","","","","",""
"8496","{""Q0"":"""",""task1"":""<span style='font-size: 24px'>学习图片和数字的对应关系</span>"",""task2"":""<span style='font-size: 24px'> 数字键1-3 </span>"",""task3"":""<span style='font-size: 24px'> 看到图片选出正确对应的数字 </span>""}","question","survey-multi-choice","5","81920","0.0-1.0-3.0-1.0","07:09:39","2","","","","","","","","[0,1,2,3]","","","","","","","","","","","","","","","","","",""
"2047"," ","inst_q","html-keyboard-response","6","83968","0.0-1.0-3.0-2.0","07:09:39","2","","","","","","","inst","","1","","","","","","","","","","","","","","","","",""
"8300","","instruct","instructions","7","92268","0.0-1.0-3.1-0.1","07:09:39","2","","","","","","[{""page_index"":0,""viewing_time"":2870},{""page_index"":1,""viewing_time"":2647},{""page_index"":2,""viewing_time"":2782}]","","","","","","","","","","","","","","","","","","","",""
"10942","{""Q0"":"""",""task1"":""<span style='font-size: 24px'>学习图片和数字的对应关系</span>"",""task2"":""<span style='font-size: 24px'> 数字键1-3 </span>"",""task3"":""<span style='font-size: 24px'> 看到图片选出正确对应的数字 </span>""}","question","survey-multi-choice","8","103212","0.0-1.0-3.1-1.1","07:09:39","2","","","","","","","","[0,1,2,3]","","","","","","","","","","","","","","","","","",""
"811"," ","inst_q","html-keyboard-response","9","104024","0.0-1.0-3.1-2.1","07:09:39","2","","","","","","","inst","","1","","","","","","","","","","","","","","","","",""
"6267","","instruct","instructions","10","110291","0.0-1.0-3.2-0.2","07:09:39","2","","","","","","[{""page_index"":0,""viewing_time"":4811},{""page_index"":1,""viewing_time"":556},{""page_index"":2,""viewing_time"":900}]","","","","","","","","","","","","","","","","","","","",""
"5851","{""Q0"":"""",""task1"":""<span style='font-size: 24px'>学习图片和数字的对应关系</span>"",""task2"":""<span style='font-size: 24px'> 图片下方标注为可用的数字键（数字键1-3或0-9） </span>"",""task3"":""<span style='font-size: 24px'> 看到图片选出正确对应的数字 </span>""}","question","survey-multi-choice","11","116143","0.0-1.0-3.2-1.2","07:09:39","2","","","","","","","","[0,1,2,3]","","","","","","","","","","","","","","","","","",""
"1975"," ","inst_q","html-keyboard-response","12","118120","0.0-1.0-3.2-2.2","07:09:39","2","","","","","","","inst","","1","","","","","","","","","","","","","","","","",""
"","","","preload","13","119259","0.0-1.0-4.0-0.0","07:09:39","2","true","false","[]","[]","[]","","","","","","","","","","","","","","","","","","","","",""
"2732"," ","","html-keyboard-response","14","121991","0.0-1.0-4.0-1.0","07:09:39","2","","","","","","","<div style='font-size: 32px; text-align: center;'
                    <p>请学习图片和数字之间的对应关系</p>
                    <p>我们将<span style='color: blue'><b> 告诉 </b></span>您选择的对错。请根据反馈学习。</p>
                    <p>请按""空格""继续实验。</p></div>","","","","","","","","","","","","","","","","","","",""
"3159"," ","inst","html-keyboard-response","15","125152","0.0-1.0-4.0-2.0","07:09:39","2","","","","","","","<img class='instruct_stim' src=""instruction/prac3.PNG""></div>","","","","","","","","","","","","","","","","","","",""
"null","null","fixation","html-keyboard-response","16","125656","0.0-1.0-4.0-3.0-0.0","07:09:39","2","","","","","","","fixation","","","","","","","","","","","","","","","","","","",""
"1718","1","pic_response","html-keyboard-response","17","127375","0.0-1.0-4.0-3.0-1.0","07:09:39","2","","","","","","","<div>
            <img class='stim' src=""pictures/prac/0.jpg""></div><div class=""button_prompt"">
                        <b>请用数字键1-3回答</b>
                        </div>","","","","","","","","","","","","","","","","","","",""
"1718","null","sub_response","html-keyboard-response","18","128377","0.0-1.0-4.0-3.0-2.0","07:09:39","2","","","","","","","<div style='text-align: center;'>
                            <span style=""color: green; font-size: 40px""><b>正确！+1 pts</b></span></div>
                            ","","learn","0","0","0","learn","0","0","[0, 1, 2]","0","0","setsize","99","prac","0","1","0","1",""
"null","null","fixation","html-keyboard-response","19","128879","0.0-1.0-4.0-3.0-0.1","07:09:39","2","","","","","","","fixation","","","","","","","","","","","","","","","","","","",""
"912","2","pic_response","html-keyboard-response","20","129791","0.0-1.0-4.0-3.0-1.1","07:09:39","2","","","","","","","<div>
            <img class='stim' src=""pictures/prac/1.jpg""></div><div class=""button_prompt"">
                        <b>请用数字键1-3回答</b>
                        </div>","","","","","","","","","","","","","","","","","","",""
"912","null","sub_response","html-keyboard-response","21","130793","0.0-1.0-4.0-3.0-2.1","07:09:39","2","","","","","","","<div style='text-align: center;'>
                            <span style=""color: red; font-size: 40px""><b>错误！+0 pts</b></span></div>
                            ","","learn","1","1","1","learn","0","0","[0, 1, 2]","1","0","setsize","99","prac","0","0","1","0",""
"null","null","fixation","html-keyboard-response","22","131295","0.0-1.0-4.0-3.0-0.2","07:09:39","2","","","","","","","fixation","","","","","","","","","","","","","","","","","","",""
"1087","2","pic_response","html-keyboard-response","23","132383","0.0-1.0-4.0-3.0-1.2","07:09:39","2","","","","","","","<div>
            <img class='stim' src=""pictures/prac/2.jpg""></div><div class=""button_prompt"">
                        <b>请用数字键1-3回答</b>
                        </div>","","","","","","","","","","","","","","","","","","",""
"1087","null","sub_response","html-keyboard-response","24","133384","0.0-1.0-4.0-3.0-2.2","07:09:39","2","","","","","","","<div style='text-align: center;'>
                            <span style=""color: red; font-size: 40px""><b>错误！+0 pts</b></span></div>
                            ","","learn","2","2","2","learn","2","2","[0, 1, 2]","2","0","setsize","99","prac","0","0","1","0",""
"null","null","fixation","html-keyboard-response","25","133886","0.0-1.0-4.0-3.0-0.3","07:09:39","2","","","","","","","fixation","","","","","","","","","","","","","","","","","","",""
"689","1","pic_response","html-keyboard-response","26","134575","0.0-1.0-4.0-3.0-1.3","07:09:39","2","","","","","","","<div>
            <img class='stim' src=""pictures/prac/0.jpg""></div><div class=""button_prompt"">
                        <b>请用数字键1-3回答</b>
                        </div>","","","","","","","","","","","","","","","","","","",""
"689","null","sub_response","html-keyboard-response","27","135577","0.0-1.0-4.0-3.0-2.3","07:09:39","2","","","","","","","<div style='text-align: center;'>
                            <span style=""color: green; font-size: 40px""><b>正确！+1 pts</b></span></div>
                            ","","learn","0","0","0","learn","0","0","[0, 1, 2]","3","1","setsize","99","prac","0","1","0","1",""
"null","null","fixation","html-keyboard-response","28","136079","0.0-1.0-4.0-3.0-0.4","07:09:39","2","","","","","","","fixation","","","","","","","","","","","","","","","","","","",""
"721","2","pic_response","html-keyboard-response","29","136800","0.0-1.0-4.0-3.0-1.4","07:09:39","2","","","","","","","<div>
            <img class='stim' src=""pictures/prac/1.jpg""></div><div class=""button_prompt"">
                        <b>请用数字键1-3回答</b>
                        </div>","","","","","","","","","","","","","","","","","","",""
"721","null","sub_response","html-keyboard-response","30","137801","0.0-1.0-4.0-3.0-2.4","07:09:39","2","","","","","","","<div style='text-align: center;'>
                            <span style=""color: red; font-size: 40px""><b>错误！+0 pts</b></span></div>
                            ","","learn","1","1","1","learn","0","0","[0, 1, 2]","4","1","setsize","99","prac","0","0","1","0",""
"null","null","fixation","html-keyboard-response","31","138302","0.0-1.0-4.0-3.0-0.5","07:09:39","2","","","","","","","fixation","","","","","","","","","","","","","","","","","","",""
"704","3","pic_response","html-keyboard-response","32","139007","0.0-1.0-4.0-3.0-1.5","07:09:39","2","","","","","","","<div>
            <img class='stim' src=""pictures/prac/2.jpg""></div><div class=""button_prompt"">
                        <b>请用数字键1-3回答</b>
                        </div>","","","","","","","","","","","","","","","","","","",""
"704","null","sub_response","html-keyboard-response","33","140008","0.0-1.0-4.0-3.0-2.5","07:09:39","2","","","","","","","<div style='text-align: center;'>
                            <span style=""color: green; font-size: 40px""><b>正确！+1 pts</b></span></div>
                            ","","learn","2","2","2","learn","2","2","[0, 1, 2]","5","1","setsize","99","prac","0","1","2","1",""
"","","","preload","34","140010","0.0-1.0-4.1-0.1","07:09:39","2","true","false","[]","[]","[]","","","","","","","","","","","","","","","","","","","","",""
"1774"," ","","html-keyboard-response","35","141784","0.0-1.0-4.1-1.1","07:09:39","2","","","","","","","<div style='font-size: 32px; text-align: center;'
                    <p>请学习图片和数字之间的对应关系</p>
                    <p>我们将<span style='color: blue'><b> 告诉 </b></span>您选择的对错。请根据反馈学习。</p>
                    <p>请按""空格""继续实验。</p></div>","","","","","","","","","","","","","","","","","","",""
"2230"," ","inst","html-keyboard-response","36","144015","0.0-1.0-4.1-2.1","07:09:39","2","","","","","","","<img class='instruct_stim' src=""instruction/prac3.PNG""></div>","","","","","","","","","","","","","","","","","","",""
"null","null","fixation","html-keyboard-response","37","144516","0.0-1.0-4.1-3.1-0.6","07:09:39","2","","","","","","","fixation","","","","","","","","","","","","","","","","","","",""
"555","1","pic_response","html-keyboard-response","38","145071","0.0-1.0-4.1-3.1-1.6","07:09:39","2","","","","","","","<div>
            <img class='stim' src=""pictures/prac/0.jpg""></div><div class=""button_prompt"">
                        <b>请用数字键1-3回答</b>
                        </div>","","","","","","","","","","","","","","","","","","",""
"555","null","sub_response","html-keyboard-response","39","146072","0.0-1.0-4.1-3.1-2.6","07:09:39","2","","","","","","","<div style='text-align: center;'>
                            <span style=""color: green; font-size: 40px""><b>正确！+1 pts</b></span></div>
                            ","","learn","0","0","0","learn","0","0","[0, 1, 2]","0","0","setsize","99","prac","0","2","0","1",""
"null","null","fixation","html-keyboard-response","40","146574","0.0-1.0-4.1-3.1-0.7","07:09:39","2","","","","","","","fixation","","","","","","","","","","","","","","","","","","",""
"969","1","pic_response","html-keyboard-response","41","147543","0.0-1.0-4.1-3.1-1.7","07:09:39","2","","","","","","","<div>
            <img class='stim' src=""pictures/prac/1.jpg""></div><div class=""button_prompt"">
                        <b>请用数字键1-3回答</b>
                        </div>","","","","","","","","","","","","","","","","","","",""
"969","null","sub_response","html-keyboard-response","42","148545","0.0-1.0-4.1-3.1-2.7","07:09:39","2","","","","","","","<div style='text-align: center;'>
                            <span style=""color: green; font-size: 40px""><b>正确！+1 pts</b></span></div>
                            ","","learn","1","1","1","learn","0","0","[0, 1, 2]","1","0","setsize","99","prac","0","3","0","1",""
"null","null","fixation","html-keyboard-response","43","149046","0.0-1.0-4.1-3.1-0.8","07:09:39","2","","","","","","","fixation","","","","","","","","","","","","","","","","","","",""
"625","3","pic_response","html-keyboard-response","44","149671","0.0-1.0-4.1-3.1-1.8","07:09:39","2","","","","","","","<div>
            <img class='stim' src=""pictures/prac/2.jpg""></div><div class=""button_prompt"">
                        <b>请用数字键1-3回答</b>
                        </div>","","","","","","","","","","","","","","","","","","",""
"625","null","sub_response","html-keyboard-response","45","150672","0.0-1.0-4.1-3.1-2.8","07:09:39","2","","","","","","","<div style='text-align: center;'>
                            <span style=""color: green; font-size: 40px""><b>正确！+1 pts</b></span></div>
                            ","","learn","2","2","2","learn","2","2","[0, 1, 2]","2","0","setsize","99","prac","0","4","2","1",""
"null","null","fixation","html-keyboard-response","46","151174","0.0-1.0-4.1-3.1-0.9","07:09:39","2","","","","","","","fixation","","","","","","","","","","","","","","","","","","",""
"512","1","pic_response","html-keyboard-response","47","151687","0.0-1.0-4.1-3.1-1.9","07:09:39","2","","","","","","","<div>
            <img class='stim' src=""pictures/prac/0.jpg""></div><div class=""button_prompt"">
                        <b>请用数字键1-3回答</b>
                        </div>","","","","","","","","","","","","","","","","","","",""
"512","null","sub_response","html-keyboard-response","48","152690","0.0-1.0-4.1-3.1-2.9","07:09:39","2","","","","","","","<div style='text-align: center;'>
                            <span style=""color: green; font-size: 40px""><b>正确！+1 pts</b></span></div>
                            ","","learn","0","0","0","learn","0","0","[0, 1, 2]","3","1","setsize","99","prac","0","5","0","1",""
"null","null","fixation","html-keyboard-response","49","153191","0.0-1.0-4.1-3.1-0.10","07:09:39","2","","","","","","","fixation","","","","","","","","","","","","","","","","","","",""
"784","1","pic_response","html-keyboard-response","50","153975","0.0-1.0-4.1-3.1-1.10","07:09:39","2","","","","","","","<div>
            <img class='stim' src=""pictures/prac/1.jpg""></div><div class=""button_prompt"">
                        <b>请用数字键1-3回答</b>
                        </div>","","","","","","","","","","","","","","","","","","",""
"784","null","sub_response","html-keyboard-response","51","154977","0.0-1.0-4.1-3.1-2.10","07:09:39","2","","","","","","","<div style='text-align: center;'>
                            <span style=""color: green; font-size: 40px""><b>正确！+1 pts</b></span></div>
                            ","","learn","1","1","1","learn","0","0","[0, 1, 2]","4","1","setsize","99","prac","0","6","0","1",""
"null","null","fixation","html-keyboard-response","52","155478","0.0-1.0-4.1-3.1-0.11","07:09:39","2","","","","","","","fixation","","","","","","","","","","","","","","","","","","",""
"408","3","pic_response","html-keyboard-response","53","155887","0.0-1.0-4.1-3.1-1.11","07:09:39","2","","","","","","","<div>
            <img class='stim' src=""pictures/prac/2.jpg""></div><div class=""button_prompt"">
                        <b>请用数字键1-3回答</b>
                        </div>","","","","","","","","","","","","","","","","","","",""
"408","null","sub_response","html-keyboard-response","54","156888","0.0-1.0-4.1-3.1-2.11","07:09:39","2","","","","","","","<div style='text-align: center;'>
                            <span style=""color: green; font-size: 40px""><b>正确！+1 pts</b></span></div>
                            ","","learn","2","2","2","learn","2","2","[0, 1, 2]","5","1","setsize","99","prac","0","7","2","1",""
"1822"," ","","html-keyboard-response","55","158711","0.0-1.0-5.0","07:09:39","2","","","","","","","<div style=""font-size: 25px""><p>距下一个实验开始还有</p><div style=""font-size: 50px; color: blue""><p><span id=""clock"">1:00</span></div></p><p>按""空格""跳过休息</p></div>","","","","","","","","","","","","","","","","","","",""
"871"," ","","html-keyboard-response","56","159583","0.0-1.0-6.0","07:09:39","2","","","","","","","<div style='font-size: 32px; text-align: center;'
                    <p>请按""空格""继续正式实验。</p></div>","","","","","","","","","","","","","","","","","","",""
"","","","preload","57","161179","0.0-1.0-7.0-0.0","07:09:39","2","true","false","[]","[]","[]","","","","","","","","","","","","","","","","","","","","",""
"1861"," ","","html-keyboard-response","58","163040","0.0-1.0-7.0-1.0","07:09:39","2","","","","","","","<div style='font-size: 32px; text-align: center;'
                    <p>请学习图片和数字之间的对应关系</p>
                    <p>我们将<span style='color: blue'><b> 告诉 </b></span>您选择的对错。请根据反馈学习。</p>
                    <p>请按""空格""继续实验。</p></div>","","","","","","","","","","","","","","","","","","",""
"1767"," ","inst","html-keyboard-response","59","164808","0.0-1.0-7.0-2.0","07:09:39","2","","","","","","","<img class='instruct_stim' src=""instruction/food3.PNG""></div>","","","","","","","","","","","","","","","","","","",""
"null","null","fixation","html-keyboard-response","60","165309","0.0-1.0-7.0-3.0-0.0","07:09:39","2","","","","","","","fixation","","","","","","","","","","","","","","","","","","",""
"1690","1","pic_response","html-keyboard-response","61","166999","0.0-1.0-7.0-3.0-1.0","07:09:39","2","","","","","","","<div>
            <img class='stim' src=""pictures/food/2.jpg""></div><div class=""button_prompt"">
                    <b>请用数字键0-9回答</b>
                    </div>","","","","","","","","","","","","","","","","","","",""
"1690","null","sub_response","html-keyboard-response","62","168000","0.0-1.0-7.0-3.0-2.0","07:09:39","2","","","","","","","<div style='text-align: center;'>
                            <span style=""color: red; font-size: 40px""><b>错误！+0 pts</b></span></div>
                            ","","learn","2","2","2","learn","9","9","[0, 1, 2, 3, 4, 5, 6, 7, 8, 9]","0","0","setsize","3S10A","food","1","0","0","0",""
"null","null","fixation","html-keyboard-response","63","168502","0.0-1.0-7.0-3.0-0.1","07:09:39","2","","","","","","","fixation","","","","","","","","","","","","","","","","","","",""
"689","3","pic_response","html-keyboard-response","64","169192","0.0-1.0-7.0-3.0-1.1","07:09:39","2","","","","","","","<div>
            <img class='stim' src=""pictures/food/1.jpg""></div><div class=""button_prompt"">
                    <b>请用数字键0-9回答</b>
                    </div>","","","","","","","","","","","","","","","","","","",""
"689","null","sub_response","html-keyboard-response","65","170194","0.0-1.0-7.0-3.0-2.1","07:09:39","2","","","","","","","<div style='text-align: center;'>
                            <span style=""color: red; font-size: 40px""><b>错误！+0 pts</b></span></div>
                            ","","learn","1","1","1","learn","6","6","[0, 1, 2, 3, 4, 5, 6, 7, 8, 9]","1","0","setsize","3S10A","food","1","0","2","0",""
"null","null","fixation","html-keyboard-response","66","170695","0.0-1.0-7.0-3.0-0.2","07:09:39","2","","","","","","","fixation","","","","","","","","","","","","","","","","","","",""
"391","5","pic_response","html-keyboard-response","67","171087","0.0-1.0-7.0-3.0-1.2","07:09:39","2","","","","","","","<div>
            <img class='stim' src=""pictures/food/0.jpg""></div><div class=""button_prompt"">
                    <b>请用数字键0-9回答</b>
                    </div>","","","","","","","","","","","","","","","","","","",""
"391","null","sub_response","html-keyboard-response","68","172089","0.0-1.0-7.0-3.0-2.2","07:09:39","2","","","","","","","<div style='text-align: center;'>
                            <span style=""color: red; font-size: 40px""><b>错误！+0 pts</b></span></div>
                            ","","learn","0","0","0","learn","2","2","[0, 1, 2, 3, 4, 5, 6, 7, 8, 9]","2","0","setsize","3S10A","food","1","0","4","0",""
"null","null","fixation","html-keyboard-response","69","172590","0.0-1.0-7.0-3.0-0.3","07:09:39","2","","","","","","","fixation","","","","","","","","","","","","","","","","","","",""
"377","4","pic_response","html-keyboard-response","70","172967","0.0-1.0-7.0-3.0-1.3","07:09:39","2","","","","","","","<div>
            <img class='stim' src=""pictures/food/1.jpg""></div><div class=""button_prompt"">
                    <b>请用数字键0-9回答</b>
                    </div>","","","","","","","","","","","","","","","","","","",""
"377","null","sub_response","html-keyboard-response","71","173969","0.0-1.0-7.0-3.0-2.3","07:09:39","2","","","","","","","<div style='text-align: center;'>
                            <span style=""color: red; font-size: 40px""><b>错误！+0 pts</b></span></div>
                            ","","learn","1","1","1","learn","6","6","[0, 1, 2, 3, 4, 5, 6, 7, 8, 9]","3","1","setsize","3S10A","food","1","0","3","0",""
"null","null","fixation","html-keyboard-response","72","174470","0.0-1.0-7.0-3.0-0.4","07:09:39","2","","","","","","","fixation","","","","","","","","","","","","","","","","","","",""
"433","6","pic_response","html-keyboard-response","73","174903","0.0-1.0-7.0-3.0-1.4","07:09:39","2","","","","","","","<div>
            <img class='stim' src=""pictures/food/0.jpg""></div><div class=""button_prompt"">
                    <b>请用数字键0-9回答</b>
                    </div>","","","","","","","","","","","","","","","","","","",""
"433","null","sub_response","html-keyboard-response","74","175906","0.0-1.0-7.0-3.0-2.4","07:09:39","2","","","","","","","<div style='text-align: center;'>
                            <span style=""color: red; font-size: 40px""><b>错误！+0 pts</b></span></div>
                            ","","learn","0","0","0","learn","2","2","[0, 1, 2, 3, 4, 5, 6, 7, 8, 9]","4","1","setsize","3S10A","food","1","0","5","0",""
"null","null","fixation","html-keyboard-response","75","176407","0.0-1.0-7.0-3.0-0.5","07:09:39","2","","","","","","","fixation","","","","","","","","","","","","","","","","","","",""
"256","7","pic_response","html-keyboard-response","76","176663","0.0-1.0-7.0-3.0-1.5","07:09:39","2","","","","","","","<div>
            <img class='stim' src=""pictures/food/2.jpg""></div><div class=""button_prompt"">
                    <b>请用数字键0-9回答</b>
                    </div>","","","","","","","","","","","","","","","","","","",""
"256","null","sub_response","html-keyboard-response","77","177665","0.0-1.0-7.0-3.0-2.5","07:09:39","2","","","","","","","<div style='text-align: center;'>
                            <span style=""color: red; font-size: 40px""><b>错误！+0 pts</b></span></div>
                            ","","learn","2","2","2","learn","9","9","[0, 1, 2, 3, 4, 5, 6, 7, 8, 9]","5","1","setsize","3S10A","food","1","0","6","0",""
"null","null","fixation","html-keyboard-response","78","178167","0.0-1.0-7.0-3.0-0.6","07:09:39","2","","","","","","","fixation","","","","","","","","","","","","","","","","","","",""
"928","9","pic_response","html-keyboard-response","79","179095","0.0-1.0-7.0-3.0-1.6","07:09:39","2","","","","","","","<div>
            <img class='stim' src=""pictures/food/1.jpg""></div><div class=""button_prompt"">
                    <b>请用数字键0-9回答</b>
                    </div>","","","","","","","","","","","","","","","","","","",""
"928","null","sub_response","html-keyboard-response","80","180097","0.0-1.0-7.0-3.0-2.6","07:09:39","2","","","","","","","<div style='text-align: center;'>
                            <span style=""color: red; font-size: 40px""><b>错误！+0 pts</b></span></div>
                            ","","learn","1","1","1","learn","6","6","[0, 1, 2, 3, 4, 5, 6, 7, 8, 9]","6","2","setsize","3S10A","food","1","0","8","0",""
"null","null","fixation","html-keyboard-response","81","180599","0.0-1.0-7.0-3.0-0.7","07:09:39","2","","","","","","","fixation","","","","","","","","","","","","","","","","","","",""
"440","0","pic_response","html-keyboard-response","82","181040","0.0-1.0-7.0-3.0-1.7","07:09:39","2","","","","","","","<div>
            <img class='stim' src=""pictures/food/2.jpg""></div><div class=""button_prompt"">
                    <b>请用数字键0-9回答</b>
                    </div>","","","","","","","","","","","","","","","","","","",""
"440","null","sub_response","html-keyboard-response","83","182041","0.0-1.0-7.0-3.0-2.7","07:09:39","2","","","","","","","<div style='text-align: center;'>
                            <span style=""color: green; font-size: 40px""><b>正确！+1 pts</b></span></div>
                            ","","learn","2","2","2","learn","9","9","[0, 1, 2, 3, 4, 5, 6, 7, 8, 9]","7","2","setsize","3S10A","food","1","1","9","1",""
"null","null","fixation","html-keyboard-response","84","182542","0.0-1.0-7.0-3.0-0.8","07:09:39","2","","","","","","","fixation","","","","","","","","","","","","","","","","","","",""
"705","9","pic_response","html-keyboard-response","85","183248","0.0-1.0-7.0-3.0-1.8","07:09:39","2","","","","","","","<div>
            <img class='stim' src=""pictures/food/0.jpg""></div><div class=""button_prompt"">
                    <b>请用数字键0-9回答</b>
                    </div>","","","","","","","","","","","","","","","","","","",""
"705","null","sub_response","html-keyboard-response","86","184249","0.0-1.0-7.0-3.0-2.8","07:09:39","2","","","","","","","<div style='text-align: center;'>
                            <span style=""color: red; font-size: 40px""><b>错误！+0 pts</b></span></div>
                            ","","learn","0","0","0","learn","2","2","[0, 1, 2, 3, 4, 5, 6, 7, 8, 9]","8","2","setsize","3S10A","food","1","0","8","0",""
"null","null","fixation","html-keyboard-response","87","184751","0.0-1.0-7.0-3.0-0.9","07:09:39","2","","","","","","","fixation","","","","","","","","","","","","","","","","","","",""
"336","8","pic_response","html-keyboard-response","88","185088","0.0-1.0-7.0-3.0-1.9","07:09:39","2","","","","","","","<div>
            <img class='stim' src=""pictures/food/0.jpg""></div><div class=""button_prompt"">
                    <b>请用数字键0-9回答</b>
                    </div>","","","","","","","","","","","","","","","","","","",""
"336","null","sub_response","html-keyboard-response","89","186089","0.0-1.0-7.0-3.0-2.9","07:09:39","2","","","","","","","<div style='text-align: center;'>
                            <span style=""color: red; font-size: 40px""><b>错误！+0 pts</b></span></div>
                            ","","learn","0","0","0","learn","2","2","[0, 1, 2, 3, 4, 5, 6, 7, 8, 9]","9","3","setsize","3S10A","food","1","0","7","0",""
"null","null","fixation","html-keyboard-response","90","186591","0.0-1.0-7.0-3.0-0.10","07:09:39","2","","","","","","","fixation","","","","","","","","","","","","","","","","","","",""
"449","0","pic_response","html-keyboard-response","91","187040","0.0-1.0-7.0-3.0-1.10","07:09:39","2","","","","","","","<div>
            <img class='stim' src=""pictures/food/1.jpg""></div><div class=""button_prompt"">
                    <b>请用数字键0-9回答</b>
                    </div>","","","","","","","","","","","","","","","","","","",""
"449","null","sub_response","html-keyboard-response","92","188042","0.0-1.0-7.0-3.0-2.10","07:09:39","2","","","","","","","<div style='text-align: center;'>
                            <span style=""color: red; font-size: 40px""><b>错误！+0 pts</b></span></div>
                            ","","learn","1","1","1","learn","6","6","[0, 1, 2, 3, 4, 5, 6, 7, 8, 9]","10","3","setsize","3S10A","food","1","0","9","0",""
"null","null","fixation","html-keyboard-response","93","188543","0.0-1.0-7.0-3.0-0.11","07:09:39","2","","","","","","","fixation","","","","","","","","","","","","","","","","","","",""
"1136","0","pic_response","html-keyboard-response","94","189680","0.0-1.0-7.0-3.0-1.11","07:09:39","2","","","","","","","<div>
            <img class='stim' src=""pictures/food/2.jpg""></div><div class=""button_prompt"">
                    <b>请用数字键0-9回答</b>
                    </div>","","","","","","","","","","","","","","","","","","",""
"1136","null","sub_response","html-keyboard-response","95","190685","0.0-1.0-7.0-3.0-2.11","07:09:39","2","","","","","","","<div style='text-align: center;'>
                            <span style=""color: green; font-size: 40px""><b>正确！+1 pts</b></span></div>
                            ","","learn","2","2","2","learn","9","9","[0, 1, 2, 3, 4, 5, 6, 7, 8, 9]","11","3","setsize","3S10A","food","1","1","9","1",""
"null","null","fixation","html-keyboard-response","96","191187","0.0-1.0-7.0-3.0-0.12","07:09:39","2","","","","","","","fixation","","","","","","","","","","","","","","","","","","",""
"277","4","pic_response","html-keyboard-response","97","191464","0.0-1.0-7.0-3.0-1.12","07:09:39","2","","","","","","","<div>
            <img class='stim' src=""pictures/food/1.jpg""></div><div class=""button_prompt"">
                    <b>请用数字键0-9回答</b>
                    </div>","","","","","","","","","","","","","","","","","","",""
"277","null","sub_response","html-keyboard-response","98","192465","0.0-1.0-7.0-3.0-2.12","07:09:39","2","","","","","","","<div style='text-align: center;'>
                            <span style=""color: red; font-size: 40px""><b>错误！+0 pts</b></span></div>
                            ","","learn","1","1","1","learn","6","6","[0, 1, 2, 3, 4, 5, 6, 7, 8, 9]","12","4","setsize","3S10A","food","1","0","3","0",""
"null","null","fixation","html-keyboard-response","99","192966","0.0-1.0-7.0-3.0-0.13","07:09:39","2","","","","","","","fixation","","","","","","","","","","","","","","","","","","",""
"329","6","pic_response","html-keyboard-response","100","193296","0.0-1.0-7.0-3.0-1.13","07:09:39","2","","","","","","","<div>
            <img class='stim' src=""pictures/food/2.jpg""></div><div class=""button_prompt"">
                    <b>请用数字键0-9回答</b>
                    </div>","","","","","","","","","","","","","","","","","","",""
"329","null","sub_response","html-keyboard-response","101","194297","0.0-1.0-7.0-3.0-2.13","07:09:39","2","","","","","","","<div style='text-align: center;'>
                            <span style=""color: red; font-size: 40px""><b>错误！+0 pts</b></span></div>
                            ","","learn","2","2","2","learn","9","9","[0, 1, 2, 3, 4, 5, 6, 7, 8, 9]","13","4","setsize","3S10A","food","1","0","5","0",""
"null","null","fixation","html-keyboard-response","102","194799","0.0-1.0-7.0-3.0-0.14","07:09:39","2","","","","","","","fixation","","","","","","","","","","","","","","","","","","",""
"568","4","pic_response","html-keyboard-response","103","195368","0.0-1.0-7.0-3.0-1.14","07:09:39","2","","","","","","","<div>
            <img class='stim' src=""pictures/food/0.jpg""></div><div class=""button_prompt"">
                    <b>请用数字键0-9回答</b>
                    </div>","","","","","","","","","","","","","","","","","","",""
"568","null","sub_response","html-keyboard-response","104","196369","0.0-1.0-7.0-3.0-2.14","07:09:39","2","","","","","","","<div style='text-align: center;'>
                            <span style=""color: red; font-size: 40px""><b>错误！+0 pts</b></span></div>
                            ","","learn","0","0","0","learn","2","2","[0, 1, 2, 3, 4, 5, 6, 7, 8, 9]","14","4","setsize","3S10A","food","1","0","3","0",""
"null","null","fixation","html-keyboard-response","105","196885","0.0-1.0-7.0-3.0-0.15","07:09:39","2","","","","","","","fixation","","","","","","","","","","","","","","","","","","",""
"458","7","pic_response","html-keyboard-response","106","197344","0.0-1.0-7.0-3.0-1.15","07:09:39","2","","","","","","","<div>
            <img class='stim' src=""pictures/food/0.jpg""></div><div class=""button_prompt"">
                    <b>请用数字键0-9回答</b>
                    </div>","","","","","","","","","","","","","","","","","","",""
"458","null","sub_response","html-keyboard-response","107","198345","0.0-1.0-7.0-3.0-2.15","07:09:39","2","","","","","","","<div style='text-align: center;'>
                            <span style=""color: red; font-size: 40px""><b>错误！+0 pts</b></span></div>
                            ","","learn","0","0","0","learn","2","2","[0, 1, 2, 3, 4, 5, 6, 7, 8, 9]","15","5","setsize","3S10A","food","1","0","6","0",""
"null","null","fixation","html-keyboard-response","108","198846","0.0-1.0-7.0-3.0-0.16","07:09:39","2","","","","","","","fixation","","","","","","","","","","","","","","","","","","",""
"954","1","pic_response","html-keyboard-response","109","199800","0.0-1.0-7.0-3.0-1.16","07:09:39","2","","","","","","","<div>
            <img class='stim' src=""pictures/food/1.jpg""></div><div class=""button_prompt"">
                    <b>请用数字键0-9回答</b>
                    </div>","","","","","","","","","","","","","","","","","","",""
"954","null","sub_response","html-keyboard-response","110","200801","0.0-1.0-7.0-3.0-2.16","07:09:39","2","","","","","","","<div style='text-align: center;'>
                            <span style=""color: red; font-size: 40px""><b>错误！+0 pts</b></span></div>
                            ","","learn","1","1","1","learn","6","6","[0, 1, 2, 3, 4, 5, 6, 7, 8, 9]","16","5","setsize","3S10A","food","1","0","0","0",""
"null","null","fixation","html-keyboard-response","111","201302","0.0-1.0-7.0-3.0-0.17","07:09:39","2","","","","","","","fixation","","","","","","","","","","","","","","","","","","",""
"1081","0","pic_response","html-keyboard-response","112","202384","0.0-1.0-7.0-3.0-1.17","07:09:39","2","","","","","","","<div>
            <img class='stim' src=""pictures/food/2.jpg""></div><div class=""button_prompt"">
                    <b>请用数字键0-9回答</b>
                    </div>","","","","","","","","","","","","","","","","","","",""
"1081","null","sub_response","html-keyboard-response","113","203385","0.0-1.0-7.0-3.0-2.17","07:09:39","2","","","","","","","<div style='text-align: center;'>
                            <span style=""color: green; font-size: 40px""><b>正确！+1 pts</b></span></div>
                            ","","learn","2","2","2","learn","9","9","[0, 1, 2, 3, 4, 5, 6, 7, 8, 9]","17","5","setsize","3S10A","food","1","1","9","1",""
"null","null","fixation","html-keyboard-response","114","203887","0.0-1.0-7.0-3.0-0.18","07:09:39","2","","","","","","","fixation","","","","","","","","","","","","","","","","","","",""
"376","1","pic_response","html-keyboard-response","115","204264","0.0-1.0-7.0-3.0-1.18","07:09:39","2","","","","","","","<div>
            <img class='stim' src=""pictures/food/0.jpg""></div><div class=""button_prompt"">
                    <b>请用数字键0-9回答</b>
                    </div>","","","","","","","","","","","","","","","","","","",""
"376","null","sub_response","html-keyboard-response","116","205265","0.0-1.0-7.0-3.0-2.18","07:09:39","2","","","","","","","<div style='text-align: center;'>
                            <span style=""color: red; font-size: 40px""><b>错误！+0 pts</b></span></div>
                            ","","learn","0","0","0","learn","2","2","[0, 1, 2, 3, 4, 5, 6, 7, 8, 9]","18","6","setsize","3S10A","food","1","0","0","0",""
"null","null","fixation","html-keyboard-response","117","205767","0.0-1.0-7.0-3.0-0.19","07:09:39","2","","","","","","","fixation","","","","","","","","","","","","","","","","","","",""
"473","3","pic_response","html-keyboard-response","118","206240","0.0-1.0-7.0-3.0-1.19","07:09:39","2","","","","","","","<div>
            <img class='stim' src=""pictures/food/1.jpg""></div><div class=""button_prompt"">
                    <b>请用数字键0-9回答</b>
                    </div>","","","","","","","","","","","","","","","","","","",""
"473","null","sub_response","html-keyboard-response","119","207241","0.0-1.0-7.0-3.0-2.19","07:09:39","2","","","","","","","<div style='text-align: center;'>
                            <span style=""color: red; font-size: 40px""><b>错误！+0 pts</b></span></div>
                            ","","learn","1","1","1","learn","6","6","[0, 1, 2, 3, 4, 5, 6, 7, 8, 9]","19","6","setsize","3S10A","food","1","0","2","0",""
"null","null","fixation","html-keyboard-response","120","207743","0.0-1.0-7.0-3.0-0.20","07:09:39","2","","","","","","","fixation","","","","","","","","","","","","","","","","","","",""
"1065","0","pic_response","html-keyboard-response","121","208808","0.0-1.0-7.0-3.0-1.20","07:09:39","2","","","","","","","<div>
            <img class='stim' src=""pictures/food/2.jpg""></div><div class=""button_prompt"">
                    <b>请用数字键0-9回答</b>
                    </div>","","","","","","","","","","","","","","","","","","",""
"1065","null","sub_response","html-keyboard-response","122","209817","0.0-1.0-7.0-3.0-2.20","07:09:39","2","","","","","","","<div style='text-align: center;'>
                            <span style=""color: green; font-size: 40px""><b>正确！+1 pts</b></span></div>
                            ","","learn","2","2","2","learn","9","9","[0, 1, 2, 3, 4, 5, 6, 7, 8, 9]","20","6","setsize","3S10A","food","1","1","9","1",""
"null","null","fixation","html-keyboard-response","123","210318","0.0-1.0-7.0-3.0-0.21","07:09:39","2","","","","","","","fixation","","","","","","","","","","","","","","","","","","",""
"225","5","pic_response","html-keyboard-response","124","210544","0.0-1.0-7.0-3.0-1.21","07:09:39","2","","","","","","","<div>
            <img class='stim' src=""pictures/food/2.jpg""></div><div class=""button_prompt"">
                    <b>请用数字键0-9回答</b>
                    </div>","","","","","","","","","","","","","","","","","","",""
"225","null","sub_response","html-keyboard-response","125","211545","0.0-1.0-7.0-3.0-2.21","07:09:39","2","","","","","","","<div style='text-align: center;'>
                            <span style=""color: red; font-size: 40px""><b>错误！+0 pts</b></span></div>
                            ","","learn","2","2","2","learn","9","9","[0, 1, 2, 3, 4, 5, 6, 7, 8, 9]","21","7","setsize","3S10A","food","1","0","4","0",""
"null","null","fixation","html-keyboard-response","126","212047","0.0-1.0-7.0-3.0-0.22","07:09:39","2","","","","","","","fixation","","","","","","","","","","","","","","","","","","",""
"496","4","pic_response","html-keyboard-response","127","212544","0.0-1.0-7.0-3.0-1.22","07:09:39","2","","","","","","","<div>
            <img class='stim' src=""pictures/food/1.jpg""></div><div class=""button_prompt"">
                    <b>请用数字键0-9回答</b>
                    </div>","","","","","","","","","","","","","","","","","","",""
"496","null","sub_response","html-keyboard-response","128","213557","0.0-1.0-7.0-3.0-2.22","07:09:39","2","","","","","","","<div style='text-align: center;'>
                            <span style=""color: red; font-size: 40px""><b>错误！+0 pts</b></span></div>
                            ","","learn","1","1","1","learn","6","6","[0, 1, 2, 3, 4, 5, 6, 7, 8, 9]","22","7","setsize","3S10A","food","1","0","3","0",""
"null","null","fixation","html-keyboard-response","129","214059","0.0-1.0-7.0-3.0-0.23","07:09:39","2","","","","","","","fixation","","","","","","","","","","","","","","","","","","",""
"452","6","pic_response","html-keyboard-response","130","214512","0.0-1.0-7.0-3.0-1.23","07:09:39","2","","","","","","","<div>
            <img class='stim' src=""pictures/food/0.jpg""></div><div class=""button_prompt"">
                    <b>请用数字键0-9回答</b>
                    </div>","","","","","","","","","","","","","","","","","","",""
"452","null","sub_response","html-keyboard-response","131","215513","0.0-1.0-7.0-3.0-2.23","07:09:39","2","","","","","","","<div style='text-align: center;'>
                            <span style=""color: red; font-size: 40px""><b>错误！+0 pts</b></span></div>
                            ","","learn","0","0","0","learn","2","2","[0, 1, 2, 3, 4, 5, 6, 7, 8, 9]","23","7","setsize","3S10A","food","1","0","5","0",""
"null","null","fixation","html-keyboard-response","132","216014","0.0-1.0-7.0-3.0-0.24","07:09:39","2","","","","","","","fixation","","","","","","","","","","","","","","","","","","",""
"865","0","pic_response","html-keyboard-response","133","216880","0.0-1.0-7.0-3.0-1.24","07:09:39","2","","","","","","","<div>
            <img class='stim' src=""pictures/food/2.jpg""></div><div class=""button_prompt"">
                    <b>请用数字键0-9回答</b>
                    </div>","","","","","","","","","","","","","","","","","","",""
"865","null","sub_response","html-keyboard-response","134","217881","0.0-1.0-7.0-3.0-2.24","07:09:39","2","","","","","","","<div style='text-align: center;'>
                            <span style=""color: green; font-size: 40px""><b>正确！+1 pts</b></span></div>
                            ","","learn","2","2","2","learn","9","9","[0, 1, 2, 3, 4, 5, 6, 7, 8, 9]","24","8","setsize","3S10A","food","1","1","9","1",""
"null","null","fixation","html-keyboard-response","135","218382","0.0-1.0-7.0-3.0-0.25","07:09:39","2","","","","","","","fixation","","","","","","","","","","","","","","","","","","",""
"481","3","pic_response","html-keyboard-response","136","218864","0.0-1.0-7.0-3.0-1.25","07:09:39","2","","","","","","","<div>
            <img class='stim' src=""pictures/food/1.jpg""></div><div class=""button_prompt"">
                    <b>请用数字键0-9回答</b>
                    </div>","","","","","","","","","","","","","","","","","","",""
"481","null","sub_response","html-keyboard-response","137","219865","0.0-1.0-7.0-3.0-2.25","07:09:39","2","","","","","","","<div style='text-align: center;'>
                            <span style=""color: red; font-size: 40px""><b>错误！+0 pts</b></span></div>
                            ","","learn","1","1","1","learn","6","6","[0, 1, 2, 3, 4, 5, 6, 7, 8, 9]","25","8","setsize","3S10A","food","1","0","2","0",""
"null","null","fixation","html-keyboard-response","138","220366","0.0-1.0-7.0-3.0-0.26","07:09:39","2","","","","","","","fixation","","","","","","","","","","","","","","","","","","",""
"378","4","pic_response","html-keyboard-response","139","220744","0.0-1.0-7.0-3.0-1.26","07:09:39","2","","","","","","","<div>
            <img class='stim' src=""pictures/food/0.jpg""></div><div class=""button_prompt"">
                    <b>请用数字键0-9回答</b>
                    </div>","","","","","","","","","","","","","","","","","","",""
"378","null","sub_response","html-keyboard-response","140","221745","0.0-1.0-7.0-3.0-2.26","07:09:39","2","","","","","","","<div style='text-align: center;'>
                            <span style=""color: red; font-size: 40px""><b>错误！+0 pts</b></span></div>
                            ","","learn","0","0","0","learn","2","2","[0, 1, 2, 3, 4, 5, 6, 7, 8, 9]","26","8","setsize","3S10A","food","1","0","3","0",""
"null","null","fixation","html-keyboard-response","141","222247","0.0-1.0-7.0-3.0-0.27","07:09:39","2","","","","","","","fixation","","","","","","","","","","","","","","","","","","",""
"713","3","pic_response","html-keyboard-response","142","222960","0.0-1.0-7.0-3.0-1.27","07:09:39","2","","","","","","","<div>
            <img class='stim' src=""pictures/food/0.jpg""></div><div class=""button_prompt"">
                    <b>请用数字键0-9回答</b>
                    </div>","","","","","","","","","","","","","","","","","","",""
"713","null","sub_response","html-keyboard-response","143","223962","0.0-1.0-7.0-3.0-2.27","07:09:39","2","","","","","","","<div style='text-align: center;'>
                            <span style=""color: green; font-size: 40px""><b>正确！+1 pts</b></span></div>
                            ","","learn","0","0","0","learn","2","2","[0, 1, 2, 3, 4, 5, 6, 7, 8, 9]","27","9","setsize","3S10A","food","1","1","2","1",""
"null","null","fixation","html-keyboard-response","144","224463","0.0-1.0-7.0-3.0-0.28","07:09:39","2","","","","","","","fixation","","","","","","","","","","","","","","","","","","",""
"1080","2","pic_response","html-keyboard-response","145","225544","0.0-1.0-7.0-3.0-1.28","07:09:39","2","","","","","","","<div>
            <img class='stim' src=""pictures/food/1.jpg""></div><div class=""button_prompt"">
                    <b>请用数字键0-9回答</b>
                    </div>","","","","","","","","","","","","","","","","","","",""
"1080","null","sub_response","html-keyboard-response","146","226545","0.0-1.0-7.0-3.0-2.28","07:09:39","2","","","","","","","<div style='text-align: center;'>
                            <span style=""color: red; font-size: 40px""><b>错误！+0 pts</b></span></div>
                            ","","learn","1","1","1","learn","6","6","[0, 1, 2, 3, 4, 5, 6, 7, 8, 9]","28","9","setsize","3S10A","food","1","0","1","0",""
"null","null","fixation","html-keyboard-response","147","227048","0.0-1.0-7.0-3.0-0.29","07:09:39","2","","","","","","","fixation","","","","","","","","","","","","","","","","","","",""
"544","0","pic_response","html-keyboard-response","148","227592","0.0-1.0-7.0-3.0-1.29","07:09:39","2","","","","","","","<div>
            <img class='stim' src=""pictures/food/2.jpg""></div><div class=""button_prompt"">
                    <b>请用数字键0-9回答</b>
                    </div>","","","","","","","","","","","","","","","","","","",""
"544","null","sub_response","html-keyboard-response","149","228594","0.0-1.0-7.0-3.0-2.29","07:09:39","2","","","","","","","<div style='text-align: center;'>
                            <span style=""color: green; font-size: 40px""><b>正确！+1 pts</b></span></div>
                            ","","learn","2","2","2","learn","9","9","[0, 1, 2, 3, 4, 5, 6, 7, 8, 9]","29","9","setsize","3S10A","food","1","1","9","1",""
"null","null","fixation","html-keyboard-response","150","229095","0.0-1.0-7.0-3.0-0.30","07:09:39","2","","","","","","","fixation","","","","","","","","","","","","","","","","","","",""
"576","7","pic_response","html-keyboard-response","151","229672","0.0-1.0-7.0-3.0-1.30","07:09:39","2","","","","","","","<div>
            <img class='stim' src=""pictures/food/1.jpg""></div><div class=""button_prompt"">
                    <b>请用数字键0-9回答</b>
                    </div>","","","","","","","","","","","","","","","","","","",""
"576","null","sub_response","html-keyboard-response","152","230674","0.0-1.0-7.0-3.0-2.30","07:09:39","2","","","","","","","<div style='text-align: center;'>
                            <span style=""color: green; font-size: 40px""><b>正确！+1 pts</b></span></div>
                            ","","learn","1","1","1","learn","6","6","[0, 1, 2, 3, 4, 5, 6, 7, 8, 9]","30","10","setsize","3S10A","food","1","2","6","1",""
"null","null","fixation","html-keyboard-response","153","231175","0.0-1.0-7.0-3.0-0.31","07:09:39","2","","","","","","","fixation","","","","","","","","","","","","","","","","","","",""
"1177","3","pic_response","html-keyboard-response","154","232352","0.0-1.0-7.0-3.0-1.31","07:09:39","2","","","","","","","<div>
            <img class='stim' src=""pictures/food/0.jpg""></div><div class=""button_prompt"">
                    <b>请用数字键0-9回答</b>
                    </div>","","","","","","","","","","","","","","","","","","",""
"1177","null","sub_response","html-keyboard-response","155","233353","0.0-1.0-7.0-3.0-2.31","07:09:39","2","","","","","","","<div style='text-align: center;'>
                            <span style=""color: green; font-size: 40px""><b>正确！+1 pts</b></span></div>
                            ","","learn","0","0","0","learn","2","2","[0, 1, 2, 3, 4, 5, 6, 7, 8, 9]","31","10","setsize","3S10A","food","1","3","2","1",""
"null","null","fixation","html-keyboard-response","156","233854","0.0-1.0-7.0-3.0-0.32","07:09:39","2","","","","","","","fixation","","","","","","","","","","","","","","","","","","",""
"505","0","pic_response","html-keyboard-response","157","234360","0.0-1.0-7.0-3.0-1.32","07:09:39","2","","","","","","","<div>
            <img class='stim' src=""pictures/food/2.jpg""></div><div class=""button_prompt"">
                    <b>请用数字键0-9回答</b>
                    </div>","","","","","","","","","","","","","","","","","","",""
"505","null","sub_response","html-keyboard-response","158","235362","0.0-1.0-7.0-3.0-2.32","07:09:39","2","","","","","","","<div style='text-align: center;'>
                            <span style=""color: green; font-size: 40px""><b>正确！+1 pts</b></span></div>
                            ","","learn","2","2","2","learn","9","9","[0, 1, 2, 3, 4, 5, 6, 7, 8, 9]","32","10","setsize","3S10A","food","1","4","9","1",""
"null","null","fixation","html-keyboard-response","159","235862","0.0-1.0-7.0-3.0-0.33","07:09:39","2","","","","","","","fixation","","","","","","","","","","","","","","","","","","",""
"809","0","pic_response","html-keyboard-response","160","236672","0.0-1.0-7.0-3.0-1.33","07:09:39","2","","","","","","","<div>
            <img class='stim' src=""pictures/food/2.jpg""></div><div class=""button_prompt"">
                    <b>请用数字键0-9回答</b>
                    </div>","","","","","","","","","","","","","","","","","","",""
"809","null","sub_response","html-keyboard-response","161","237673","0.0-1.0-7.0-3.0-2.33","07:09:39","2","","","","","","","<div style='text-align: center;'>
                            <span style=""color: green; font-size: 40px""><b>正确！+1 pts</b></span></div>
                            ","","learn","2","2","2","learn","9","9","[0, 1, 2, 3, 4, 5, 6, 7, 8, 9]","33","11","setsize","3S10A","food","1","5","9","1",""
"null","null","fixation","html-keyboard-response","162","238174","0.0-1.0-7.0-3.0-0.34","07:09:39","2","","","","","","","fixation","","","","","","","","","","","","","","","","","","",""
"2305","7","pic_response","html-keyboard-response","163","240479","0.0-1.0-7.0-3.0-1.34","07:09:39","2","","","","","","","<div>
            <img class='stim' src=""pictures/food/0.jpg""></div><div class=""button_prompt"">
                    <b>请用数字键0-9回答</b>
                    </div>","","","","","","","","","","","","","","","","","","",""
"2305","null","sub_response","html-keyboard-response","164","241481","0.0-1.0-7.0-3.0-2.34","07:09:39","2","","","","","","","<div style='text-align: center;'>
                            <span style=""color: red; font-size: 40px""><b>错误！+0 pts</b></span></div>
                            ","","learn","0","0","0","learn","2","2","[0, 1, 2, 3, 4, 5, 6, 7, 8, 9]","34","11","setsize","3S10A","food","1","0","6","0",""
"null","null","fixation","html-keyboard-response","165","241981","0.0-1.0-7.0-3.0-0.35","07:09:39","2","","","","","","","fixation","","","","","","","","","","","","","","","","","","",""
"425","7","pic_response","html-keyboard-response","166","242407","0.0-1.0-7.0-3.0-1.35","07:09:39","2","","","","","","","<div>
            <img class='stim' src=""pictures/food/1.jpg""></div><div class=""button_prompt"">
                    <b>请用数字键0-9回答</b>
                    </div>","","","","","","","","","","","","","","","","","","",""
"425","null","sub_response","html-keyboard-response","167","243408","0.0-1.0-7.0-3.0-2.35","07:09:39","2","","","","","","","<div style='text-align: center;'>
                            <span style=""color: green; font-size: 40px""><b>正确！+1 pts</b></span></div>
                            ","","learn","1","1","1","learn","6","6","[0, 1, 2, 3, 4, 5, 6, 7, 8, 9]","35","11","setsize","3S10A","food","1","1","6","1",""
"null","null","fixation","html-keyboard-response","168","243909","0.0-1.0-7.0-3.0-0.36","07:09:39","2","","","","","","","fixation","","","","","","","","","","","","","","","","","","",""
"714","0","pic_response","html-keyboard-response","169","244623","0.0-1.0-7.0-3.0-1.36","07:09:39","2","","","","","","","<div>
            <img class='stim' src=""pictures/food/2.jpg""></div><div class=""button_prompt"">
                    <b>请用数字键0-9回答</b>
                    </div>","","","","","","","","","","","","","","","","","","",""
"714","null","sub_response","html-keyboard-response","170","245625","0.0-1.0-7.0-3.0-2.36","07:09:39","2","","","","","","","<div style='text-align: center;'>
                            <span style=""color: green; font-size: 40px""><b>正确！+1 pts</b></span></div>
                            ","","learn","2","2","2","learn","9","9","[0, 1, 2, 3, 4, 5, 6, 7, 8, 9]","36","12","setsize","3S10A","food","1","2","9","1",""
"null","null","fixation","html-keyboard-response","171","246126","0.0-1.0-7.0-3.0-0.37","07:09:39","2","","","","","","","fixation","","","","","","","","","","","","","","","","","","",""
"1441","7","pic_response","html-keyboard-response","172","247567","0.0-1.0-7.0-3.0-1.37","07:09:39","2","","","","","","","<div>
            <img class='stim' src=""pictures/food/1.jpg""></div><div class=""button_prompt"">
                    <b>请用数字键0-9回答</b>
                    </div>","","","","","","","","","","","","","","","","","","",""
"1441","null","sub_response","html-keyboard-response","173","248569","0.0-1.0-7.0-3.0-2.37","07:09:39","2","","","","","","","<div style='text-align: center;'>
                            <span style=""color: green; font-size: 40px""><b>正确！+1 pts</b></span></div>
                            ","","learn","1","1","1","learn","6","6","[0, 1, 2, 3, 4, 5, 6, 7, 8, 9]","37","12","setsize","3S10A","food","1","3","6","1",""
"null","null","fixation","html-keyboard-response","174","249082","0.0-1.0-7.0-3.0-0.38","07:09:39","2","","","","","","","fixation","","","","","","","","","","","","","","","","","","",""
"461","3","pic_response","html-keyboard-response","175","249543","0.0-1.0-7.0-3.0-1.38","07:09:39","2","","","","","","","<div>
            <img class='stim' src=""pictures/food/0.jpg""></div><div class=""button_prompt"">
                    <b>请用数字键0-9回答</b>
                    </div>","","","","","","","","","","","","","","","","","","",""
"461","null","sub_response","html-keyboard-response","176","250545","0.0-1.0-7.0-3.0-2.38","07:09:39","2","","","","","","","<div style='text-align: center;'>
                            <span style=""color: green; font-size: 40px""><b>正确！+1 pts</b></span></div>
                            ","","learn","0","0","0","learn","2","2","[0, 1, 2, 3, 4, 5, 6, 7, 8, 9]","38","12","setsize","3S10A","food","1","4","2","1",""
"null","null","fixation","html-keyboard-response","177","251046","0.0-1.0-7.0-3.0-0.39","07:09:39","2","","","","","","","fixation","","","","","","","","","","","","","","","","","","",""
"713","0","pic_response","html-keyboard-response","178","251759","0.0-1.0-7.0-3.0-1.39","07:09:39","2","","","","","","","<div>
            <img class='stim' src=""pictures/food/2.jpg""></div><div class=""button_prompt"">
                    <b>请用数字键0-9回答</b>
                    </div>","","","","","","","","","","","","","","","","","","",""
"713","null","sub_response","html-keyboard-response","179","252760","0.0-1.0-7.0-3.0-2.39","07:09:39","2","","","","","","","<div style='text-align: center;'>
                            <span style=""color: green; font-size: 40px""><b>正确！+1 pts</b></span></div>
                            ","","learn","2","2","2","learn","9","9","[0, 1, 2, 3, 4, 5, 6, 7, 8, 9]","39","13","setsize","3S10A","food","1","5","9","1",""
"null","null","fixation","html-keyboard-response","180","253262","0.0-1.0-7.0-3.0-0.40","07:09:39","2","","","","","","","fixation","","","","","","","","","","","","","","","","","","",""
"905","3","pic_response","html-keyboard-response","181","254167","0.0-1.0-7.0-3.0-1.40","07:09:39","2","","","","","","","<div>
            <img class='stim' src=""pictures/food/0.jpg""></div><div class=""button_prompt"">
                    <b>请用数字键0-9回答</b>
                    </div>","","","","","","","","","","","","","","","","","","",""
"905","null","sub_response","html-keyboard-response","182","255169","0.0-1.0-7.0-3.0-2.40","07:09:39","2","","","","","","","<div style='text-align: center;'>
                            <span style=""color: green; font-size: 40px""><b>正确！+1 pts</b></span></div>
                            ","","learn","0","0","0","learn","2","2","[0, 1, 2, 3, 4, 5, 6, 7, 8, 9]","40","13","setsize","3S10A","food","1","6","2","1",""
"null","null","fixation","html-keyboard-response","183","255670","0.0-1.0-7.0-3.0-0.41","07:09:39","2","","","","","","","fixation","","","","","","","","","","","","","","","","","","",""
"361","7","pic_response","html-keyboard-response","184","256032","0.0-1.0-7.0-3.0-1.41","07:09:39","2","","","","","","","<div>
            <img class='stim' src=""pictures/food/1.jpg""></div><div class=""button_prompt"">
                    <b>请用数字键0-9回答</b>
                    </div>","","","","","","","","","","","","","","","","","","",""
"361","null","sub_response","html-keyboard-response","185","257033","0.0-1.0-7.0-3.0-2.41","07:09:39","2","","","","","","","<div style='text-align: center;'>
                            <span style=""color: green; font-size: 40px""><b>正确！+1 pts</b></span></div>
                            ","","learn","1","1","1","learn","6","6","[0, 1, 2, 3, 4, 5, 6, 7, 8, 9]","41","13","setsize","3S10A","food","1","7","6","1",""
"null","null","fixation","html-keyboard-response","186","257534","0.0-1.0-7.0-3.0-0.42","07:09:39","2","","","","","","","fixation","","","","","","","","","","","","","","","","","","",""
"745","0","pic_response","html-keyboard-response","187","258280","0.0-1.0-7.0-3.0-1.42","07:09:39","2","","","","","","","<div>
            <img class='stim' src=""pictures/food/2.jpg""></div><div class=""button_prompt"">
                    <b>请用数字键0-9回答</b>
                    </div>","","","","","","","","","","","","","","","","","","",""
"745","null","sub_response","html-keyboard-response","188","259281","0.0-1.0-7.0-3.0-2.42","07:09:39","2","","","","","","","<div style='text-align: center;'>
                            <span style=""color: green; font-size: 40px""><b>正确！+1 pts</b></span></div>
                            ","","learn","2","2","2","learn","9","9","[0, 1, 2, 3, 4, 5, 6, 7, 8, 9]","42","14","setsize","3S10A","food","1","8","9","1",""
"null","null","fixation","html-keyboard-response","189","259782","0.0-1.0-7.0-3.0-0.43","07:09:39","2","","","","","","","fixation","","","","","","","","","","","","","","","","","","",""
"1281","3","pic_response","html-keyboard-response","190","261063","0.0-1.0-7.0-3.0-1.43","07:09:39","2","","","","","","","<div>
            <img class='stim' src=""pictures/food/0.jpg""></div><div class=""button_prompt"">
                    <b>请用数字键0-9回答</b>
                    </div>","","","","","","","","","","","","","","","","","","",""
"1281","null","sub_response","html-keyboard-response","191","262065","0.0-1.0-7.0-3.0-2.43","07:09:39","2","","","","","","","<div style='text-align: center;'>
                            <span style=""color: green; font-size: 40px""><b>正确！+1 pts</b></span></div>
                            ","","learn","0","0","0","learn","2","2","[0, 1, 2, 3, 4, 5, 6, 7, 8, 9]","43","14","setsize","3S10A","food","1","9","2","1",""
"null","null","fixation","html-keyboard-response","192","262566","0.0-1.0-7.0-3.0-0.44","07:09:39","2","","","","","","","fixation","","","","","","","","","","","","","","","","","","",""
"466","7","pic_response","html-keyboard-response","193","263032","0.0-1.0-7.0-3.0-1.44","07:09:39","2","","","","","","","<div>
            <img class='stim' src=""pictures/food/1.jpg""></div><div class=""button_prompt"">
                    <b>请用数字键0-9回答</b>
                    </div>","","","","","","","","","","","","","","","","","","",""
"466","null","sub_response","html-keyboard-response","194","264033","0.0-1.0-7.0-3.0-2.44","07:09:39","2","","","","","","","<div style='text-align: center;'>
                            <span style=""color: green; font-size: 40px""><b>正确！+1 pts</b></span></div>
                            ","","learn","1","1","1","learn","6","6","[0, 1, 2, 3, 4, 5, 6, 7, 8, 9]","44","14","setsize","3S10A","food","1","10","6","1",""
"null","null","fixation","html-keyboard-response","195","264535","0.0-1.0-7.0-3.0-0.45","07:09:39","2","","","","","","","fixation","","","","","","","","","","","","","","","","","","",""
"1264","7","pic_response","html-keyboard-response","196","265799","0.0-1.0-7.0-3.0-1.45","07:09:39","2","","","","","","","<div>
            <img class='stim' src=""pictures/food/1.jpg""></div><div class=""button_prompt"">
                    <b>请用数字键0-9回答</b>
                    </div>","","","","","","","","","","","","","","","","","","",""
"1264","null","sub_response","html-keyboard-response","197","266800","0.0-1.0-7.0-3.0-2.45","07:09:39","2","","","","","","","<div style='text-align: center;'>
                            <span style=""color: green; font-size: 40px""><b>正确！+1 pts</b></span></div>
                            ","","learn","1","1","1","learn","6","6","[0, 1, 2, 3, 4, 5, 6, 7, 8, 9]","45","15","setsize","3S10A","food","1","11","6","1",""
"1983"," ","","html-keyboard-response","198","268784","0.0-1.0-8.0","07:09:39","2","","","","","","","<div style=""font-size: 25px""><p>距下一个实验开始还有</p><div style=""font-size: 50px; color: blue""><p><span id=""clock"">1:00</span></div></p><p>按""空格""跳过休息</p></div>","","","","","","","","","","","","","","","","","","",""
"","","","preload","199","270385","0.0-1.0-9.0-0.0","07:09:39","2","true","false","[]","[]","[]","","","","","","","","","","","","","","","","","","","","",""
"1254"," ","","html-keyboard-response","200","271640","0.0-1.0-9.0-1.0","07:09:39","2","","","","","","","<div style='font-size: 32px; text-align: center;'
                    <p>请学习图片和数字之间的对应关系</p>
                    <p>我们将<span style='color: blue'><b> 告诉 </b></span>您选择的对错。请根据反馈学习。</p>
                    <p>请按""空格""继续实验。</p></div>","","","","","","","","","","","","","","","","","","",""
"6351"," ","inst","html-keyboard-response","201","277991","0.0-1.0-9.0-2.0","07:09:39","2","","","","","","","<img class='instruct_stim' src=""instruction/furniture10.PNG""></div>","","","","","","","","","","","","","","","","","","",""
"null","null","fixation","html-keyboard-response","202","278492","0.0-1.0-9.0-3.0-0.0","07:09:39","2","","","","","","","fixation","","","","","","","","","","","","","","","","","","",""
"1051","0","pic_response","html-keyboard-response","203","279543","0.0-1.0-9.0-3.0-1.0","07:09:39","2","","","","","","","<div>
            <img class='stim' src=""pictures/furniture/3.jpg""></div><div class=""button_prompt"">
                    <b>请用数字键0-9回答</b>
                    </div>","","","","","","","","","","","","","","","","","","",""
"1051","null","sub_response","html-keyboard-response","204","280545","0.0-1.0-9.0-3.0-2.0","07:09:39","2","","","","","","","<div style='text-align: center;'>
                            <span style=""color: red; font-size: 40px""><b>错误！+0 pts</b></span></div>
                            ","","learn","3","3","3","learn","3","3","[0, 1, 2, 3, 4, 5, 6, 7, 8, 9]","0","0","setsize","10S10A","furniture","2","0","9","0",""
"null","null","fixation","html-keyboard-response","205","281046","0.0-1.0-9.0-3.0-0.1","07:09:39","2","","","","","","","fixation","","","","","","","","","","","","","","","","","","",""
"232","9","pic_response","html-keyboard-response","206","281279","0.0-1.0-9.0-3.0-1.1","07:09:39","2","","","","","","","<div>
            <img class='stim' src=""pictures/furniture/5.jpg""></div><div class=""button_prompt"">
                    <b>请用数字键0-9回答</b>
                    </div>","","","","","","","","","","","","","","","","","","",""
"232","null","sub_response","html-keyboard-response","207","282280","0.0-1.0-9.0-3.0-2.1","07:09:39","2","","","","","","","<div style='text-align: center;'>
                            <span style=""color: red; font-size: 40px""><b>错误！+0 pts</b></span></div>
                            ","","learn","5","5","5","learn","5","5","[0, 1, 2, 3, 4, 5, 6, 7, 8, 9]","1","0","setsize","10S10A","furniture","2","0","8","0",""
"null","null","fixation","html-keyboard-response","208","282782","0.0-1.0-9.0-3.0-0.2","07:09:39","2","","","","","","","fixation","","","","","","","","","","","","","","","","","","",""
"401","0","pic_response","html-keyboard-response","209","283183","0.0-1.0-9.0-3.0-1.2","07:09:39","2","","","","","","","<div>
            <img class='stim' src=""pictures/furniture/6.jpg""></div><div class=""button_prompt"">
                    <b>请用数字键0-9回答</b>
                    </div>","","","","","","","","","","","","","","","","","","",""
"401","null","sub_response","html-keyboard-response","210","284185","0.0-1.0-9.0-3.0-2.2","07:09:39","2","","","","","","","<div style='text-align: center;'>
                            <span style=""color: red; font-size: 40px""><b>错误！+0 pts</b></span></div>
                            ","","learn","6","6","6","learn","6","6","[0, 1, 2, 3, 4, 5, 6, 7, 8, 9]","2","0","setsize","10S10A","furniture","2","0","9","0",""
"null","null","fixation","html-keyboard-response","211","284687","0.0-1.0-9.0-3.0-0.3","07:09:39","2","","","","","","","fixation","","","","","","","","","","","","","","","","","","",""
"392","0","pic_response","html-keyboard-response","212","285079","0.0-1.0-9.0-3.0-1.3","07:09:39","2","","","","","","","<div>
            <img class='stim' src=""pictures/furniture/2.jpg""></div><div class=""button_prompt"">
                    <b>请用数字键0-9回答</b>
                    </div>","","","","","","","","","","","","","","","","","","",""
"392","null","sub_response","html-keyboard-response","213","286080","0.0-1.0-9.0-3.0-2.3","07:09:39","2","","","","","","","<div style='text-align: center;'>
                            <span style=""color: red; font-size: 40px""><b>错误！+0 pts</b></span></div>
                            ","","learn","2","2","2","learn","2","2","[0, 1, 2, 3, 4, 5, 6, 7, 8, 9]","3","0","setsize","10S10A","furniture","2","0","9","0",""
"null","null","fixation","html-keyboard-response","214","286582","0.0-1.0-9.0-3.0-0.4","07:09:39","2","","","","","","","fixation","","","","","","","","","","","","","","","","","","",""
"497","8","pic_response","html-keyboard-response","215","287079","0.0-1.0-9.0-3.0-1.4","07:09:39","2","","","","","","","<div>
            <img class='stim' src=""pictures/furniture/9.jpg""></div><div class=""button_prompt"">
                    <b>请用数字键0-9回答</b>
                    </div>","","","","","","","","","","","","","","","","","","",""
"497","null","sub_response","html-keyboard-response","216","288080","0.0-1.0-9.0-3.0-2.4","07:09:39","2","","","","","","","<div style='text-align: center;'>
                            <span style=""color: red; font-size: 40px""><b>错误！+0 pts</b></span></div>
                            ","","learn","9","9","9","learn","9","9","[0, 1, 2, 3, 4, 5, 6, 7, 8, 9]","4","0","setsize","10S10A","furniture","2","0","7","0",""
"null","null","fixation","html-keyboard-response","217","288582","0.0-1.0-9.0-3.0-0.5","07:09:39","2","","","","","","","fixation","","","","","","","","","","","","","","","","","","",""
"433","0","pic_response","html-keyboard-response","218","289015","0.0-1.0-9.0-3.0-1.5","07:09:39","2","","","","","","","<div>
            <img class='stim' src=""pictures/furniture/4.jpg""></div><div class=""button_prompt"">
                    <b>请用数字键0-9回答</b>
                    </div>","","","","","","","","","","","","","","","","","","",""
"433","null","sub_response","html-keyboard-response","219","290018","0.0-1.0-9.0-3.0-2.5","07:09:39","2","","","","","","","<div style='text-align: center;'>
                            <span style=""color: red; font-size: 40px""><b>错误！+0 pts</b></span></div>
                            ","","learn","4","4","4","learn","4","4","[0, 1, 2, 3, 4, 5, 6, 7, 8, 9]","5","0","setsize","10S10A","furniture","2","0","9","0",""
"null","null","fixation","html-keyboard-response","220","290519","0.0-1.0-9.0-3.0-0.6","07:09:39","2","","","","","","","fixation","","","","","","","","","","","","","","","","","","",""
"216","5","pic_response","html-keyboard-response","221","290735","0.0-1.0-9.0-3.0-1.6","07:09:39","2","","","","","","","<div>
            <img class='stim' src=""pictures/furniture/8.jpg""></div><div class=""button_prompt"">
                    <b>请用数字键0-9回答</b>
                    </div>","","","","","","","","","","","","","","","","","","",""
"216","null","sub_response","html-keyboard-response","222","291737","0.0-1.0-9.0-3.0-2.6","07:09:39","2","","","","","","","<div style='text-align: center;'>
                            <span style=""color: red; font-size: 40px""><b>错误！+0 pts</b></span></div>
                            ","","learn","8","8","8","learn","8","8","[0, 1, 2, 3, 4, 5, 6, 7, 8, 9]","6","0","setsize","10S10A","furniture","2","0","4","0",""
"null","null","fixation","html-keyboard-response","223","292238","0.0-1.0-9.0-3.0-0.7","07:09:39","2","","","","","","","fixation","","","","","","","","","","","","","","","","","","",""
"225","4","pic_response","html-keyboard-response","224","292463","0.0-1.0-9.0-3.0-1.7","07:09:39","2","","","","","","","<div>
            <img class='stim' src=""pictures/furniture/7.jpg""></div><div class=""button_prompt"">
                    <b>请用数字键0-9回答</b>
                    </div>","","","","","","","","","","","","","","","","","","",""
"225","null","sub_response","html-keyboard-response","225","293465","0.0-1.0-9.0-3.0-2.7","07:09:39","2","","","","","","","<div style='text-align: center;'>
                            <span style=""color: red; font-size: 40px""><b>错误！+0 pts</b></span></div>
                            ","","learn","7","7","7","learn","7","7","[0, 1, 2, 3, 4, 5, 6, 7, 8, 9]","7","0","setsize","10S10A","furniture","2","0","3","0",""
"null","null","fixation","html-keyboard-response","226","293966","0.0-1.0-9.0-3.0-0.8","07:09:39","2","","","","","","","fixation","","","","","","","","","","","","","","","","","","",""
"697","8","pic_response","html-keyboard-response","227","294663","0.0-1.0-9.0-3.0-1.8","07:09:39","2","","","","","","","<div>
            <img class='stim' src=""pictures/furniture/0.jpg""></div><div class=""button_prompt"">
                    <b>请用数字键0-9回答</b>
                    </div>","","","","","","","","","","","","","","","","","","",""
"697","null","sub_response","html-keyboard-response","228","295664","0.0-1.0-9.0-3.0-2.8","07:09:39","2","","","","","","","<div style='text-align: center;'>
                            <span style=""color: red; font-size: 40px""><b>错误！+0 pts</b></span></div>
                            ","","learn","0","0","0","learn","0","0","[0, 1, 2, 3, 4, 5, 6, 7, 8, 9]","8","0","setsize","10S10A","furniture","2","0","7","0",""
"null","null","fixation","html-keyboard-response","229","296164","0.0-1.0-9.0-3.0-0.9","07:09:39","2","","","","","","","fixation","","","","","","","","","","","","","","","","","","",""
"314","3","pic_response","html-keyboard-response","230","296479","0.0-1.0-9.0-3.0-1.9","07:09:39","2","","","","","","","<div>
            <img class='stim' src=""pictures/furniture/1.jpg""></div><div class=""button_prompt"">
                    <b>请用数字键0-9回答</b>
                    </div>","","","","","","","","","","","","","","","","","","",""
"314","null","sub_response","html-keyboard-response","231","297481","0.0-1.0-9.0-3.0-2.9","07:09:39","2","","","","","","","<div style='text-align: center;'>
                            <span style=""color: red; font-size: 40px""><b>错误！+0 pts</b></span></div>
                            ","","learn","1","1","1","learn","1","1","[0, 1, 2, 3, 4, 5, 6, 7, 8, 9]","9","0","setsize","10S10A","furniture","2","0","2","0",""
"null","null","fixation","html-keyboard-response","232","297982","0.0-1.0-9.0-3.0-0.10","07:09:39","2","","","","","","","fixation","","","","","","","","","","","","","","","","","","",""
"264","7","pic_response","html-keyboard-response","233","298247","0.0-1.0-9.0-3.0-1.10","07:09:39","2","","","","","","","<div>
            <img class='stim' src=""pictures/furniture/3.jpg""></div><div class=""button_prompt"">
                    <b>请用数字键0-9回答</b>
                    </div>","","","","","","","","","","","","","","","","","","",""
"264","null","sub_response","html-keyboard-response","234","299249","0.0-1.0-9.0-3.0-2.10","07:09:39","2","","","","","","","<div style='text-align: center;'>
                            <span style=""color: red; font-size: 40px""><b>错误！+0 pts</b></span></div>
                            ","","learn","3","3","3","learn","3","3","[0, 1, 2, 3, 4, 5, 6, 7, 8, 9]","10","1","setsize","10S10A","furniture","2","0","6","0",""
"null","null","fixation","html-keyboard-response","235","299750","0.0-1.0-9.0-3.0-0.11","07:09:39","2","","","","","","","fixation","","","","","","","","","","","","","","","","","","",""
"368","6","pic_response","html-keyboard-response","236","300119","0.0-1.0-9.0-3.0-1.11","07:09:39","2","","","","","","","<div>
            <img class='stim' src=""pictures/furniture/7.jpg""></div><div class=""button_prompt"">
                    <b>请用数字键0-9回答</b>
                    </div>","","","","","","","","","","","","","","","","","","",""
"368","null","sub_response","html-keyboard-response","237","301121","0.0-1.0-9.0-3.0-2.11","07:09:39","2","","","","","","","<div style='text-align: center;'>
                            <span style=""color: red; font-size: 40px""><b>错误！+0 pts</b></span></div>
                            ","","learn","7","7","7","learn","7","7","[0, 1, 2, 3, 4, 5, 6, 7, 8, 9]","11","1","setsize","10S10A","furniture","2","0","5","0",""
"null","null","fixation","html-keyboard-response","238","301623","0.0-1.0-9.0-3.0-0.12","07:09:39","2","","","","","","","fixation","","","","","","","","","","","","","","","","","","",""
"112","5","pic_response","html-keyboard-response","239","301736","0.0-1.0-9.0-3.0-1.12","07:09:39","2","","","","","","","<div>
            <img class='stim' src=""pictures/furniture/2.jpg""></div><div class=""button_prompt"">
                    <b>请用数字键0-9回答</b>
                    </div>","","","","","","","","","","","","","","","","","","",""
"112","null","sub_response","html-keyboard-response","240","302749","0.0-1.0-9.0-3.0-2.12","07:09:39","2","","","","","","","<div style='text-align: center;'>
                            <span style=""color: red; font-size: 40px""><b>错误！+0 pts</b></span></div>
                            ","","learn","2","2","2","learn","2","2","[0, 1, 2, 3, 4, 5, 6, 7, 8, 9]","12","1","setsize","10S10A","furniture","2","0","4","0",""
"null","null","fixation","html-keyboard-response","241","303250","0.0-1.0-9.0-3.0-0.13","07:09:39","2","","","","","","","fixation","","","","","","","","","","","","","","","","","","",""
"253","1","pic_response","html-keyboard-response","242","303503","0.0-1.0-9.0-3.0-1.13","07:09:39","2","","","","","","","<div>
            <img class='stim' src=""pictures/furniture/6.jpg""></div><div class=""button_prompt"">
                    <b>请用数字键0-9回答</b>
                    </div>","","","","","","","","","","","","","","","","","","",""
"253","null","sub_response","html-keyboard-response","243","304505","0.0-1.0-9.0-3.0-2.13","07:09:39","2","","","","","","","<div style='text-align: center;'>
                            <span style=""color: red; font-size: 40px""><b>错误！+0 pts</b></span></div>
                            ","","learn","6","6","6","learn","6","6","[0, 1, 2, 3, 4, 5, 6, 7, 8, 9]","13","1","setsize","10S10A","furniture","2","0","0","0",""
"null","null","fixation","html-keyboard-response","244","305007","0.0-1.0-9.0-3.0-0.14","07:09:39","2","","","","","","","fixation","","","","","","","","","","","","","","","","","","",""
"280","0","pic_response","html-keyboard-response","245","305288","0.0-1.0-9.0-3.0-1.14","07:09:39","2","","","","","","","<div>
            <img class='stim' src=""pictures/furniture/4.jpg""></div><div class=""button_prompt"">
                    <b>请用数字键0-9回答</b>
                    </div>","","","","","","","","","","","","","","","","","","",""
"280","null","sub_response","html-keyboard-response","246","306290","0.0-1.0-9.0-3.0-2.14","07:09:39","2","","","","","","","<div style='text-align: center;'>
                            <span style=""color: red; font-size: 40px""><b>错误！+0 pts</b></span></div>
                            ","","learn","4","4","4","learn","4","4","[0, 1, 2, 3, 4, 5, 6, 7, 8, 9]","14","1","setsize","10S10A","furniture","2","0","9","0",""
"null","null","fixation","html-keyboard-response","247","306790","0.0-1.0-9.0-3.0-0.15","07:09:39","2","","","","","","","fixation","","","","","","","","","","","","","","","","","","",""
"441","0","pic_response","html-keyboard-response","248","307232","0.0-1.0-9.0-3.0-1.15","07:09:39","2","","","","","","","<div>
            <img class='stim' src=""pictures/furniture/5.jpg""></div><div class=""button_prompt"">
                    <b>请用数字键0-9回答</b>
                    </div>","","","","","","","","","","","","","","","","","","",""
"441","null","sub_response","html-keyboard-response","249","308232","0.0-1.0-9.0-3.0-2.15","07:09:39","2","","","","","","","<div style='text-align: center;'>
                            <span style=""color: red; font-size: 40px""><b>错误！+0 pts</b></span></div>
                            ","","learn","5","5","5","learn","5","5","[0, 1, 2, 3, 4, 5, 6, 7, 8, 9]","15","1","setsize","10S10A","furniture","2","0","9","0",""
"null","null","fixation","html-keyboard-response","250","308734","0.0-1.0-9.0-3.0-0.16","07:09:39","2","","","","","","","fixation","","","","","","","","","","","","","","","","","","",""
"289","0","pic_response","html-keyboard-response","251","309024","0.0-1.0-9.0-3.0-1.16","07:09:39","2","","","","","","","<div>
            <img class='stim' src=""pictures/furniture/1.jpg""></div><div class=""button_prompt"">
                    <b>请用数字键0-9回答</b>
                    </div>","","","","","","","","","","","","","","","","","","",""
"289","null","sub_response","html-keyboard-response","252","310025","0.0-1.0-9.0-3.0-2.16","07:09:39","2","","","","","","","<div style='text-align: center;'>
                            <span style=""color: red; font-size: 40px""><b>错误！+0 pts</b></span></div>
                            ","","learn","1","1","1","learn","1","1","[0, 1, 2, 3, 4, 5, 6, 7, 8, 9]","16","1","setsize","10S10A","furniture","2","0","9","0",""
"null","null","fixation","html-keyboard-response","253","310526","0.0-1.0-9.0-3.0-0.17","07:09:39","2","","","","","","","fixation","","","","","","","","","","","","","","","","","","",""
"385","0","pic_response","html-keyboard-response","254","310912","0.0-1.0-9.0-3.0-1.17","07:09:39","2","","","","","","","<div>
            <img class='stim' src=""pictures/furniture/8.jpg""></div><div class=""button_prompt"">
                    <b>请用数字键0-9回答</b>
                    </div>","","","","","","","","","","","","","","","","","","",""
"385","null","sub_response","html-keyboard-response","255","311914","0.0-1.0-9.0-3.0-2.17","07:09:39","2","","","","","","","<div style='text-align: center;'>
                            <span style=""color: red; font-size: 40px""><b>错误！+0 pts</b></span></div>
                            ","","learn","8","8","8","learn","8","8","[0, 1, 2, 3, 4, 5, 6, 7, 8, 9]","17","1","setsize","10S10A","furniture","2","0","9","0",""
"null","null","fixation","html-keyboard-response","256","312415","0.0-1.0-9.0-3.0-0.18","07:09:39","2","","","","","","","fixation","","","","","","","","","","","","","","","","","","",""
"304","0","pic_response","html-keyboard-response","257","312720","0.0-1.0-9.0-3.0-1.18","07:09:39","2","","","","","","","<div>
            <img class='stim' src=""pictures/furniture/0.jpg""></div><div class=""button_prompt"">
                    <b>请用数字键0-9回答</b>
                    </div>","","","","","","","","","","","","","","","","","","",""
"304","null","sub_response","html-keyboard-response","258","313722","0.0-1.0-9.0-3.0-2.18","07:09:39","2","","","","","","","<div style='text-align: center;'>
                            <span style=""color: red; font-size: 40px""><b>错误！+0 pts</b></span></div>
                            ","","learn","0","0","0","learn","0","0","[0, 1, 2, 3, 4, 5, 6, 7, 8, 9]","18","1","setsize","10S10A","furniture","2","0","9","0",""
"null","null","fixation","html-keyboard-response","259","314223","0.0-1.0-9.0-3.0-0.19","07:09:39","2","","","","","","","fixation","","","","","","","","","","","","","","","","","","",""
"488","0","pic_response","html-keyboard-response","260","314712","0.0-1.0-9.0-3.0-1.19","07:09:39","2","","","","","","","<div>
            <img class='stim' src=""pictures/furniture/9.jpg""></div><div class=""button_prompt"">
                    <b>请用数字键0-9回答</b>
                    </div>","","","","","","","","","","","","","","","","","","",""
"488","null","sub_response","html-keyboard-response","261","315728","0.0-1.0-9.0-3.0-2.19","07:09:39","2","","","","","","","<div style='text-align: center;'>
                            <span style=""color: green; font-size: 40px""><b>正确！+1 pts</b></span></div>
                            ","","learn","9","9","9","learn","9","9","[0, 1, 2, 3, 4, 5, 6, 7, 8, 9]","19","1","setsize","10S10A","furniture","2","1","9","1",""
"null","null","fixation","html-keyboard-response","262","316229","0.0-1.0-9.0-3.0-0.20","07:09:39","2","","","","","","","fixation","","","","","","","","","","","","","","","","","","",""
"522","9","pic_response","html-keyboard-response","263","316752","0.0-1.0-9.0-3.0-1.20","07:09:39","2","","","","","","","<div>
            <img class='stim' src=""pictures/furniture/8.jpg""></div><div class=""button_prompt"">
                    <b>请用数字键0-9回答</b>
                    </div>","","","","","","","","","","","","","","","","","","",""
"522","null","sub_response","html-keyboard-response","264","317754","0.0-1.0-9.0-3.0-2.20","07:09:39","2","","","","","","","<div style='text-align: center;'>
                            <span style=""color: green; font-size: 40px""><b>正确！+1 pts</b></span></div>
                            ","","learn","8","8","8","learn","8","8","[0, 1, 2, 3, 4, 5, 6, 7, 8, 9]","20","2","setsize","10S10A","furniture","2","2","8","1",""
"null","null","fixation","html-keyboard-response","265","318256","0.0-1.0-9.0-3.0-0.21","07:09:39","2","","","","","","","fixation","","","","","","","","","","","","","","","","","","",""
"519","8","pic_response","html-keyboard-response","266","318776","0.0-1.0-9.0-3.0-1.21","07:09:39","2","","","","","","","<div>
            <img class='stim' src=""pictures/furniture/3.jpg""></div><div class=""button_prompt"">
                    <b>请用数字键0-9回答</b>
                    </div>","","","","","","","","","","","","","","","","","","",""
"519","null","sub_response","html-keyboard-response","267","319777","0.0-1.0-9.0-3.0-2.21","07:09:39","2","","","","","","","<div style='text-align: center;'>
                            <span style=""color: red; font-size: 40px""><b>错误！+0 pts</b></span></div>
                            ","","learn","3","3","3","learn","3","3","[0, 1, 2, 3, 4, 5, 6, 7, 8, 9]","21","2","setsize","10S10A","furniture","2","0","7","0",""
"null","null","fixation","html-keyboard-response","268","320279","0.0-1.0-9.0-3.0-0.22","07:09:39","2","","","","","","","fixation","","","","","","","","","","","","","","","","","","",""
"1080","9","pic_response","html-keyboard-response","269","321360","0.0-1.0-9.0-3.0-1.22","07:09:39","2","","","","","","","<div>
            <img class='stim' src=""pictures/furniture/0.jpg""></div><div class=""button_prompt"">
                    <b>请用数字键0-9回答</b>
                    </div>","","","","","","","","","","","","","","","","","","",""
"1080","null","sub_response","html-keyboard-response","270","322362","0.0-1.0-9.0-3.0-2.22","07:09:39","2","","","","","","","<div style='text-align: center;'>
                            <span style=""color: red; font-size: 40px""><b>错误！+0 pts</b></span></div>
                            ","","learn","0","0","0","learn","0","0","[0, 1, 2, 3, 4, 5, 6, 7, 8, 9]","22","2","setsize","10S10A","furniture","2","0","8","0",""
"null","null","fixation","html-keyboard-response","271","322864","0.0-1.0-9.0-3.0-0.23","07:09:39","2","","","","","","","fixation","","","","","","","","","","","","","","","","","","",""
"624","7","pic_response","html-keyboard-response","272","323488","0.0-1.0-9.0-3.0-1.23","07:09:39","2","","","","","","","<div>
            <img class='stim' src=""pictures/furniture/2.jpg""></div><div class=""button_prompt"">
                    <b>请用数字键0-9回答</b>
                    </div>","","","","","","","","","","","","","","","","","","",""
"624","null","sub_response","html-keyboard-response","273","324490","0.0-1.0-9.0-3.0-2.23","07:09:39","2","","","","","","","<div style='text-align: center;'>
                            <span style=""color: red; font-size: 40px""><b>错误！+0 pts</b></span></div>
                            ","","learn","2","2","2","learn","2","2","[0, 1, 2, 3, 4, 5, 6, 7, 8, 9]","23","2","setsize","10S10A","furniture","2","0","6","0",""
"null","null","fixation","html-keyboard-response","274","324991","0.0-1.0-9.0-3.0-0.24","07:09:39","2","","","","","","","fixation","","","","","","","","","","","","","","","","","","",""
"537","4","pic_response","html-keyboard-response","275","325528","0.0-1.0-9.0-3.0-1.24","07:09:39","2","","","","","","","<div>
            <img class='stim' src=""pictures/furniture/6.jpg""></div><div class=""button_prompt"">
                    <b>请用数字键0-9回答</b>
                    </div>","","","","","","","","","","","","","","","","","","",""
"537","null","sub_response","html-keyboard-response","276","326529","0.0-1.0-9.0-3.0-2.24","07:09:39","2","","","","","","","<div style='text-align: center;'>
                            <span style=""color: red; font-size: 40px""><b>错误！+0 pts</b></span></div>
                            ","","learn","6","6","6","learn","6","6","[0, 1, 2, 3, 4, 5, 6, 7, 8, 9]","24","2","setsize","10S10A","furniture","2","0","3","0",""
"null","null","fixation","html-keyboard-response","277","327031","0.0-1.0-9.0-3.0-0.25","07:09:39","2","","","","","","","fixation","","","","","","","","","","","","","","","","","","",""
"416","3","pic_response","html-keyboard-response","278","327448","0.0-1.0-9.0-3.0-1.25","07:09:39","2","","","","","","","<div>
            <img class='stim' src=""pictures/furniture/4.jpg""></div><div class=""button_prompt"">
                    <b>请用数字键0-9回答</b>
                    </div>","","","","","","","","","","","","","","","","","","",""
"416","null","sub_response","html-keyboard-response","279","328449","0.0-1.0-9.0-3.0-2.25","07:09:39","2","","","","","","","<div style='text-align: center;'>
                            <span style=""color: red; font-size: 40px""><b>错误！+0 pts</b></span></div>
                            ","","learn","4","4","4","learn","4","4","[0, 1, 2, 3, 4, 5, 6, 7, 8, 9]","25","2","setsize","10S10A","furniture","2","0","2","0",""
"null","null","fixation","html-keyboard-response","280","328951","0.0-1.0-9.0-3.0-0.26","07:09:39","2","","","","","","","fixation","","","","","","","","","","","","","","","","","","",""
"337","2","pic_response","html-keyboard-response","281","329288","0.0-1.0-9.0-3.0-1.26","07:09:39","2","","","","","","","<div>
            <img class='stim' src=""pictures/furniture/5.jpg""></div><div class=""button_prompt"">
                    <b>请用数字键0-9回答</b>
                    </div>","","","","","","","","","","","","","","","","","","",""
"337","null","sub_response","html-keyboard-response","282","330289","0.0-1.0-9.0-3.0-2.26","07:09:39","2","","","","","","","<div style='text-align: center;'>
                            <span style=""color: red; font-size: 40px""><b>错误！+0 pts</b></span></div>
                            ","","learn","5","5","5","learn","5","5","[0, 1, 2, 3, 4, 5, 6, 7, 8, 9]","26","2","setsize","10S10A","furniture","2","0","1","0",""
"null","null","fixation","html-keyboard-response","283","330791","0.0-1.0-9.0-3.0-0.27","07:09:39","2","","","","","","","fixation","","","","","","","","","","","","","","","","","","",""
"760","5","pic_response","html-keyboard-response","284","331552","0.0-1.0-9.0-3.0-1.27","07:09:39","2","","","","","","","<div>
            <img class='stim' src=""pictures/furniture/7.jpg""></div><div class=""button_prompt"">
                    <b>请用数字键0-9回答</b>
                    </div>","","","","","","","","","","","","","","","","","","",""
"760","null","sub_response","html-keyboard-response","285","332554","0.0-1.0-9.0-3.0-2.27","07:09:39","2","","","","","","","<div style='text-align: center;'>
                            <span style=""color: red; font-size: 40px""><b>错误！+0 pts</b></span></div>
                            ","","learn","7","7","7","learn","7","7","[0, 1, 2, 3, 4, 5, 6, 7, 8, 9]","27","2","setsize","10S10A","furniture","2","0","4","0",""
"null","null","fixation","html-keyboard-response","286","333055","0.0-1.0-9.0-3.0-0.28","07:09:39","2","","","","","","","fixation","","","","","","","","","","","","","","","","","","",""
"240","6","pic_response","html-keyboard-response","287","333296","0.0-1.0-9.0-3.0-1.28","07:09:39","2","","","","","","","<div>
            <img class='stim' src=""pictures/furniture/1.jpg""></div><div class=""button_prompt"">
                    <b>请用数字键0-9回答</b>
                    </div>","","","","","","","","","","","","","","","","","","",""
"240","null","sub_response","html-keyboard-response","288","334297","0.0-1.0-9.0-3.0-2.28","07:09:39","2","","","","","","","<div style='text-align: center;'>
                            <span style=""color: red; font-size: 40px""><b>错误！+0 pts</b></span></div>
                            ","","learn","1","1","1","learn","1","1","[0, 1, 2, 3, 4, 5, 6, 7, 8, 9]","28","2","setsize","10S10A","furniture","2","0","5","0",""
"null","null","fixation","html-keyboard-response","289","334798","0.0-1.0-9.0-3.0-0.29","07:09:39","2","","","","","","","fixation","","","","","","","","","","","","","","","","","","",""
"1249","0","pic_response","html-keyboard-response","290","336048","0.0-1.0-9.0-3.0-1.29","07:09:39","2","","","","","","","<div>
            <img class='stim' src=""pictures/furniture/9.jpg""></div><div class=""button_prompt"">
                    <b>请用数字键0-9回答</b>
                    </div>","","","","","","","","","","","","","","","","","","",""
"1249","null","sub_response","html-keyboard-response","291","337049","0.0-1.0-9.0-3.0-2.29","07:09:39","2","","","","","","","<div style='text-align: center;'>
                            <span style=""color: green; font-size: 40px""><b>正确！+1 pts</b></span></div>
                            ","","learn","9","9","9","learn","9","9","[0, 1, 2, 3, 4, 5, 6, 7, 8, 9]","29","2","setsize","10S10A","furniture","2","1","9","1",""
"null","null","fixation","html-keyboard-response","292","337551","0.0-1.0-9.0-3.0-0.30","07:09:39","2","","","","","","","fixation","","","","","","","","","","","","","","","","","","",""
"1880","8","pic_response","html-keyboard-response","293","339432","0.0-1.0-9.0-3.0-1.30","07:09:39","2","","","","","","","<div>
            <img class='stim' src=""pictures/furniture/4.jpg""></div><div class=""button_prompt"">
                    <b>请用数字键0-9回答</b>
                    </div>","","","","","","","","","","","","","","","","","","",""
"1880","null","sub_response","html-keyboard-response","294","340433","0.0-1.0-9.0-3.0-2.30","07:09:39","2","","","","","","","<div style='text-align: center;'>
                            <span style=""color: red; font-size: 40px""><b>错误！+0 pts</b></span></div>
                            ","","learn","4","4","4","learn","4","4","[0, 1, 2, 3, 4, 5, 6, 7, 8, 9]","30","3","setsize","10S10A","furniture","2","0","7","0",""
"null","null","fixation","html-keyboard-response","295","340935","0.0-1.0-9.0-3.0-0.31","07:09:39","2","","","","","","","fixation","","","","","","","","","","","","","","","","","","",""
"584","5","pic_response","html-keyboard-response","296","341520","0.0-1.0-9.0-3.0-1.31","07:09:39","2","","","","","","","<div>
            <img class='stim' src=""pictures/furniture/3.jpg""></div><div class=""button_prompt"">
                    <b>请用数字键0-9回答</b>
                    </div>","","","","","","","","","","","","","","","","","","",""
"584","null","sub_response","html-keyboard-response","297","342520","0.0-1.0-9.0-3.0-2.31","07:09:39","2","","","","","","","<div style='text-align: center;'>
                            <span style=""color: red; font-size: 40px""><b>错误！+0 pts</b></span></div>
                            ","","learn","3","3","3","learn","3","3","[0, 1, 2, 3, 4, 5, 6, 7, 8, 9]","31","3","setsize","10S10A","furniture","2","0","4","0",""
"null","null","fixation","html-keyboard-response","298","343021","0.0-1.0-9.0-3.0-0.32","07:09:39","2","","","","","","","fixation","","","","","","","","","","","","","","","","","","",""
"834","1","pic_response","html-keyboard-response","299","343856","0.0-1.0-9.0-3.0-1.32","07:09:39","2","","","","","","","<div>
            <img class='stim' src=""pictures/furniture/1.jpg""></div><div class=""button_prompt"">
                    <b>请用数字键0-9回答</b>
                    </div>","","","","","","","","","","","","","","","","","","",""
"834","null","sub_response","html-keyboard-response","300","344858","0.0-1.0-9.0-3.0-2.32","07:09:39","2","","","","","","","<div style='text-align: center;'>
                            <span style=""color: red; font-size: 40px""><b>错误！+0 pts</b></span></div>
                            ","","learn","1","1","1","learn","1","1","[0, 1, 2, 3, 4, 5, 6, 7, 8, 9]","32","3","setsize","10S10A","furniture","2","0","0","0",""
"null","null","fixation","html-keyboard-response","301","345360","0.0-1.0-9.0-3.0-0.33","07:09:39","2","","","","","","","fixation","","","","","","","","","","","","","","","","","","",""
"384","1","pic_response","html-keyboard-response","302","345744","0.0-1.0-9.0-3.0-1.33","07:09:39","2","","","","","","","<div>
            <img class='stim' src=""pictures/furniture/9.jpg""></div><div class=""button_prompt"">
                    <b>请用数字键0-9回答</b>
                    </div>","","","","","","","","","","","","","","","","","","",""
"384","null","sub_response","html-keyboard-response","303","346744","0.0-1.0-9.0-3.0-2.33","07:09:39","2","","","","","","","<div style='text-align: center;'>
                            <span style=""color: red; font-size: 40px""><b>错误！+0 pts</b></span></div>
                            ","","learn","9","9","9","learn","9","9","[0, 1, 2, 3, 4, 5, 6, 7, 8, 9]","33","3","setsize","10S10A","furniture","2","0","0","0",""
"null","null","fixation","html-keyboard-response","304","347246","0.0-1.0-9.0-3.0-0.34","07:09:39","2","","","","","","","fixation","","","","","","","","","","","","","","","","","","",""
"1177","9","pic_response","html-keyboard-response","305","348424","0.0-1.0-9.0-3.0-1.34","07:09:39","2","","","","","","","<div>
            <img class='stim' src=""pictures/furniture/0.jpg""></div><div class=""button_prompt"">
                    <b>请用数字键0-9回答</b>
                    </div>","","","","","","","","","","","","","","","","","","",""
"1177","null","sub_response","html-keyboard-response","306","349426","0.0-1.0-9.0-3.0-2.34","07:09:39","2","","","","","","","<div style='text-align: center;'>
                            <span style=""color: red; font-size: 40px""><b>错误！+0 pts</b></span></div>
                            ","","learn","0","0","0","learn","0","0","[0, 1, 2, 3, 4, 5, 6, 7, 8, 9]","34","3","setsize","10S10A","furniture","2","0","8","0",""
"null","null","fixation","html-keyboard-response","307","349928","0.0-1.0-9.0-3.0-0.35","07:09:39","2","","","","","","","fixation","","","","","","","","","","","","","","","","","","",""
"495","9","pic_response","html-keyboard-response","308","350424","0.0-1.0-9.0-3.0-1.35","07:09:39","2","","","","","","","<div>
            <img class='stim' src=""pictures/furniture/8.jpg""></div><div class=""button_prompt"">
                    <b>请用数字键0-9回答</b>
                    </div>","","","","","","","","","","","","","","","","","","",""
"495","null","sub_response","html-keyboard-response","309","351426","0.0-1.0-9.0-3.0-2.35","07:09:39","2","","","","","","","<div style='text-align: center;'>
                            <span style=""color: green; font-size: 40px""><b>正确！+1 pts</b></span></div>
                            ","","learn","8","8","8","learn","8","8","[0, 1, 2, 3, 4, 5, 6, 7, 8, 9]","35","3","setsize","10S10A","furniture","2","1","8","1",""
"null","null","fixation","html-keyboard-response","310","351928","0.0-1.0-9.0-3.0-0.36","07:09:39","2","","","","","","","fixation","","","","","","","","","","","","","","","","","","",""
"559","2","pic_response","html-keyboard-response","311","352488","0.0-1.0-9.0-3.0-1.36","07:09:39","2","","","","","","","<div>
            <img class='stim' src=""pictures/furniture/6.jpg""></div><div class=""button_prompt"">
                    <b>请用数字键0-9回答</b>
                    </div>","","","","","","","","","","","","","","","","","","",""
"559","null","sub_response","html-keyboard-response","312","353489","0.0-1.0-9.0-3.0-2.36","07:09:39","2","","","","","","","<div style='text-align: center;'>
                            <span style=""color: red; font-size: 40px""><b>错误！+0 pts</b></span></div>
                            ","","learn","6","6","6","learn","6","6","[0, 1, 2, 3, 4, 5, 6, 7, 8, 9]","36","3","setsize","10S10A","furniture","2","0","1","0",""
"null","null","fixation","html-keyboard-response","313","353991","0.0-1.0-9.0-3.0-0.37","07:09:39","2","","","","","","","fixation","","","","","","","","","","","","","","","","","","",""
"489","2","pic_response","html-keyboard-response","314","354480","0.0-1.0-9.0-3.0-1.37","07:09:39","2","","","","","","","<div>
            <img class='stim' src=""pictures/furniture/7.jpg""></div><div class=""button_prompt"">
                    <b>请用数字键0-9回答</b>
                    </div>","","","","","","","","","","","","","","","","","","",""
"489","null","sub_response","html-keyboard-response","315","355481","0.0-1.0-9.0-3.0-2.37","07:09:39","2","","","","","","","<div style='text-align: center;'>
                            <span style=""color: red; font-size: 40px""><b>错误！+0 pts</b></span></div>
                            ","","learn","7","7","7","learn","7","7","[0, 1, 2, 3, 4, 5, 6, 7, 8, 9]","37","3","setsize","10S10A","furniture","2","0","1","0",""
"null","null","fixation","html-keyboard-response","316","355983","0.0-1.0-9.0-3.0-0.38","07:09:39","2","","","","","","","fixation","","","","","","","","","","","","","","","","","","",""
"632","2","pic_response","html-keyboard-response","317","356616","0.0-1.0-9.0-3.0-1.38","07:09:39","2","","","","","","","<div>
            <img class='stim' src=""pictures/furniture/5.jpg""></div><div class=""button_prompt"">
                    <b>请用数字键0-9回答</b>
                    </div>","","","","","","","","","","","","","","","","","","",""
"632","null","sub_response","html-keyboard-response","318","357617","0.0-1.0-9.0-3.0-2.38","07:09:39","2","","","","","","","<div style='text-align: center;'>
