"rt","response","screen_id","trial_type","trial_index","time_elapsed","internal_node_id","start_time","n_Prac","success","timeout","failed_images","failed_audio","failed_video","view_history","stimulus","question_order","stage","s","word","word_id","phase","a_cor","a_real","a_ava","trial","tps","task_type","block_typ","pic_typ","block_id","cum_r","a","r","plugin_name"
"31738","{""sub_id"":""Zilla"",""task_type"":""task1"",""name"":""Zilla"",""gender"":""F""}","basic_info","survey-html-form","0","31742","0.0-0.0","23:45:47","3","","","","","","","","","","","","","","","","","","","","","","","","","",""
"","","","preload","1","33031","0.0-1.0-0.0","23:45:47","3","true","false","[]","[]","[]","","","","","","","","","","","","","","","","","","","","",""
"","","","preload","2","33220","0.0-1.0-1.0","23:45:47","3","true","false","[]","[]","[]","","","","","","","","","","","","","","","","","","","","",""
"","","","fullscreen","3","35974","0.0-1.0-2.0","23:45:47","3","true","","","","","","","","","","","","","","","","","","","","","","","","",""
"30758","","instruct","instructions","4","66733","0.0-1.0-3.0-0.0","23:45:47","3","","","","","","[{""page_index"":0,""viewing_time"":14663},{""page_index"":1,""viewing_time"":8273},{""page_index"":2,""viewing_time"":7820}]","","","","","","","","","","","","","","","","","","","",""
"41518","{""Q0"":"""",""task1"":""<span style='font-size: 24px'>学习图片和数字的对应关系</span>"",""task2"":""<span style='font-size: 24px'> 数字键1-3 </span>"",""task3"":""<span style='font-size: 24px'> 看到图片选出正确对应的数字 </span>""}","question","survey-multi-choice","5","108254","0.0-1.0-3.0-1.0","23:45:47","3","","","","","","","","[0,1,2,3]","","","","","","","","","","","","","","","","","",""
"4093"," ","inst_q","html-keyboard-response","6","112353","0.0-1.0-3.0-2.0","23:45:47","3","","","","","","","inst","","1","","","","","","","","","","","","","","","","",""
"21744","","instruct","instructions","7","134099","0.0-1.0-3.1-0.1","23:45:47","3","","","","","","[{""page_index"":0,""viewing_time"":4260},{""page_index"":1,""viewing_time"":5575},{""page_index"":0,""viewing_time"":1671},{""page_index"":1,""viewing_time"":1043},{""page_index"":2,""viewing_time"":9195}]","","","","","","","","","","","","","","","","","","","",""
"12913","{""Q0"":"""",""task1"":""<span style='font-size: 24px'>学习图片和数字的对应关系</span>"",""task2"":""<span style='font-size: 24px'> 图片下方标注为可用的数字键（数字键1-3或0-9） </span>"",""task3"":""<span style='font-size: 24px'> 看到图片选出正确对应的数字 </span>""}","question","survey-multi-choice","8","147013","0.0-1.0-3.1-1.1","23:45:47","3","","","","","","","","[0,1,2,3]","","","","","","","","","","","","","","","","","",""
"3607"," ","inst_q","html-keyboard-response","9","150624","0.0-1.0-3.1-2.1","23:45:47","3","","","","","","","inst","","1","","","","","","","","","","","","","","","","",""
"","","","preload","10","150738","0.0-1.0-4.0-0.0","23:45:47","3","true","false","[]","[]","[]","","","","","","","","","","","","","","","","","","","","",""
"5127"," ","","html-keyboard-response","11","155866","0.0-1.0-4.0-1.0","23:45:47","3","","","","","","","<div style='font-size: 32px; text-align: center;'
                    <p>请学习图片和数字之间的对应关系</p>
                    <p>我们将<span style='color: blue'><b> 告诉 </b></span>您选择的对错。请根据反馈学习。</p>
                    <p>请按""空格""继续实验。</p></div>","","","","","","","","","","","","","","","","","","",""
"12107"," ","inst","html-keyboard-response","12","167974","0.0-1.0-4.0-2.0","23:45:47","3","","","","","","","<img class='instruct_stim' src=""instruction/prac3.PNG""></div>","","","","","","","","","","","","","","","","","","",""
"null","null","fixation","html-keyboard-response","13","168476","0.0-1.0-4.0-3.0-0.0","23:45:47","3","","","","","","","fixation","","","","","","","","","","","","","","","","","","",""
"1706","1","pic_response","html-keyboard-response","14","170185","0.0-1.0-4.0-3.0-1.0","23:45:47","3","","","","","","","<div>
            <img class='stim' src=""pictures/prac/1.jpg""></div><div class=""button_prompt"">
                        <b>请用数字键1-3回答</b>
                        </div>","","","","","","","","","","","","","","","","","","",""
"1706","null","sub_response","html-keyboard-response","15","171187","0.0-1.0-4.0-3.0-2.0","23:45:47","3","","","","","","","<div style='text-align: center;'>
                            <span style=""color: green; font-size: 40px""><b>正确！+1 pts</b></span></div>
                            ","","learn","1","1","1","learn","0","0","[0, 1, 2]","0","0","setsize","99","prac","0","1","0","1",""
"null","null","fixation","html-keyboard-response","16","171689","0.0-1.0-4.0-3.0-0.1","23:45:47","3","","","","","","","fixation","","","","","","","","","","","","","","","","","","",""
"2237","3","pic_response","html-keyboard-response","17","173927","0.0-1.0-4.0-3.0-1.1","23:45:47","3","","","","","","","<div>
            <img class='stim' src=""pictures/prac/2.jpg""></div><div class=""button_prompt"">
                        <b>请用数字键1-3回答</b>
                        </div>","","","","","","","","","","","","","","","","","","",""
"2237","null","sub_response","html-keyboard-response","18","174931","0.0-1.0-4.0-3.0-2.1","23:45:47","3","","","","","","","<div style='text-align: center;'>
                            <span style=""color: green; font-size: 40px""><b>正确！+1 pts</b></span></div>
                            ","","learn","2","2","2","learn","2","2","[0, 1, 2]","1","0","setsize","99","prac","0","2","2","1",""
"null","null","fixation","html-keyboard-response","19","175432","0.0-1.0-4.0-3.0-0.2","23:45:47","3","","","","","","","fixation","","","","","","","","","","","","","","","","","","",""
"963","2","pic_response","html-keyboard-response","20","176396","0.0-1.0-4.0-3.0-1.2","23:45:47","3","","","","","","","<div>
            <img class='stim' src=""pictures/prac/0.jpg""></div><div class=""button_prompt"">
                        <b>请用数字键1-3回答</b>
                        </div>","","","","","","","","","","","","","","","","","","",""
"963","null","sub_response","html-keyboard-response","21","177397","0.0-1.0-4.0-3.0-2.2","23:45:47","3","","","","","","","<div style='text-align: center;'>
                            <span style=""color: red; font-size: 40px""><b>错误！+0 pts</b></span></div>
                            ","","learn","0","0","0","learn","0","0","[0, 1, 2]","2","0","setsize","99","prac","0","0","1","0",""
"null","null","fixation","html-keyboard-response","22","177898","0.0-1.0-4.0-3.0-0.3","23:45:47","3","","","","","","","fixation","","","","","","","","","","","","","","","","","","",""
"2353","3","pic_response","html-keyboard-response","23","180252","0.0-1.0-4.0-3.0-1.3","23:45:47","3","","","","","","","<div>
            <img class='stim' src=""pictures/prac/0.jpg""></div><div class=""button_prompt"">
                        <b>请用数字键1-3回答</b>
                        </div>","","","","","","","","","","","","","","","","","","",""
"2353","null","sub_response","html-keyboard-response","24","181253","0.0-1.0-4.0-3.0-2.3","23:45:47","3","","","","","","","<div style='text-align: center;'>
                            <span style=""color: red; font-size: 40px""><b>错误！+0 pts</b></span></div>
                            ","","learn","0","0","0","learn","0","0","[0, 1, 2]","3","1","setsize","99","prac","0","0","2","0",""
"null","null","fixation","html-keyboard-response","25","181754","0.0-1.0-4.0-3.0-0.4","23:45:47","3","","","","","","","fixation","","","","","","","","","","","","","","","","","","",""
"2216","3","pic_response","html-keyboard-response","26","183971","0.0-1.0-4.0-3.0-1.4","23:45:47","3","","","","","","","<div>
            <img class='stim' src=""pictures/prac/2.jpg""></div><div class=""button_prompt"">
                        <b>请用数字键1-3回答</b>
                        </div>","","","","","","","","","","","","","","","","","","",""
"2216","null","sub_response","html-keyboard-response","27","184985","0.0-1.0-4.0-3.0-2.4","23:45:47","3","","","","","","","<div style='text-align: center;'>
                            <span style=""color: green; font-size: 40px""><b>正确！+1 pts</b></span></div>
                            ","","learn","2","2","2","learn","2","2","[0, 1, 2]","4","1","setsize","99","prac","0","1","2","1",""
"null","null","fixation","html-keyboard-response","28","185487","0.0-1.0-4.0-3.0-0.5","23:45:47","3","","","","","","","fixation","","","","","","","","","","","","","","","","","","",""
"1700","2","pic_response","html-keyboard-response","29","187189","0.0-1.0-4.0-3.0-1.5","23:45:47","3","","","","","","","<div>
            <img class='stim' src=""pictures/prac/1.jpg""></div><div class=""button_prompt"">
                        <b>请用数字键1-3回答</b>
                        </div>","","","","","","","","","","","","","","","","","","",""
"1700","null","sub_response","html-keyboard-response","30","188190","0.0-1.0-4.0-3.0-2.5","23:45:47","3","","","","","","","<div style='text-align: center;'>
                            <span style=""color: red; font-size: 40px""><b>错误！+0 pts</b></span></div>
                            ","","learn","1","1","1","learn","0","0","[0, 1, 2]","5","1","setsize","99","prac","0","0","1","0",""
"","","","preload","31","188192","0.0-1.0-4.1-0.1","23:45:47","3","true","false","[]","[]","[]","","","","","","","","","","","","","","","","","","","","",""
"2459"," ","","html-keyboard-response","32","190652","0.0-1.0-4.1-1.1","23:45:47","3","","","","","","","<div style='font-size: 32px; text-align: center;'
                    <p>请学习图片和数字之间的对应关系</p>
                    <p>我们将<span style='color: blue'><b> 告诉 </b></span>您选择的对错。请根据反馈学习。</p>
                    <p>请按""空格""继续实验。</p></div>","","","","","","","","","","","","","","","","","","",""
"1289"," ","inst","html-keyboard-response","33","191941","0.0-1.0-4.1-2.1","23:45:47","3","","","","","","","<img class='instruct_stim' src=""instruction/prac3.PNG""></div>","","","","","","","","","","","","","","","","","","",""
"null","null","fixation","html-keyboard-response","34","192442","0.0-1.0-4.1-3.1-0.6","23:45:47","3","","","","","","","fixation","","","","","","","","","","","","","","","","","","",""
"908","2","pic_response","html-keyboard-response","35","193351","0.0-1.0-4.1-3.1-1.6","23:45:47","3","","","","","","","<div>
            <img class='stim' src=""pictures/prac/1.jpg""></div><div class=""button_prompt"">
                        <b>请用数字键1-3回答</b>
                        </div>","","","","","","","","","","","","","","","","","","",""
"908","null","sub_response","html-keyboard-response","36","194352","0.0-1.0-4.1-3.1-2.6","23:45:47","3","","","","","","","<div style='text-align: center;'>
                            <span style=""color: red; font-size: 40px""><b>错误！+0 pts</b></span></div>
                            ","","learn","1","1","1","learn","0","0","[0, 1, 2]","0","0","setsize","99","prac","0","0","1","0",""
"null","null","fixation","html-keyboard-response","37","194854","0.0-1.0-4.1-3.1-0.7","23:45:47","3","","","","","","","fixation","","","","","","","","","","","","","","","","","","",""
"941","3","pic_response","html-keyboard-response","38","195796","0.0-1.0-4.1-3.1-1.7","23:45:47","3","","","","","","","<div>
            <img class='stim' src=""pictures/prac/2.jpg""></div><div class=""button_prompt"">
                        <b>请用数字键1-3回答</b>
                        </div>","","","","","","","","","","","","","","","","","","",""
"941","null","sub_response","html-keyboard-response","39","196798","0.0-1.0-4.1-3.1-2.7","23:45:47","3","","","","","","","<div style='text-align: center;'>
                            <span style=""color: green; font-size: 40px""><b>正确！+1 pts</b></span></div>
                            ","","learn","2","2","2","learn","2","2","[0, 1, 2]","1","0","setsize","99","prac","0","1","2","1",""
"null","null","fixation","html-keyboard-response","40","197300","0.0-1.0-4.1-3.1-0.8","23:45:47","3","","","","","","","fixation","","","","","","","","","","","","","","","","","","",""
"1869","2","pic_response","html-keyboard-response","41","199170","0.0-1.0-4.1-3.1-1.8","23:45:47","3","","","","","","","<div>
            <img class='stim' src=""pictures/prac/0.jpg""></div><div class=""button_prompt"">
                        <b>请用数字键1-3回答</b>
                        </div>","","","","","","","","","","","","","","","","","","",""
"1869","null","sub_response","html-keyboard-response","42","200171","0.0-1.0-4.1-3.1-2.8","23:45:47","3","","","","","","","<div style='text-align: center;'>
                            <span style=""color: red; font-size: 40px""><b>错误！+0 pts</b></span></div>
                            ","","learn","0","0","0","learn","0","0","[0, 1, 2]","2","0","setsize","99","prac","0","0","1","0",""
"null","null","fixation","html-keyboard-response","43","200673","0.0-1.0-4.1-3.1-0.9","23:45:47","3","","","","","","","fixation","","","","","","","","","","","","","","","","","","",""
"1052","1","pic_response","html-keyboard-response","44","201727","0.0-1.0-4.1-3.1-1.9","23:45:47","3","","","","","","","<div>
            <img class='stim' src=""pictures/prac/0.jpg""></div><div class=""button_prompt"">
                        <b>请用数字键1-3回答</b>
                        </div>","","","","","","","","","","","","","","","","","","",""
"1052","null","sub_response","html-keyboard-response","45","202743","0.0-1.0-4.1-3.1-2.9","23:45:47","3","","","","","","","<div style='text-align: center;'>
                            <span style=""color: green; font-size: 40px""><b>正确！+1 pts</b></span></div>
                            ","","learn","0","0","0","learn","0","0","[0, 1, 2]","3","1","setsize","99","prac","0","1","0","1",""
"null","null","fixation","html-keyboard-response","46","203244","0.0-1.0-4.1-3.1-0.10","23:45:47","3","","","","","","","fixation","","","","","","","","","","","","","","","","","","",""
"1351","3","pic_response","html-keyboard-response","47","204597","0.0-1.0-4.1-3.1-1.10","23:45:47","3","","","","","","","<div>
            <img class='stim' src=""pictures/prac/2.jpg""></div><div class=""button_prompt"">
                        <b>请用数字键1-3回答</b>
                        </div>","","","","","","","","","","","","","","","","","","",""
"1351","null","sub_response","html-keyboard-response","48","205598","0.0-1.0-4.1-3.1-2.10","23:45:47","3","","","","","","","<div style='text-align: center;'>
                            <span style=""color: green; font-size: 40px""><b>正确！+1 pts</b></span></div>
                            ","","learn","2","2","2","learn","2","2","[0, 1, 2]","4","1","setsize","99","prac","0","2","2","1",""
"null","null","fixation","html-keyboard-response","49","206103","0.0-1.0-4.1-3.1-0.11","23:45:47","3","","","","","","","fixation","","","","","","","","","","","","","","","","","","",""
"520","2","pic_response","html-keyboard-response","50","206624","0.0-1.0-4.1-3.1-1.11","23:45:47","3","","","","","","","<div>
            <img class='stim' src=""pictures/prac/1.jpg""></div><div class=""button_prompt"">
                        <b>请用数字键1-3回答</b>
                        </div>","","","","","","","","","","","","","","","","","","",""
"520","null","sub_response","html-keyboard-response","51","207626","0.0-1.0-4.1-3.1-2.11","23:45:47","3","","","","","","","<div style='text-align: center;'>
                            <span style=""color: red; font-size: 40px""><b>错误！+0 pts</b></span></div>
                            ","","learn","1","1","1","learn","0","0","[0, 1, 2]","5","1","setsize","99","prac","0","0","1","0",""
"","","","preload","52","207629","0.0-1.0-4.2-0.2","23:45:47","3","true","false","[]","[]","[]","","","","","","","","","","","","","","","","","","","","",""
"1212"," ","","html-keyboard-response","53","208842","0.0-1.0-4.2-1.2","23:45:47","3","","","","","","","<div style='font-size: 32px; text-align: center;'
                    <p>请学习图片和数字之间的对应关系</p>
                    <p>我们将<span style='color: blue'><b> 告诉 </b></span>您选择的对错。请根据反馈学习。</p>
                    <p>请按""空格""继续实验。</p></div>","","","","","","","","","","","","","","","","","","",""
"6144"," ","inst","html-keyboard-response","54","214988","0.0-1.0-4.2-2.2","23:45:47","3","","","","","","","<img class='instruct_stim' src=""instruction/prac3.PNG""></div>","","","","","","","","","","","","","","","","","","",""
"null","null","fixation","html-keyboard-response","55","215489","0.0-1.0-4.2-3.2-0.12","23:45:47","3","","","","","","","fixation","","","","","","","","","","","","","","","","","","",""
"491","1","pic_response","html-keyboard-response","56","215981","0.0-1.0-4.2-3.2-1.12","23:45:47","3","","","","","","","<div>
            <img class='stim' src=""pictures/prac/1.jpg""></div><div class=""button_prompt"">
                        <b>请用数字键1-3回答</b>
                        </div>","","","","","","","","","","","","","","","","","","",""
"491","null","sub_response","html-keyboard-response","57","216982","0.0-1.0-4.2-3.2-2.12","23:45:47","3","","","","","","","<div style='text-align: center;'>
                            <span style=""color: green; font-size: 40px""><b>正确！+1 pts</b></span></div>
                            ","","learn","1","1","1","learn","0","0","[0, 1, 2]","0","0","setsize","99","prac","0","1","0","1",""
"null","null","fixation","html-keyboard-response","58","217484","0.0-1.0-4.2-3.2-0.13","23:45:47","3","","","","","","","fixation","","","","","","","","","","","","","","","","","","",""
"915","3","pic_response","html-keyboard-response","59","218400","0.0-1.0-4.2-3.2-1.13","23:45:47","3","","","","","","","<div>
            <img class='stim' src=""pictures/prac/2.jpg""></div><div class=""button_prompt"">
                        <b>请用数字键1-3回答</b>
                        </div>","","","","","","","","","","","","","","","","","","",""
"915","null","sub_response","html-keyboard-response","60","219402","0.0-1.0-4.2-3.2-2.13","23:45:47","3","","","","","","","<div style='text-align: center;'>
                            <span style=""color: green; font-size: 40px""><b>正确！+1 pts</b></span></div>
                            ","","learn","2","2","2","learn","2","2","[0, 1, 2]","1","0","setsize","99","prac","0","2","2","1",""
"null","null","fixation","html-keyboard-response","61","219904","0.0-1.0-4.2-3.2-0.14","23:45:47","3","","","","","","","fixation","","","","","","","","","","","","","","","","","","",""
"401","2","pic_response","html-keyboard-response","62","220307","0.0-1.0-4.2-3.2-1.14","23:45:47","3","","","","","","","<div>
            <img class='stim' src=""pictures/prac/0.jpg""></div><div class=""button_prompt"">
                        <b>请用数字键1-3回答</b>
                        </div>","","","","","","","","","","","","","","","","","","",""
"401","null","sub_response","html-keyboard-response","63","221308","0.0-1.0-4.2-3.2-2.14","23:45:47","3","","","","","","","<div style='text-align: center;'>
                            <span style=""color: red; font-size: 40px""><b>错误！+0 pts</b></span></div>
                            ","","learn","0","0","0","learn","0","0","[0, 1, 2]","2","0","setsize","99","prac","0","0","1","0",""
"null","null","fixation","html-keyboard-response","64","221820","0.0-1.0-4.2-3.2-0.15","23:45:47","3","","","","","","","fixation","","","","","","","","","","","","","","","","","","",""
"1524","1","pic_response","html-keyboard-response","65","223345","0.0-1.0-4.2-3.2-1.15","23:45:47","3","","","","","","","<div>
            <img class='stim' src=""pictures/prac/0.jpg""></div><div class=""button_prompt"">
                        <b>请用数字键1-3回答</b>
                        </div>","","","","","","","","","","","","","","","","","","",""
"1524","null","sub_response","html-keyboard-response","66","224347","0.0-1.0-4.2-3.2-2.15","23:45:47","3","","","","","","","<div style='text-align: center;'>
                            <span style=""color: green; font-size: 40px""><b>正确！+1 pts</b></span></div>
                            ","","learn","0","0","0","learn","0","0","[0, 1, 2]","3","1","setsize","99","prac","0","1","0","1",""
"null","null","fixation","html-keyboard-response","67","224848","0.0-1.0-4.2-3.2-0.16","23:45:47","3","","","","","","","fixation","","","","","","","","","","","","","","","","","","",""
"1001","3","pic_response","html-keyboard-response","68","225850","0.0-1.0-4.2-3.2-1.16","23:45:47","3","","","","","","","<div>
            <img class='stim' src=""pictures/prac/2.jpg""></div><div class=""button_prompt"">
                        <b>请用数字键1-3回答</b>
                        </div>","","","","","","","","","","","","","","","","","","",""
"1001","null","sub_response","html-keyboard-response","69","226851","0.0-1.0-4.2-3.2-2.16","23:45:47","3","","","","","","","<div style='text-align: center;'>
                            <span style=""color: green; font-size: 40px""><b>正确！+1 pts</b></span></div>
                            ","","learn","2","2","2","learn","2","2","[0, 1, 2]","4","1","setsize","99","prac","0","2","2","1",""
"null","null","fixation","html-keyboard-response","70","227354","0.0-1.0-4.2-3.2-0.17","23:45:47","3","","","","","","","fixation","","","","","","","","","","","","","","","","","","",""
"590","1","pic_response","html-keyboard-response","71","227944","0.0-1.0-4.2-3.2-1.17","23:45:47","3","","","","","","","<div>
            <img class='stim' src=""pictures/prac/1.jpg""></div><div class=""button_prompt"">
                        <b>请用数字键1-3回答</b>
                        </div>","","","","","","","","","","","","","","","","","","",""
"590","null","sub_response","html-keyboard-response","72","228958","0.0-1.0-4.2-3.2-2.17","23:45:47","3","","","","","","","<div style='text-align: center;'>
                            <span style=""color: green; font-size: 40px""><b>正确！+1 pts</b></span></div>
                            ","","learn","1","1","1","learn","0","0","[0, 1, 2]","5","1","setsize","99","prac","0","3","0","1",""
"3751"," ","","html-keyboard-response","73","232710","0.0-1.0-5.0","23:45:47","3","","","","","","","<div style=""font-size: 25px""><p>距下一个实验开始还有</p><div style=""font-size: 50px; color: blue""><p><span id=""clock"">1:00</span></div></p><p>按""空格""跳过休息</p></div>","","","","","","","","","","","","","","","","","","",""
"2565"," ","","html-keyboard-response","74","235276","0.0-1.0-6.0","23:45:47","3","","","","","","","<div style='font-size: 32px; text-align: center;'
                    <p>请按""空格""继续正式实验。</p></div>","","","","","","","","","","","","","","","","","","",""
"","","","preload","75","235634","0.0-1.0-7.0-0.0","23:45:47","3","true","false","[]","[]","[]","","","","","","","","","","","","","","","","","","","","",""
"2154"," ","","html-keyboard-response","76","237789","0.0-1.0-7.0-1.0","23:45:47","3","","","","","","","<div style='font-size: 32px; text-align: center;'
                    <p>请学习图片和数字之间的对应关系</p>
                    <p>我们将<span style='color: blue'><b> 告诉 </b></span>您选择的对错。请根据反馈学习。</p>
                    <p>请按""空格""继续实验。</p></div>","","","","","","","","","","","","","","","","","","",""
"8899"," ","inst","html-keyboard-response","77","246688","0.0-1.0-7.0-2.0","23:45:47","3","","","","","","","<img class='instruct_stim' src=""instruction/food3.PNG""></div>","","","","","","","","","","","","","","","","","","",""
"null","null","fixation","html-keyboard-response","78","247189","0.0-1.0-7.0-3.0-0.0","23:45:47","3","","","","","","","fixation","","","","","","","","","","","","","","","","","","",""
"761","1","pic_response","html-keyboard-response","79","247951","0.0-1.0-7.0-3.0-1.0","23:45:47","3","","","","","","","<div>
            <img class='stim' src=""pictures/food/2.jpg""></div><div class=""button_prompt"">
                        <b>请用数字键1-3回答</b>
                        </div>","","","","","","","","","","","","","","","","","","",""
"761","null","sub_response","html-keyboard-response","80","248954","0.0-1.0-7.0-3.0-2.0","23:45:47","3","","","","","","","<div style='text-align: center;'>
                            <span style=""color: red; font-size: 40px""><b>错误！+0 pts</b></span></div>
                            ","","learn","2","2","2","learn","2","2","[0, 1, 2]","0","0","setsize","3S3A","food","1","0","0","0",""
"null","null","fixation","html-keyboard-response","81","249456","0.0-1.0-7.0-3.0-0.1","23:45:47","3","","","","","","","fixation","","","","","","","","","","","","","","","","","","",""
"1043","1","pic_response","html-keyboard-response","82","250499","0.0-1.0-7.0-3.0-1.1","23:45:47","3","","","","","","","<div>
            <img class='stim' src=""pictures/food/1.jpg""></div><div class=""button_prompt"">
                        <b>请用数字键1-3回答</b>
                        </div>","","","","","","","","","","","","","","","","","","",""
"1043","null","sub_response","html-keyboard-response","83","251501","0.0-1.0-7.0-3.0-2.1","23:45:47","3","","","","","","","<div style='text-align: center;'>
                            <span style=""color: green; font-size: 40px""><b>正确！+1 pts</b></span></div>
                            ","","learn","1","1","1","learn","0","0","[0, 1, 2]","1","0","setsize","3S3A","food","1","1","0","1",""
"null","null","fixation","html-keyboard-response","84","252002","0.0-1.0-7.0-3.0-0.2","23:45:47","3","","","","","","","fixation","","","","","","","","","","","","","","","","","","",""
"1223","2","pic_response","html-keyboard-response","85","253226","0.0-1.0-7.0-3.0-1.2","23:45:47","3","","","","","","","<div>
            <img class='stim' src=""pictures/food/0.jpg""></div><div class=""button_prompt"">
                        <b>请用数字键1-3回答</b>
                        </div>","","","","","","","","","","","","","","","","","","",""
"1223","null","sub_response","html-keyboard-response","86","254227","0.0-1.0-7.0-3.0-2.2","23:45:47","3","","","","","","","<div style='text-align: center;'>
                            <span style=""color: red; font-size: 40px""><b>错误！+0 pts</b></span></div>
                            ","","learn","0","0","0","learn","0","0","[0, 1, 2]","2","0","setsize","3S3A","food","1","0","1","0",""
"null","null","fixation","html-keyboard-response","87","254727","0.0-1.0-7.0-3.0-0.3","23:45:47","3","","","","","","","fixation","","","","","","","","","","","","","","","","","","",""
"653","2","pic_response","html-keyboard-response","88","255381","0.0-1.0-7.0-3.0-1.3","23:45:47","3","","","","","","","<div>
            <img class='stim' src=""pictures/food/2.jpg""></div><div class=""button_prompt"">
                        <b>请用数字键1-3回答</b>
                        </div>","","","","","","","","","","","","","","","","","","",""
"653","null","sub_response","html-keyboard-response","89","256383","0.0-1.0-7.0-3.0-2.3","23:45:47","3","","","","","","","<div style='text-align: center;'>
                            <span style=""color: red; font-size: 40px""><b>错误！+0 pts</b></span></div>
                            ","","learn","2","2","2","learn","2","2","[0, 1, 2]","3","1","setsize","3S3A","food","1","0","1","0",""
"null","null","fixation","html-keyboard-response","90","256885","0.0-1.0-7.0-3.0-0.4","23:45:47","3","","","","","","","fixation","","","","","","","","","","","","","","","","","","",""
"2017","2","pic_response","html-keyboard-response","91","258902","0.0-1.0-7.0-3.0-1.4","23:45:47","3","","","","","","","<div>
            <img class='stim' src=""pictures/food/0.jpg""></div><div class=""button_prompt"">
                        <b>请用数字键1-3回答</b>
                        </div>","","","","","","","","","","","","","","","","","","",""
"2017","null","sub_response","html-keyboard-response","92","259903","0.0-1.0-7.0-3.0-2.4","23:45:47","3","","","","","","","<div style='text-align: center;'>
                            <span style=""color: red; font-size: 40px""><b>错误！+0 pts</b></span></div>
                            ","","learn","0","0","0","learn","0","0","[0, 1, 2]","4","1","setsize","3S3A","food","1","0","1","0",""
"null","null","fixation","html-keyboard-response","93","260407","0.0-1.0-7.0-3.0-0.5","23:45:47","3","","","","","","","fixation","","","","","","","","","","","","","","","","","","",""
"2152","1","pic_response","html-keyboard-response","94","262559","0.0-1.0-7.0-3.0-1.5","23:45:47","3","","","","","","","<div>
            <img class='stim' src=""pictures/food/1.jpg""></div><div class=""button_prompt"">
                        <b>请用数字键1-3回答</b>
                        </div>","","","","","","","","","","","","","","","","","","",""
"2152","null","sub_response","html-keyboard-response","95","263560","0.0-1.0-7.0-3.0-2.5","23:45:47","3","","","","","","","<div style='text-align: center;'>
                            <span style=""color: green; font-size: 40px""><b>正确！+1 pts</b></span></div>
                            ","","learn","1","1","1","learn","0","0","[0, 1, 2]","5","1","setsize","3S3A","food","1","1","0","1",""
"null","null","fixation","html-keyboard-response","96","264062","0.0-1.0-7.0-3.0-0.6","23:45:47","3","","","","","","","fixation","","","","","","","","","","","","","","","","","","",""
"825","1","pic_response","html-keyboard-response","97","264887","0.0-1.0-7.0-3.0-1.6","23:45:47","3","","","","","","","<div>
            <img class='stim' src=""pictures/food/1.jpg""></div><div class=""button_prompt"">
                        <b>请用数字键1-3回答</b>
                        </div>","","","","","","","","","","","","","","","","","","",""
"825","null","sub_response","html-keyboard-response","98","265890","0.0-1.0-7.0-3.0-2.6","23:45:47","3","","","","","","","<div style='text-align: center;'>
                            <span style=""color: green; font-size: 40px""><b>正确！+1 pts</b></span></div>
                            ","","learn","1","1","1","learn","0","0","[0, 1, 2]","6","2","setsize","3S3A","food","1","2","0","1",""
"null","null","fixation","html-keyboard-response","99","266396","0.0-1.0-7.0-3.0-0.7","23:45:47","3","","","","","","","fixation","","","","","","","","","","","","","","","","","","",""
"1093","3","pic_response","html-keyboard-response","100","267490","0.0-1.0-7.0-3.0-1.7","23:45:47","3","","","","","","","<div>
            <img class='stim' src=""pictures/food/0.jpg""></div><div class=""button_prompt"">
                        <b>请用数字键1-3回答</b>
                        </div>","","","","","","","","","","","","","","","","","","",""
"1093","null","sub_response","html-keyboard-response","101","268491","0.0-1.0-7.0-3.0-2.7","23:45:47","3","","","","","","","<div style='text-align: center;'>
                            <span style=""color: red; font-size: 40px""><b>错误！+0 pts</b></span></div>
                            ","","learn","0","0","0","learn","0","0","[0, 1, 2]","7","2","setsize","3S3A","food","1","0","2","0",""
"null","null","fixation","html-keyboard-response","102","268993","0.0-1.0-7.0-3.0-0.8","23:45:47","3","","","","","","","fixation","","","","","","","","","","","","","","","","","","",""
"862","3","pic_response","html-keyboard-response","103","269856","0.0-1.0-7.0-3.0-1.8","23:45:47","3","","","","","","","<div>
            <img class='stim' src=""pictures/food/2.jpg""></div><div class=""button_prompt"">
                        <b>请用数字键1-3回答</b>
                        </div>","","","","","","","","","","","","","","","","","","",""
"862","null","sub_response","html-keyboard-response","104","270861","0.0-1.0-7.0-3.0-2.8","23:45:47","3","","","","","","","<div style='text-align: center;'>
                            <span style=""color: green; font-size: 40px""><b>正确！+1 pts</b></span></div>
                            ","","learn","2","2","2","learn","2","2","[0, 1, 2]","8","2","setsize","3S3A","food","1","1","2","1",""
"null","null","fixation","html-keyboard-response","105","271362","0.0-1.0-7.0-3.0-0.9","23:45:47","3","","","","","","","fixation","","","","","","","","","","","","","","","","","","",""
"815","1","pic_response","html-keyboard-response","106","272178","0.0-1.0-7.0-3.0-1.9","23:45:47","3","","","","","","","<div>
            <img class='stim' src=""pictures/food/1.jpg""></div><div class=""button_prompt"">
                        <b>请用数字键1-3回答</b>
                        </div>","","","","","","","","","","","","","","","","","","",""
"815","null","sub_response","html-keyboard-response","107","273178","0.0-1.0-7.0-3.0-2.9","23:45:47","3","","","","","","","<div style='text-align: center;'>
                            <span style=""color: green; font-size: 40px""><b>正确！+1 pts</b></span></div>
                            ","","learn","1","1","1","learn","0","0","[0, 1, 2]","9","3","setsize","3S3A","food","1","2","0","1",""
"null","null","fixation","html-keyboard-response","108","273680","0.0-1.0-7.0-3.0-0.10","23:45:47","3","","","","","","","fixation","","","","","","","","","","","","","","","","","","",""
"1245","3","pic_response","html-keyboard-response","109","274926","0.0-1.0-7.0-3.0-1.10","23:45:47","3","","","","","","","<div>
            <img class='stim' src=""pictures/food/2.jpg""></div><div class=""button_prompt"">
                        <b>请用数字键1-3回答</b>
                        </div>","","","","","","","","","","","","","","","","","","",""
"1245","null","sub_response","html-keyboard-response","110","275928","0.0-1.0-7.0-3.0-2.10","23:45:47","3","","","","","","","<div style='text-align: center;'>
                            <span style=""color: green; font-size: 40px""><b>正确！+1 pts</b></span></div>
                            ","","learn","2","2","2","learn","2","2","[0, 1, 2]","10","3","setsize","3S3A","food","1","3","2","1",""
"null","null","fixation","html-keyboard-response","111","276429","0.0-1.0-7.0-3.0-0.11","23:45:47","3","","","","","","","fixation","","","","","","","","","","","","","","","","","","",""
"635","1","pic_response","html-keyboard-response","112","277066","0.0-1.0-7.0-3.0-1.11","23:45:47","3","","","","","","","<div>
            <img class='stim' src=""pictures/food/0.jpg""></div><div class=""button_prompt"">
                        <b>请用数字键1-3回答</b>
                        </div>","","","","","","","","","","","","","","","","","","",""
"635","null","sub_response","html-keyboard-response","113","278067","0.0-1.0-7.0-3.0-2.11","23:45:47","3","","","","","","","<div style='text-align: center;'>
                            <span style=""color: green; font-size: 40px""><b>正确！+1 pts</b></span></div>
                            ","","learn","0","0","0","learn","0","0","[0, 1, 2]","11","3","setsize","3S3A","food","1","4","0","1",""
"null","null","fixation","html-keyboard-response","114","278568","0.0-1.0-7.0-3.0-0.12","23:45:47","3","","","","","","","fixation","","","","","","","","","","","","","","","","","","",""
"802","1","pic_response","html-keyboard-response","115","279371","0.0-1.0-7.0-3.0-1.12","23:45:47","3","","","","","","","<div>
            <img class='stim' src=""pictures/food/1.jpg""></div><div class=""button_prompt"">
                        <b>请用数字键1-3回答</b>
                        </div>","","","","","","","","","","","","","","","","","","",""
"802","null","sub_response","html-keyboard-response","116","280372","0.0-1.0-7.0-3.0-2.12","23:45:47","3","","","","","","","<div style='text-align: center;'>
                            <span style=""color: green; font-size: 40px""><b>正确！+1 pts</b></span></div>
                            ","","learn","1","1","1","learn","0","0","[0, 1, 2]","12","4","setsize","3S3A","food","1","5","0","1",""
"null","null","fixation","html-keyboard-response","117","280883","0.0-1.0-7.0-3.0-0.13","23:45:47","3","","","","","","","fixation","","","","","","","","","","","","","","","","","","",""
"1386","3","pic_response","html-keyboard-response","118","282269","0.0-1.0-7.0-3.0-1.13","23:45:47","3","","","","","","","<div>
            <img class='stim' src=""pictures/food/2.jpg""></div><div class=""button_prompt"">
                        <b>请用数字键1-3回答</b>
                        </div>","","","","","","","","","","","","","","","","","","",""
"1386","null","sub_response","html-keyboard-response","119","283271","0.0-1.0-7.0-3.0-2.13","23:45:47","3","","","","","","","<div style='text-align: center;'>
                            <span style=""color: green; font-size: 40px""><b>正确！+1 pts</b></span></div>
                            ","","learn","2","2","2","learn","2","2","[0, 1, 2]","13","4","setsize","3S3A","food","1","6","2","1",""
"null","null","fixation","html-keyboard-response","120","283772","0.0-1.0-7.0-3.0-0.14","23:45:47","3","","","","","","","fixation","","","","","","","","","","","","","","","","","","",""
"527","1","pic_response","html-keyboard-response","121","284300","0.0-1.0-7.0-3.0-1.14","23:45:47","3","","","","","","","<div>
            <img class='stim' src=""pictures/food/0.jpg""></div><div class=""button_prompt"">
                        <b>请用数字键1-3回答</b>
                        </div>","","","","","","","","","","","","","","","","","","",""
"527","null","sub_response","html-keyboard-response","122","285301","0.0-1.0-7.0-3.0-2.14","23:45:47","3","","","","","","","<div style='text-align: center;'>
                            <span style=""color: green; font-size: 40px""><b>正确！+1 pts</b></span></div>
                            ","","learn","0","0","0","learn","0","0","[0, 1, 2]","14","4","setsize","3S3A","food","1","7","0","1",""
"null","null","fixation","html-keyboard-response","123","285802","0.0-1.0-7.0-3.0-0.15","23:45:47","3","","","","","","","fixation","","","","","","","","","","","","","","","","","","",""
"907","1","pic_response","html-keyboard-response","124","286710","0.0-1.0-7.0-3.0-1.15","23:45:47","3","","","","","","","<div>
            <img class='stim' src=""pictures/food/0.jpg""></div><div class=""button_prompt"">
                        <b>请用数字键1-3回答</b>
                        </div>","","","","","","","","","","","","","","","","","","",""
"907","null","sub_response","html-keyboard-response","125","287712","0.0-1.0-7.0-3.0-2.15","23:45:47","3","","","","","","","<div style='text-align: center;'>
                            <span style=""color: green; font-size: 40px""><b>正确！+1 pts</b></span></div>
                            ","","learn","0","0","0","learn","0","0","[0, 1, 2]","15","5","setsize","3S3A","food","1","8","0","1",""
"null","null","fixation","html-keyboard-response","126","288214","0.0-1.0-7.0-3.0-0.16","23:45:47","3","","","","","","","fixation","","","","","","","","","","","","","","","","","","",""
"718","3","pic_response","html-keyboard-response","127","288933","0.0-1.0-7.0-3.0-1.16","23:45:47","3","","","","","","","<div>
            <img class='stim' src=""pictures/food/2.jpg""></div><div class=""button_prompt"">
                        <b>请用数字键1-3回答</b>
                        </div>","","","","","","","","","","","","","","","","","","",""
"718","null","sub_response","html-keyboard-response","128","289935","0.0-1.0-7.0-3.0-2.16","23:45:47","3","","","","","","","<div style='text-align: center;'>
                            <span style=""color: green; font-size: 40px""><b>正确！+1 pts</b></span></div>
                            ","","learn","2","2","2","learn","2","2","[0, 1, 2]","16","5","setsize","3S3A","food","1","9","2","1",""
"null","null","fixation","html-keyboard-response","129","290436","0.0-1.0-7.0-3.0-0.17","23:45:47","3","","","","","","","fixation","","","","","","","","","","","","","","","","","","",""
"755","1","pic_response","html-keyboard-response","130","291191","0.0-1.0-7.0-3.0-1.17","23:45:47","3","","","","","","","<div>
            <img class='stim' src=""pictures/food/1.jpg""></div><div class=""button_prompt"">
                        <b>请用数字键1-3回答</b>
                        </div>","","","","","","","","","","","","","","","","","","",""
"755","null","sub_response","html-keyboard-response","131","292193","0.0-1.0-7.0-3.0-2.17","23:45:47","3","","","","","","","<div style='text-align: center;'>
                            <span style=""color: green; font-size: 40px""><b>正确！+1 pts</b></span></div>
                            ","","learn","1","1","1","learn","0","0","[0, 1, 2]","17","5","setsize","3S3A","food","1","10","0","1",""
"null","null","fixation","html-keyboard-response","132","292695","0.0-1.0-7.0-3.0-0.18","23:45:47","3","","","","","","","fixation","","","","","","","","","","","","","","","","","","",""
"876","1","pic_response","html-keyboard-response","133","293571","0.0-1.0-7.0-3.0-1.18","23:45:47","3","","","","","","","<div>
            <img class='stim' src=""pictures/food/1.jpg""></div><div class=""button_prompt"">
                        <b>请用数字键1-3回答</b>
                        </div>","","","","","","","","","","","","","","","","","","",""
"876","null","sub_response","html-keyboard-response","134","294573","0.0-1.0-7.0-3.0-2.18","23:45:47","3","","","","","","","<div style='text-align: center;'>
                            <span style=""color: green; font-size: 40px""><b>正确！+1 pts</b></span></div>
                            ","","learn","1","1","1","learn","0","0","[0, 1, 2]","18","6","setsize","3S3A","food","1","11","0","1",""
"null","null","fixation","html-keyboard-response","135","295074","0.0-1.0-7.0-3.0-0.19","23:45:47","3","","","","","","","fixation","","","","","","","","","","","","","","","","","","",""
"668","3","pic_response","html-keyboard-response","136","295742","0.0-1.0-7.0-3.0-1.19","23:45:47","3","","","","","","","<div>
            <img class='stim' src=""pictures/food/2.jpg""></div><div class=""button_prompt"">
                        <b>请用数字键1-3回答</b>
                        </div>","","","","","","","","","","","","","","","","","","",""
"668","null","sub_response","html-keyboard-response","137","296744","0.0-1.0-7.0-3.0-2.19","23:45:47","3","","","","","","","<div style='text-align: center;'>
                            <span style=""color: green; font-size: 40px""><b>正确！+1 pts</b></span></div>
                            ","","learn","2","2","2","learn","2","2","[0, 1, 2]","19","6","setsize","3S3A","food","1","12","2","1",""
"null","null","fixation","html-keyboard-response","138","297245","0.0-1.0-7.0-3.0-0.20","23:45:47","3","","","","","","","fixation","","","","","","","","","","","","","","","","","","",""
"540","1","pic_response","html-keyboard-response","139","297786","0.0-1.0-7.0-3.0-1.20","23:45:47","3","","","","","","","<div>
            <img class='stim' src=""pictures/food/0.jpg""></div><div class=""button_prompt"">
                        <b>请用数字键1-3回答</b>
                        </div>","","","","","","","","","","","","","","","","","","",""
"540","null","sub_response","html-keyboard-response","140","298787","0.0-1.0-7.0-3.0-2.20","23:45:47","3","","","","","","","<div style='text-align: center;'>
                            <span style=""color: green; font-size: 40px""><b>正确！+1 pts</b></span></div>
                            ","","learn","0","0","0","learn","0","0","[0, 1, 2]","20","6","setsize","3S3A","food","1","13","0","1",""
"null","null","fixation","html-keyboard-response","141","299288","0.0-1.0-7.0-3.0-0.21","23:45:47","3","","","","","","","fixation","","","","","","","","","","","","","","","","","","",""
"461","1","pic_response","html-keyboard-response","142","299750","0.0-1.0-7.0-3.0-1.21","23:45:47","3","","","","","","","<div>
            <img class='stim' src=""pictures/food/0.jpg""></div><div class=""button_prompt"">
                        <b>请用数字键1-3回答</b>
                        </div>","","","","","","","","","","","","","","","","","","",""
"461","null","sub_response","html-keyboard-response","143","300751","0.0-1.0-7.0-3.0-2.21","23:45:47","3","","","","","","","<div style='text-align: center;'>
                            <span style=""color: green; font-size: 40px""><b>正确！+1 pts</b></span></div>
                            ","","learn","0","0","0","learn","0","0","[0, 1, 2]","21","7","setsize","3S3A","food","1","14","0","1",""
"null","null","fixation","html-keyboard-response","144","301254","0.0-1.0-7.0-3.0-0.22","23:45:47","3","","","","","","","fixation","","","","","","","","","","","","","","","","","","",""
"960","3","pic_response","html-keyboard-response","145","302215","0.0-1.0-7.0-3.0-1.22","23:45:47","3","","","","","","","<div>
            <img class='stim' src=""pictures/food/2.jpg""></div><div class=""button_prompt"">
                        <b>请用数字键1-3回答</b>
                        </div>","","","","","","","","","","","","","","","","","","",""
"960","null","sub_response","html-keyboard-response","146","303216","0.0-1.0-7.0-3.0-2.22","23:45:47","3","","","","","","","<div style='text-align: center;'>
                            <span style=""color: green; font-size: 40px""><b>正确！+1 pts</b></span></div>
                            ","","learn","2","2","2","learn","2","2","[0, 1, 2]","22","7","setsize","3S3A","food","1","15","2","1",""
"null","null","fixation","html-keyboard-response","147","303717","0.0-1.0-7.0-3.0-0.23","23:45:47","3","","","","","","","fixation","","","","","","","","","","","","","","","","","","",""
"514","1","pic_response","html-keyboard-response","148","304232","0.0-1.0-7.0-3.0-1.23","23:45:47","3","","","","","","","<div>
            <img class='stim' src=""pictures/food/1.jpg""></div><div class=""button_prompt"">
                        <b>请用数字键1-3回答</b>
                        </div>","","","","","","","","","","","","","","","","","","",""
"514","null","sub_response","html-keyboard-response","149","305235","0.0-1.0-7.0-3.0-2.23","23:45:47","3","","","","","","","<div style='text-align: center;'>
                            <span style=""color: green; font-size: 40px""><b>正确！+1 pts</b></span></div>
                            ","","learn","1","1","1","learn","0","0","[0, 1, 2]","23","7","setsize","3S3A","food","1","16","0","1",""
"null","null","fixation","html-keyboard-response","150","305736","0.0-1.0-7.0-3.0-0.24","23:45:47","3","","","","","","","fixation","","","","","","","","","","","","","","","","","","",""
"408","1","pic_response","html-keyboard-response","151","306146","0.0-1.0-7.0-3.0-1.24","23:45:47","3","","","","","","","<div>
            <img class='stim' src=""pictures/food/1.jpg""></div><div class=""button_prompt"">
                        <b>请用数字键1-3回答</b>
                        </div>","","","","","","","","","","","","","","","","","","",""
"408","null","sub_response","html-keyboard-response","152","307148","0.0-1.0-7.0-3.0-2.24","23:45:47","3","","","","","","","<div style='text-align: center;'>
                            <span style=""color: green; font-size: 40px""><b>正确！+1 pts</b></span></div>
                            ","","learn","1","1","1","learn","0","0","[0, 1, 2]","24","8","setsize","3S3A","food","1","17","0","1",""
"null","null","fixation","html-keyboard-response","153","307649","0.0-1.0-7.0-3.0-0.25","23:45:47","3","","","","","","","fixation","","","","","","","","","","","","","","","","","","",""
"589","3","pic_response","html-keyboard-response","154","308239","0.0-1.0-7.0-3.0-1.25","23:45:47","3","","","","","","","<div>
            <img class='stim' src=""pictures/food/2.jpg""></div><div class=""button_prompt"">
                        <b>请用数字键1-3回答</b>
                        </div>","","","","","","","","","","","","","","","","","","",""
"589","null","sub_response","html-keyboard-response","155","309239","0.0-1.0-7.0-3.0-2.25","23:45:47","3","","","","","","","<div style='text-align: center;'>
                            <span style=""color: green; font-size: 40px""><b>正确！+1 pts</b></span></div>
                            ","","learn","2","2","2","learn","2","2","[0, 1, 2]","25","8","setsize","3S3A","food","1","18","2","1",""
"null","null","fixation","html-keyboard-response","156","309750","0.0-1.0-7.0-3.0-0.26","23:45:47","3","","","","","","","fixation","","","","","","","","","","","","","","","","","","",""
"543","1","pic_response","html-keyboard-response","157","310295","0.0-1.0-7.0-3.0-1.26","23:45:47","3","","","","","","","<div>
            <img class='stim' src=""pictures/food/0.jpg""></div><div class=""button_prompt"">
                        <b>请用数字键1-3回答</b>
                        </div>","","","","","","","","","","","","","","","","","","",""
"543","null","sub_response","html-keyboard-response","158","311305","0.0-1.0-7.0-3.0-2.26","23:45:47","3","","","","","","","<div style='text-align: center;'>
                            <span style=""color: green; font-size: 40px""><b>正确！+1 pts</b></span></div>
                            ","","learn","0","0","0","learn","0","0","[0, 1, 2]","26","8","setsize","3S3A","food","1","19","0","1",""
"null","null","fixation","html-keyboard-response","159","311807","0.0-1.0-7.0-3.0-0.27","23:45:47","3","","","","","","","fixation","","","","","","","","","","","","","","","","","","",""
"711","3","pic_response","html-keyboard-response","160","312518","0.0-1.0-7.0-3.0-1.27","23:45:47","3","","","","","","","<div>
            <img class='stim' src=""pictures/food/2.jpg""></div><div class=""button_prompt"">
                        <b>请用数字键1-3回答</b>
                        </div>","","","","","","","","","","","","","","","","","","",""
"711","null","sub_response","html-keyboard-response","161","313519","0.0-1.0-7.0-3.0-2.27","23:45:47","3","","","","","","","<div style='text-align: center;'>
                            <span style=""color: green; font-size: 40px""><b>正确！+1 pts</b></span></div>
                            ","","learn","2","2","2","learn","2","2","[0, 1, 2]","27","9","setsize","3S3A","food","1","20","2","1",""
"null","null","fixation","html-keyboard-response","162","314020","0.0-1.0-7.0-3.0-0.28","23:45:47","3","","","","","","","fixation","","","","","","","","","","","","","","","","","","",""
"473","1","pic_response","html-keyboard-response","163","314493","0.0-1.0-7.0-3.0-1.28","23:45:47","3","","","","","","","<div>
            <img class='stim' src=""pictures/food/0.jpg""></div><div class=""button_prompt"">
                        <b>请用数字键1-3回答</b>
                        </div>","","","","","","","","","","","","","","","","","","",""
"473","null","sub_response","html-keyboard-response","164","315495","0.0-1.0-7.0-3.0-2.28","23:45:47","3","","","","","","","<div style='text-align: center;'>
                            <span style=""color: green; font-size: 40px""><b>正确！+1 pts</b></span></div>
                            ","","learn","0","0","0","learn","0","0","[0, 1, 2]","28","9","setsize","3S3A","food","1","21","0","1",""
"null","null","fixation","html-keyboard-response","165","315997","0.0-1.0-7.0-3.0-0.29","23:45:47","3","","","","","","","fixation","","","","","","","","","","","","","","","","","","",""
"527","1","pic_response","html-keyboard-response","166","316525","0.0-1.0-7.0-3.0-1.29","23:45:47","3","","","","","","","<div>
            <img class='stim' src=""pictures/food/1.jpg""></div><div class=""button_prompt"">
                        <b>请用数字键1-3回答</b>
                        </div>","","","","","","","","","","","","","","","","","","",""
"527","null","sub_response","html-keyboard-response","167","317526","0.0-1.0-7.0-3.0-2.29","23:45:47","3","","","","","","","<div style='text-align: center;'>
                            <span style=""color: green; font-size: 40px""><b>正确！+1 pts</b></span></div>
                            ","","learn","1","1","1","learn","0","0","[0, 1, 2]","29","9","setsize","3S3A","food","1","22","0","1",""
"null","null","fixation","html-keyboard-response","168","318027","0.0-1.0-7.0-3.0-0.30","23:45:47","3","","","","","","","fixation","","","","","","","","","","","","","","","","","","",""
"554","1","pic_response","html-keyboard-response","169","318583","0.0-1.0-7.0-3.0-1.30","23:45:47","3","","","","","","","<div>
            <img class='stim' src=""pictures/food/0.jpg""></div><div class=""button_prompt"">
                        <b>请用数字键1-3回答</b>
                        </div>","","","","","","","","","","","","","","","","","","",""
"554","null","sub_response","html-keyboard-response","170","319584","0.0-1.0-7.0-3.0-2.30","23:45:47","3","","","","","","","<div style='text-align: center;'>
                            <span style=""color: green; font-size: 40px""><b>正确！+1 pts</b></span></div>
                            ","","learn","0","0","0","learn","0","0","[0, 1, 2]","30","10","setsize","3S3A","food","1","23","0","1",""
"null","null","fixation","html-keyboard-response","171","320085","0.0-1.0-7.0-3.0-0.31","23:45:47","3","","","","","","","fixation","","","","","","","","","","","","","","","","","","",""
"585","1","pic_response","html-keyboard-response","172","320670","0.0-1.0-7.0-3.0-1.31","23:45:47","3","","","","","","","<div>
            <img class='stim' src=""pictures/food/1.jpg""></div><div class=""button_prompt"">
                        <b>请用数字键1-3回答</b>
                        </div>","","","","","","","","","","","","","","","","","","",""
"585","null","sub_response","html-keyboard-response","173","321674","0.0-1.0-7.0-3.0-2.31","23:45:47","3","","","","","","","<div style='text-align: center;'>
                            <span style=""color: green; font-size: 40px""><b>正确！+1 pts</b></span></div>
                            ","","learn","1","1","1","learn","0","0","[0, 1, 2]","31","10","setsize","3S3A","food","1","24","0","1",""
"null","null","fixation","html-keyboard-response","174","322175","0.0-1.0-7.0-3.0-0.32","23:45:47","3","","","","","","","fixation","","","","","","","","","","","","","","","","","","",""
"1318","3","pic_response","html-keyboard-response","175","323494","0.0-1.0-7.0-3.0-1.32","23:45:47","3","","","","","","","<div>
            <img class='stim' src=""pictures/food/2.jpg""></div><div class=""button_prompt"">
                        <b>请用数字键1-3回答</b>
                        </div>","","","","","","","","","","","","","","","","","","",""
"1318","null","sub_response","html-keyboard-response","176","324495","0.0-1.0-7.0-3.0-2.32","23:45:47","3","","","","","","","<div style='text-align: center;'>
                            <span style=""color: green; font-size: 40px""><b>正确！+1 pts</b></span></div>
                            ","","learn","2","2","2","learn","2","2","[0, 1, 2]","32","10","setsize","3S3A","food","1","25","2","1",""
"null","null","fixation","html-keyboard-response","177","324997","0.0-1.0-7.0-3.0-0.33","23:45:47","3","","","","","","","fixation","","","","","","","","","","","","","","","","","","",""
"488","1","pic_response","html-keyboard-response","178","325486","0.0-1.0-7.0-3.0-1.33","23:45:47","3","","","","","","","<div>
            <img class='stim' src=""pictures/food/0.jpg""></div><div class=""button_prompt"">
                        <b>请用数字键1-3回答</b>
                        </div>","","","","","","","","","","","","","","","","","","",""
"488","null","sub_response","html-keyboard-response","179","326487","0.0-1.0-7.0-3.0-2.33","23:45:47","3","","","","","","","<div style='text-align: center;'>
                            <span style=""color: green; font-size: 40px""><b>正确！+1 pts</b></span></div>
                            ","","learn","0","0","0","learn","0","0","[0, 1, 2]","33","11","setsize","3S3A","food","1","26","0","1",""
"null","null","fixation","html-keyboard-response","180","326988","0.0-1.0-7.0-3.0-0.34","23:45:47","3","","","","","","","fixation","","","","","","","","","","","","","","","","","","",""
"583","3","pic_response","html-keyboard-response","181","327574","0.0-1.0-7.0-3.0-1.34","23:45:47","3","","","","","","","<div>
            <img class='stim' src=""pictures/food/2.jpg""></div><div class=""button_prompt"">
                        <b>请用数字键1-3回答</b>
                        </div>","","","","","","","","","","","","","","","","","","",""
"583","null","sub_response","html-keyboard-response","182","328576","0.0-1.0-7.0-3.0-2.34","23:45:47","3","","","","","","","<div style='text-align: center;'>
                            <span style=""color: green; font-size: 40px""><b>正确！+1 pts</b></span></div>
                            ","","learn","2","2","2","learn","2","2","[0, 1, 2]","34","11","setsize","3S3A","food","1","27","2","1",""
"null","null","fixation","html-keyboard-response","183","329077","0.0-1.0-7.0-3.0-0.35","23:45:47","3","","","","","","","fixation","","","","","","","","","","","","","","","","","","",""
"613","1","pic_response","html-keyboard-response","184","329691","0.0-1.0-7.0-3.0-1.35","23:45:47","3","","","","","","","<div>
            <img class='stim' src=""pictures/food/1.jpg""></div><div class=""button_prompt"">
                        <b>请用数字键1-3回答</b>
                        </div>","","","","","","","","","","","","","","","","","","",""
"613","null","sub_response","html-keyboard-response","185","330692","0.0-1.0-7.0-3.0-2.35","23:45:47","3","","","","","","","<div style='text-align: center;'>
                            <span style=""color: green; font-size: 40px""><b>正确！+1 pts</b></span></div>
                            ","","learn","1","1","1","learn","0","0","[0, 1, 2]","35","11","setsize","3S3A","food","1","28","0","1",""
"null","null","fixation","html-keyboard-response","186","331194","0.0-1.0-7.0-3.0-0.36","23:45:47","3","","","","","","","fixation","","","","","","","","","","","","","","","","","","",""
"490","1","pic_response","html-keyboard-response","187","331684","0.0-1.0-7.0-3.0-1.36","23:45:47","3","","","","","","","<div>
            <img class='stim' src=""pictures/food/0.jpg""></div><div class=""button_prompt"">
                        <b>请用数字键1-3回答</b>
                        </div>","","","","","","","","","","","","","","","","","","",""
"490","null","sub_response","html-keyboard-response","188","332686","0.0-1.0-7.0-3.0-2.36","23:45:47","3","","","","","","","<div style='text-align: center;'>
                            <span style=""color: green; font-size: 40px""><b>正确！+1 pts</b></span></div>
                            ","","learn","0","0","0","learn","0","0","[0, 1, 2]","36","12","setsize","3S3A","food","1","29","0","1",""
"null","null","fixation","html-keyboard-response","189","333187","0.0-1.0-7.0-3.0-0.37","23:45:47","3","","","","","","","fixation","","","","","","","","","","","","","","","","","","",""
"506","1","pic_response","html-keyboard-response","190","333694","0.0-1.0-7.0-3.0-1.37","23:45:47","3","","","","","","","<div>
            <img class='stim' src=""pictures/food/1.jpg""></div><div class=""button_prompt"">
                        <b>请用数字键1-3回答</b>
                        </div>","","","","","","","","","","","","","","","","","","",""
"506","null","sub_response","html-keyboard-response","191","334695","0.0-1.0-7.0-3.0-2.37","23:45:47","3","","","","","","","<div style='text-align: center;'>
                            <span style=""color: green; font-size: 40px""><b>正确！+1 pts</b></span></div>
                            ","","learn","1","1","1","learn","0","0","[0, 1, 2]","37","12","setsize","3S3A","food","1","30","0","1",""
"null","null","fixation","html-keyboard-response","192","335198","0.0-1.0-7.0-3.0-0.38","23:45:47","3","","","","","","","fixation","","","","","","","","","","","","","","","","","","",""
"474","3","pic_response","html-keyboard-response","193","335672","0.0-1.0-7.0-3.0-1.38","23:45:47","3","","","","","","","<div>
            <img class='stim' src=""pictures/food/2.jpg""></div><div class=""button_prompt"">
                        <b>请用数字键1-3回答</b>
                        </div>","","","","","","","","","","","","","","","","","","",""
"474","null","sub_response","html-keyboard-response","194","336674","0.0-1.0-7.0-3.0-2.38","23:45:47","3","","","","","","","<div style='text-align: center;'>
                            <span style=""color: green; font-size: 40px""><b>正确！+1 pts</b></span></div>
                            ","","learn","2","2","2","learn","2","2","[0, 1, 2]","38","12","setsize","3S3A","food","1","31","2","1",""
"null","null","fixation","html-keyboard-response","195","337176","0.0-1.0-7.0-3.0-0.39","23:45:47","3","","","","","","","fixation","","","","","","","","","","","","","","","","","","",""
"683","3","pic_response","html-keyboard-response","196","337860","0.0-1.0-7.0-3.0-1.39","23:45:47","3","","","","","","","<div>
            <img class='stim' src=""pictures/food/2.jpg""></div><div class=""button_prompt"">
                        <b>请用数字键1-3回答</b>
                        </div>","","","","","","","","","","","","","","","","","","",""
"683","null","sub_response","html-keyboard-response","197","338867","0.0-1.0-7.0-3.0-2.39","23:45:47","3","","","","","","","<div style='text-align: center;'>
                            <span style=""color: green; font-size: 40px""><b>正确！+1 pts</b></span></div>
                            ","","learn","2","2","2","learn","2","2","[0, 1, 2]","39","13","setsize","3S3A","food","1","32","2","1",""
"null","null","fixation","html-keyboard-response","198","339369","0.0-1.0-7.0-3.0-0.40","23:45:47","3","","","","","","","fixation","","","","","","","","","","","","","","","","","","",""
"485","1","pic_response","html-keyboard-response","199","339854","0.0-1.0-7.0-3.0-1.40","23:45:47","3","","","","","","","<div>
            <img class='stim' src=""pictures/food/0.jpg""></div><div class=""button_prompt"">
                        <b>请用数字键1-3回答</b>
                        </div>","","","","","","","","","","","","","","","","","","",""
"485","null","sub_response","html-keyboard-response","200","340856","0.0-1.0-7.0-3.0-2.40","23:45:47","3","","","","","","","<div style='text-align: center;'>
                            <span style=""color: green; font-size: 40px""><b>正确！+1 pts</b></span></div>
                            ","","learn","0","0","0","learn","0","0","[0, 1, 2]","40","13","setsize","3S3A","food","1","33","0","1",""
"null","null","fixation","html-keyboard-response","201","341357","0.0-1.0-7.0-3.0-0.41","23:45:47","3","","","","","","","fixation","","","","","","","","","","","","","","","","","","",""
"535","1","pic_response","html-keyboard-response","202","341893","0.0-1.0-7.0-3.0-1.41","23:45:47","3","","","","","","","<div>
            <img class='stim' src=""pictures/food/1.jpg""></div><div class=""button_prompt"">
                        <b>请用数字键1-3回答</b>
                        </div>","","","","","","","","","","","","","","","","","","",""
"535","null","sub_response","html-keyboard-response","203","342895","0.0-1.0-7.0-3.0-2.41","23:45:47","3","","","","","","","<div style='text-align: center;'>
                            <span style=""color: green; font-size: 40px""><b>正确！+1 pts</b></span></div>
                            ","","learn","1","1","1","learn","0","0","[0, 1, 2]","41","13","setsize","3S3A","food","1","34","0","1",""
"null","null","fixation","html-keyboard-response","204","343396","0.0-1.0-7.0-3.0-0.42","23:45:47","3","","","","","","","fixation","","","","","","","","","","","","","","","","","","",""
"587","1","pic_response","html-keyboard-response","205","343985","0.0-1.0-7.0-3.0-1.42","23:45:47","3","","","","","","","<div>
            <img class='stim' src=""pictures/food/1.jpg""></div><div class=""button_prompt"">
                        <b>请用数字键1-3回答</b>
                        </div>","","","","","","","","","","","","","","","","","","",""
"587","null","sub_response","html-keyboard-response","206","344987","0.0-1.0-7.0-3.0-2.42","23:45:47","3","","","","","","","<div style='text-align: center;'>
                            <span style=""color: green; font-size: 40px""><b>正确！+1 pts</b></span></div>
                            ","","learn","1","1","1","learn","0","0","[0, 1, 2]","42","14","setsize","3S3A","food","1","35","0","1",""
"null","null","fixation","html-keyboard-response","207","345489","0.0-1.0-7.0-3.0-0.43","23:45:47","3","","","","","","","fixation","","","","","","","","","","","","","","","","","","",""
"898","3","pic_response","html-keyboard-response","208","346387","0.0-1.0-7.0-3.0-1.43","23:45:47","3","","","","","","","<div>
            <img class='stim' src=""pictures/food/2.jpg""></div><div class=""button_prompt"">
                        <b>请用数字键1-3回答</b>
                        </div>","","","","","","","","","","","","","","","","","","",""
"898","null","sub_response","html-keyboard-response","209","347389","0.0-1.0-7.0-3.0-2.43","23:45:47","3","","","","","","","<div style='text-align: center;'>
                            <span style=""color: green; font-size: 40px""><b>正确！+1 pts</b></span></div>
                            ","","learn","2","2","2","learn","2","2","[0, 1, 2]","43","14","setsize","3S3A","food","1","36","2","1",""
"null","null","fixation","html-keyboard-response","210","347890","0.0-1.0-7.0-3.0-0.44","23:45:47","3","","","","","","","fixation","","","","","","","","","","","","","","","","","","",""
"534","1","pic_response","html-keyboard-response","211","348426","0.0-1.0-7.0-3.0-1.44","23:45:47","3","","","","","","","<div>
            <img class='stim' src=""pictures/food/0.jpg""></div><div class=""button_prompt"">
                        <b>请用数字键1-3回答</b>
                        </div>","","","","","","","","","","","","","","","","","","",""
"534","null","sub_response","html-keyboard-response","212","349427","0.0-1.0-7.0-3.0-2.44","23:45:47","3","","","","","","","<div style='text-align: center;'>
                            <span style=""color: green; font-size: 40px""><b>正确！+1 pts</b></span></div>
                            ","","learn","0","0","0","learn","0","0","[0, 1, 2]","44","14","setsize","3S3A","food","1","37","0","1",""
"null","null","fixation","html-keyboard-response","213","349927","0.0-1.0-7.0-3.0-0.45","23:45:47","3","","","","","","","fixation","","","","","","","","","","","","","","","","","","",""
"863","3","pic_response","html-keyboard-response","214","350791","0.0-1.0-7.0-3.0-1.45","23:45:47","3","","","","","","","<div>
            <img class='stim' src=""pictures/food/2.jpg""></div><div class=""button_prompt"">
                        <b>请用数字键1-3回答</b>
                        </div>","","","","","","","","","","","","","","","","","","",""
"863","null","sub_response","html-keyboard-response","215","351793","0.0-1.0-7.0-3.0-2.45","23:45:47","3","","","","","","","<div style='text-align: center;'>
                            <span style=""color: green; font-size: 40px""><b>正确！+1 pts</b></span></div>
                            ","","learn","2","2","2","learn","2","2","[0, 1, 2]","45","15","setsize","3S3A","food","1","38","2","1",""
"21895"," ","","html-keyboard-response","216","373689","0.0-1.0-8.0","23:45:47","3","","","","","","","<div style=""font-size: 25px""><p>距下一个实验开始还有</p><div style=""font-size: 50px; color: blue""><p><span id=""clock"">1:00</span></div></p><p>按""空格""跳过休息</p></div>","","","","","","","","","","","","","","","","","","",""
"","","","preload","217","374038","0.0-1.0-9.0-0.0","23:45:47","3","true","false","[]","[]","[]","","","","","","","","","","","","","","","","","","","","",""
"1109"," ","","html-keyboard-response","218","375147","0.0-1.0-9.0-1.0","23:45:47","3","","","","","","","<div style='font-size: 32px; text-align: center;'
                    <p>请学习图片和数字之间的对应关系</p>
                    <p>我们将<span style='color: blue'><b> 告诉 </b></span>您选择的对错。请根据反馈学习。</p>
                    <p>请按""空格""继续实验。</p></div>","","","","","","","","","","","","","","","","","","",""
"3964"," ","inst","html-keyboard-response","219","379112","0.0-1.0-9.0-2.0","23:45:47","3","","","","","","","<img class='instruct_stim' src=""instruction/animals3.PNG""></div>","","","","","","","","","","","","","","","","","","",""
"null","null","fixation","html-keyboard-response","220","379613","0.0-1.0-9.0-3.0-0.0","23:45:47","3","","","","","","","fixation","","","","","","","","","","","","","","","","","","",""
"736","1","pic_response","html-keyboard-response","221","380350","0.0-1.0-9.0-3.0-1.0","23:45:47","3","","","","","","","<div>
            <img class='stim' src=""pictures/animals/0.jpg""></div><div class=""button_prompt"">
                    <b>请用数字键0-9回答</b>
                    </div>","","","","","","","","","","","","","","","","","","",""
"736","null","sub_response","html-keyboard-response","222","381351","0.0-1.0-9.0-3.0-2.0","23:45:47","3","","","","","","","<div style='text-align: center;'>
                            <span style=""color: red; font-size: 40px""><b>错误！+0 pts</b></span></div>
                            ","","learn","0","0","0","learn","2","2","[0, 1, 2, 3, 4, 5, 6, 7, 8, 9]","0","0","setsize","3S10A","animals","2","0","0","0",""
"null","null","fixation","html-keyboard-response","223","381852","0.0-1.0-9.0-3.0-0.1","23:45:47","3","","","","","","","fixation","","","","","","","","","","","","","","","","","","",""
"1137","1","pic_response","html-keyboard-response","224","382990","0.0-1.0-9.0-3.0-1.1","23:45:47","3","","","","","","","<div>
            <img class='stim' src=""pictures/animals/1.jpg""></div><div class=""button_prompt"">
                    <b>请用数字键0-9回答</b>
                    </div>","","","","","","","","","","","","","","","","","","",""
"1137","null","sub_response","html-keyboard-response","225","383992","0.0-1.0-9.0-3.0-2.1","23:45:47","3","","","","","","","<div style='text-align: center;'>
                            <span style=""color: red; font-size: 40px""><b>错误！+0 pts</b></span></div>
                            ","","learn","1","1","1","learn","6","6","[0, 1, 2, 3, 4, 5, 6, 7, 8, 9]","1","0","setsize","3S10A","animals","2","0","0","0",""
"null","null","fixation","html-keyboard-response","226","384494","0.0-1.0-9.0-3.0-0.2","23:45:47","3","","","","","","","fixation","","","","","","","","","","","","","","","","","","",""
"523","1","pic_response","html-keyboard-response","227","385019","0.0-1.0-9.0-3.0-1.2","23:45:47","3","","","","","","","<div>
            <img class='stim' src=""pictures/animals/2.jpg""></div><div class=""button_prompt"">
                    <b>请用数字键0-9回答</b>
                    </div>","","","","","","","","","","","","","","","","","","",""
"523","null","sub_response","html-keyboard-response","228","386020","0.0-1.0-9.0-3.0-2.2","23:45:47","3","","","","","","","<div style='text-align: center;'>
                            <span style=""color: red; font-size: 40px""><b>错误！+0 pts</b></span></div>
                            ","","learn","2","2","2","learn","9","9","[0, 1, 2, 3, 4, 5, 6, 7, 8, 9]","2","0","setsize","3S10A","animals","2","0","0","0",""
"null","null","fixation","html-keyboard-response","229","386521","0.0-1.0-9.0-3.0-0.3","23:45:47","3","","","","","","","fixation","","","","","","","","","","","","","","","","","","",""
"606","2","pic_response","html-keyboard-response","230","387128","0.0-1.0-9.0-3.0-1.3","23:45:47","3","","","","","","","<div>
            <img class='stim' src=""pictures/animals/2.jpg""></div><div class=""button_prompt"">
                    <b>请用数字键0-9回答</b>
                    </div>","","","","","","","","","","","","","","","","","","",""
"606","null","sub_response","html-keyboard-response","231","388129","0.0-1.0-9.0-3.0-2.3","23:45:47","3","","","","","","","<div style='text-align: center;'>
                            <span style=""color: red; font-size: 40px""><b>错误！+0 pts</b></span></div>
                            ","","learn","2","2","2","learn","9","9","[0, 1, 2, 3, 4, 5, 6, 7, 8, 9]","3","1","setsize","3S10A","animals","2","0","1","0",""
"null","null","fixation","html-keyboard-response","232","388631","0.0-1.0-9.0-3.0-0.4","23:45:47","3","","","","","","","fixation","","","","","","","","","","","","","","","","","","",""
"353","2","pic_response","html-keyboard-response","233","388984","0.0-1.0-9.0-3.0-1.4","23:45:47","3","","","","","","","<div>
            <img class='stim' src=""pictures/animals/0.jpg""></div><div class=""button_prompt"">
                    <b>请用数字键0-9回答</b>
                    </div>","","","","","","","","","","","","","","","","","","",""
"353","null","sub_response","html-keyboard-response","234","389986","0.0-1.0-9.0-3.0-2.4","23:45:47","3","","","","","","","<div style='text-align: center;'>
                            <span style=""color: red; font-size: 40px""><b>错误！+0 pts</b></span></div>
                            ","","learn","0","0","0","learn","2","2","[0, 1, 2, 3, 4, 5, 6, 7, 8, 9]","4","1","setsize","3S10A","animals","2","0","1","0",""
"null","null","fixation","html-keyboard-response","235","390488","0.0-1.0-9.0-3.0-0.5","23:45:47","3","","","","","","","fixation","","","","","","","","","","","","","","","","","","",""
"477","2","pic_response","html-keyboard-response","236","390966","0.0-1.0-9.0-3.0-1.5","23:45:47","3","","","","","","","<div>
            <img class='stim' src=""pictures/animals/1.jpg""></div><div class=""button_prompt"">
                    <b>请用数字键0-9回答</b>
                    </div>","","","","","","","","","","","","","","","","","","",""
"477","null","sub_response","html-keyboard-response","237","391980","0.0-1.0-9.0-3.0-2.5","23:45:47","3","","","","","","","<div style='text-align: center;'>
                            <span style=""color: red; font-size: 40px""><b>错误！+0 pts</b></span></div>
                            ","","learn","1","1","1","learn","6","6","[0, 1, 2, 3, 4, 5, 6, 7, 8, 9]","5","1","setsize","3S10A","animals","2","0","1","0",""
"null","null","fixation","html-keyboard-response","238","392482","0.0-1.0-9.0-3.0-0.6","23:45:47","3","","","","","","","fixation","","","","","","","","","","","","","","","","","","",""
"595","3","pic_response","html-keyboard-response","239","393078","0.0-1.0-9.0-3.0-1.6","23:45:47","3","","","","","","","<div>
            <img class='stim' src=""pictures/animals/1.jpg""></div><div class=""button_prompt"">
                    <b>请用数字键0-9回答</b>
                    </div>","","","","","","","","","","","","","","","","","","",""
"595","null","sub_response","html-keyboard-response","240","394078","0.0-1.0-9.0-3.0-2.6","23:45:47","3","","","","","","","<div style='text-align: center;'>
                            <span style=""color: red; font-size: 40px""><b>错误！+0 pts</b></span></div>
                            ","","learn","1","1","1","learn","6","6","[0, 1, 2, 3, 4, 5, 6, 7, 8, 9]","6","2","setsize","3S10A","animals","2","0","2","0",""
"null","null","fixation","html-keyboard-response","241","394580","0.0-1.0-9.0-3.0-0.7","23:45:47","3","","","","","","","fixation","","","","","","","","","","","","","","","","","","",""
"675","3","pic_response","html-keyboard-response","242","395255","0.0-1.0-9.0-3.0-1.7","23:45:47","3","","","","","","","<div>
            <img class='stim' src=""pictures/animals/0.jpg""></div><div class=""button_prompt"">
                    <b>请用数字键0-9回答</b>
                    </div>","","","","","","","","","","","","","","","","","","",""
"675","null","sub_response","html-keyboard-response","243","396257","0.0-1.0-9.0-3.0-2.7","23:45:47","3","","","","","","","<div style='text-align: center;'>
                            <span style=""color: green; font-size: 40px""><b>正确！+1 pts</b></span></div>
                            ","","learn","0","0","0","learn","2","2","[0, 1, 2, 3, 4, 5, 6, 7, 8, 9]","7","2","setsize","3S10A","animals","2","1","2","1",""
"null","null","fixation","html-keyboard-response","244","396758","0.0-1.0-9.0-3.0-0.8","23:45:47","3","","","","","","","fixation","","","","","","","","","","","","","","","","","","",""
"608","3","pic_response","html-keyboard-response","245","397366","0.0-1.0-9.0-3.0-1.8","23:45:47","3","","","","","","","<div>
            <img class='stim' src=""pictures/animals/2.jpg""></div><div class=""button_prompt"">
                    <b>请用数字键0-9回答</b>
                    </div>","","","","","","","","","","","","","","","","","","",""
"608","null","sub_response","html-keyboard-response","246","398368","0.0-1.0-9.0-3.0-2.8","23:45:47","3","","","","","","","<div style='text-align: center;'>
                            <span style=""color: red; font-size: 40px""><b>错误！+0 pts</b></span></div>
                            ","","learn","2","2","2","learn","9","9","[0, 1, 2, 3, 4, 5, 6, 7, 8, 9]","8","2","setsize","3S10A","animals","2","0","2","0",""
"null","null","fixation","html-keyboard-response","247","398869","0.0-1.0-9.0-3.0-0.9","23:45:47","3","","","","","","","fixation","","","","","","","","","","","","","","","","","","",""
"633","2","pic_response","html-keyboard-response","248","399503","0.0-1.0-9.0-3.0-1.9","23:45:47","3","","","","","","","<div>
            <img class='stim' src=""pictures/animals/0.jpg""></div><div class=""button_prompt"">
                    <b>请用数字键0-9回答</b>
                    </div>","","","","","","","","","","","","","","","","","","",""
"633","null","sub_response","html-keyboard-response","249","400504","0.0-1.0-9.0-3.0-2.9","23:45:47","3","","","","","","","<div style='text-align: center;'>
                            <span style=""color: red; font-size: 40px""><b>错误！+0 pts</b></span></div>
                            ","","learn","0","0","0","learn","2","2","[0, 1, 2, 3, 4, 5, 6, 7, 8, 9]","9","3","setsize","3S10A","animals","2","0","1","0",""
"null","null","fixation","html-keyboard-response","250","401006","0.0-1.0-9.0-3.0-0.10","23:45:47","3","","","","","","","fixation","","","","","","","","","","","","","","","","","","",""
"1761","2","pic_response","html-keyboard-response","251","402768","0.0-1.0-9.0-3.0-1.10","23:45:47","3","","","","","","","<div>
            <img class='stim' src=""pictures/animals/2.jpg""></div><div class=""button_prompt"">
                    <b>请用数字键0-9回答</b>
                    </div>","","","","","","","","","","","","","","","","","","",""
"1761","null","sub_response","html-keyboard-response","252","403769","0.0-1.0-9.0-3.0-2.10","23:45:47","3","","","","","","","<div style='text-align: center;'>
                            <span style=""color: red; font-size: 40px""><b>错误！+0 pts</b></span></div>
                            ","","learn","2","2","2","learn","9","9","[0, 1, 2, 3, 4, 5, 6, 7, 8, 9]","10","3","setsize","3S10A","animals","2","0","1","0",""
"null","null","fixation","html-keyboard-response","253","404271","0.0-1.0-9.0-3.0-0.11","23:45:47","3","","","","","","","fixation","","","","","","","","","","","","","","","","","","",""
"null","null","pic_response","html-keyboard-response","254","407278","0.0-1.0-9.0-3.0-1.11","23:45:47","3","","","","","","","<div>
            <img class='stim' src=""pictures/animals/1.jpg""></div><div class=""button_prompt"">
                    <b>请用数字键0-9回答</b>
                    </div>","","","","","","","","","","","","","","","","","","",""
"null","null","sub_response","html-keyboard-response","255","408279","0.0-1.0-9.0-3.0-2.11","23:45:47","3","","","","","","","<div style='text-align: center;'>
                            <span style=""color: red; font-size: 40px""><b>错误！+0 pts</b></span></div>
                            ","","learn","1","1","1","learn","6","6","[0, 1, 2, 3, 4, 5, 6, 7, 8, 9]","11","3","setsize","3S10A","animals","2","0","999","0",""
"null","null","fixation","html-keyboard-response","256","408781","0.0-1.0-9.0-3.0-0.12","23:45:47","3","","","","","","","fixation","","","","","","","","","","","","","","","","","","",""
"582","4","pic_response","html-keyboard-response","257","409364","0.0-1.0-9.0-3.0-1.12","23:45:47","3","","","","","","","<div>
            <img class='stim' src=""pictures/animals/2.jpg""></div><div class=""button_prompt"">
                    <b>请用数字键0-9回答</b>
                    </div>","","","","","","","","","","","","","","","","","","",""
"582","null","sub_response","html-keyboard-response","258","410365","0.0-1.0-9.0-3.0-2.12","23:45:47","3","","","","","","","<div style='text-align: center;'>
                            <span style=""color: red; font-size: 40px""><b>错误！+0 pts</b></span></div>
                            ","","learn","2","2","2","learn","9","9","[0, 1, 2, 3, 4, 5, 6, 7, 8, 9]","12","4","setsize","3S10A","animals","2","0","3","0",""
"null","null","fixation","html-keyboard-response","259","410873","0.0-1.0-9.0-3.0-0.13","23:45:47","3","","","","","","","fixation","","","","","","","","","","","","","","","","","","",""
"500","5","pic_response","html-keyboard-response","260","411373","0.0-1.0-9.0-3.0-1.13","23:45:47","3","","","","","","","<div>
            <img class='stim' src=""pictures/animals/1.jpg""></div><div class=""button_prompt"">
                    <b>请用数字键0-9回答</b>
                    </div>","","","","","","","","","","","","","","","","","","",""
"500","null","sub_response","html-keyboard-response","261","412374","0.0-1.0-9.0-3.0-2.13","23:45:47","3","","","","","","","<div style='text-align: center;'>
                            <span style=""color: red; font-size: 40px""><b>错误！+0 pts</b></span></div>
                            ","","learn","1","1","1","learn","6","6","[0, 1, 2, 3, 4, 5, 6, 7, 8, 9]","13","4","setsize","3S10A","animals","2","0","4","0",""
"null","null","fixation","html-keyboard-response","262","412875","0.0-1.0-9.0-3.0-0.14","23:45:47","3","","","","","","","fixation","","","","","","","","","","","","","","","","","","",""
"2096","3","pic_response","html-keyboard-response","263","414972","0.0-1.0-9.0-3.0-1.14","23:45:47","3","","","","","","","<div>
            <img class='stim' src=""pictures/animals/0.jpg""></div><div class=""button_prompt"">
                    <b>请用数字键0-9回答</b>
                    </div>","","","","","","","","","","","","","","","","","","",""
"2096","null","sub_response","html-keyboard-response","264","415973","0.0-1.0-9.0-3.0-2.14","23:45:47","3","","","","","","","<div style='text-align: center;'>
                            <span style=""color: green; font-size: 40px""><b>正确！+1 pts</b></span></div>
                            ","","learn","0","0","0","learn","2","2","[0, 1, 2, 3, 4, 5, 6, 7, 8, 9]","14","4","setsize","3S10A","animals","2","1","2","1",""
"null","null","fixation","html-keyboard-response","265","416474","0.0-1.0-9.0-3.0-0.15","23:45:47","3","","","","","","","fixation","","","","","","","","","","","","","","","","","","",""
"959","5","pic_response","html-keyboard-response","266","417434","0.0-1.0-9.0-3.0-1.15","23:45:47","3","","","","","","","<div>
            <img class='stim' src=""pictures/animals/2.jpg""></div><div class=""button_prompt"">
                    <b>请用数字键0-9回答</b>
                    </div>","","","","","","","","","","","","","","","","","","",""
"959","null","sub_response","html-keyboard-response","267","418435","0.0-1.0-9.0-3.0-2.15","23:45:47","3","","","","","","","<div style='text-align: center;'>
                            <span style=""color: red; font-size: 40px""><b>错误！+0 pts</b></span></div>
                            ","","learn","2","2","2","learn","9","9","[0, 1, 2, 3, 4, 5, 6, 7, 8, 9]","15","5","setsize","3S10A","animals","2","0","4","0",""
"null","null","fixation","html-keyboard-response","268","418936","0.0-1.0-9.0-3.0-0.16","23:45:47","3","","","","","","","fixation","","","","","","","","","","","","","","","","","","",""
"384","6","pic_response","html-keyboard-response","269","419322","0.0-1.0-9.0-3.0-1.16","23:45:47","3","","","","","","","<div>
            <img class='stim' src=""pictures/animals/1.jpg""></div><div class=""button_prompt"">
                    <b>请用数字键0-9回答</b>
                    </div>","","","","","","","","","","","","","","","","","","",""
"384","null","sub_response","html-keyboard-response","270","420322","0.0-1.0-9.0-3.0-2.16","23:45:47","3","","","","","","","<div style='text-align: center;'>
                            <span style=""color: red; font-size: 40px""><b>错误！+0 pts</b></span></div>
                            ","","learn","1","1","1","learn","6","6","[0, 1, 2, 3, 4, 5, 6, 7, 8, 9]","16","5","setsize","3S10A","animals","2","0","5","0",""
"null","null","fixation","html-keyboard-response","271","420827","0.0-1.0-9.0-3.0-0.17","23:45:47","3","","","","","","","fixation","","","","","","","","","","","","","","","","","","",""
"729","3","pic_response","html-keyboard-response","272","421557","0.0-1.0-9.0-3.0-1.17","23:45:47","3","","","","","","","<div>
            <img class='stim' src=""pictures/animals/0.jpg""></div><div class=""button_prompt"">
                    <b>请用数字键0-9回答</b>
                    </div>","","","","","","","","","","","","","","","","","","",""
"729","null","sub_response","html-keyboard-response","273","422558","0.0-1.0-9.0-3.0-2.17","23:45:47","3","","","","","","","<div style='text-align: center;'>
                            <span style=""color: green; font-size: 40px""><b>正确！+1 pts</b></span></div>
                            ","","learn","0","0","0","learn","2","2","[0, 1, 2, 3, 4, 5, 6, 7, 8, 9]","17","5","setsize","3S10A","animals","2","1","2","1",""
"null","null","fixation","html-keyboard-response","274","423059","0.0-1.0-9.0-3.0-0.18","23:45:47","3","","","","","","","fixation","","","","","","","","","","","","","","","","","","",""
"589","6","pic_response","html-keyboard-response","275","423649","0.0-1.0-9.0-3.0-1.18","23:45:47","3","","","","","","","<div>
            <img class='stim' src=""pictures/animals/1.jpg""></div><div class=""button_prompt"">
                    <b>请用数字键0-9回答</b>
                    </div>","","","","","","","","","","","","","","","","","","",""
"589","null","sub_response","html-keyboard-response","276","424650","0.0-1.0-9.0-3.0-2.18","23:45:47","3","","","","","","","<div style='text-align: center;'>
                            <span style=""color: red; font-size: 40px""><b>错误！+0 pts</b></span></div>
                            ","","learn","1","1","1","learn","6","6","[0, 1, 2, 3, 4, 5, 6, 7, 8, 9]","18","6","setsize","3S10A","animals","2","0","5","0",""
"null","null","fixation","html-keyboard-response","277","425151","0.0-1.0-9.0-3.0-0.19","23:45:47","3","","","","","","","fixation","","","","","","","","","","","","","","","","","","",""
"1095","6","pic_response","html-keyboard-response","278","426247","0.0-1.0-9.0-3.0-1.19","23:45:47","3","","","","","","","<div>
            <img class='stim' src=""pictures/animals/2.jpg""></div><div class=""button_prompt"">
                    <b>请用数字键0-9回答</b>
                    </div>","","","","","","","","","","","","","","","","","","",""
"1095","null","sub_response","html-keyboard-response","279","427249","0.0-1.0-9.0-3.0-2.19","23:45:47","3","","","","","","","<div style='text-align: center;'>
                            <span style=""color: red; font-size: 40px""><b>错误！+0 pts</b></span></div>
                            ","","learn","2","2","2","learn","9","9","[0, 1, 2, 3, 4, 5, 6, 7, 8, 9]","19","6","setsize","3S10A","animals","2","0","5","0",""
"null","null","fixation","html-keyboard-response","280","427750","0.0-1.0-9.0-3.0-0.20","23:45:47","3","","","","","","","fixation","","","","","","","","","","","","","","","","","","",""
"624","3","pic_response","html-keyboard-response","281","428375","0.0-1.0-9.0-3.0-1.20","23:45:47","3","","","","","","","<div>
            <img class='stim' src=""pictures/animals/0.jpg""></div><div class=""button_prompt"">
                    <b>请用数字键0-9回答</b>
                    </div>","","","","","","","","","","","","","","","","","","",""
"624","null","sub_response","html-keyboard-response","282","429378","0.0-1.0-9.0-3.0-2.20","23:45:47","3","","","","","","","<div style='text-align: center;'>
                            <span style=""color: green; font-size: 40px""><b>正确！+1 pts</b></span></div>
                            ","","learn","0","0","0","learn","2","2","[0, 1, 2, 3, 4, 5, 6, 7, 8, 9]","20","6","setsize","3S10A","animals","2","1","2","1",""
"null","null","fixation","html-keyboard-response","283","429879","0.0-1.0-9.0-3.0-0.21","23:45:47","3","","","","","","","fixation","","","","","","","","","","","","","","","","","","",""
"328","7","pic_response","html-keyboard-response","284","430207","0.0-1.0-9.0-3.0-1.21","23:45:47","3","","","","","","","<div>
            <img class='stim' src=""pictures/animals/1.jpg""></div><div class=""button_prompt"">
                    <b>请用数字键0-9回答</b>
                    </div>","","","","","","","","","","","","","","","","","","",""
"328","null","sub_response","html-keyboard-response","285","431209","0.0-1.0-9.0-3.0-2.21","23:45:47","3","","","","","","","<div style='text-align: center;'>
                            <span style=""color: green; font-size: 40px""><b>正确！+1 pts</b></span></div>
                            ","","learn","1","1","1","learn","6","6","[0, 1, 2, 3, 4, 5, 6, 7, 8, 9]","21","7","setsize","3S10A","animals","2","2","6","1",""
"null","null","fixation","html-keyboard-response","286","431710","0.0-1.0-9.0-3.0-0.22","23:45:47","3","","","","","","","fixation","","","","","","","","","","","","","","","","","","",""
"null","null","pic_response","html-keyboard-response","287","434712","0.0-1.0-9.0-3.0-1.22","23:45:47","3","","","","","","","<div>
            <img class='stim' src=""pictures/animals/2.jpg""></div><div class=""button_prompt"">
                    <b>请用数字键0-9回答</b>
                    </div>","","","","","","","","","","","","","","","","","","",""
"null","null","sub_response","html-keyboard-response","288","435713","0.0-1.0-9.0-3.0-2.22","23:45:47","3","","","","","","","<div style='text-align: center;'>
                            <span style=""color: red; font-size: 40px""><b>错误！+0 pts</b></span></div>
                            ","","learn","2","2","2","learn","9","9","[0, 1, 2, 3, 4, 5, 6, 7, 8, 9]","22","7","setsize","3S10A","animals","2","0","999","0",""
"null","null","fixation","html-keyboard-response","289","436214","0.0-1.0-9.0-3.0-0.23","23:45:47","3","","","","","","","fixation","","","","","","","","","","","","","","","","","","",""
"787","3","pic_response","html-keyboard-response","290","437002","0.0-1.0-9.0-3.0-1.23","23:45:47","3","","","","","","","<div>
            <img class='stim' src=""pictures/animals/0.jpg""></div><div class=""button_prompt"">
                    <b>请用数字键0-9回答</b>
                    </div>","","","","","","","","","","","","","","","","","","",""
"787","null","sub_response","html-keyboard-response","291","438002","0.0-1.0-9.0-3.0-2.23","23:45:47","3","","","","","","","<div style='text-align: center;'>
                            <span style=""color: green; font-size: 40px""><b>正确！+1 pts</b></span></div>
                            ","","learn","0","0","0","learn","2","2","[0, 1, 2, 3, 4, 5, 6, 7, 8, 9]","23","7","setsize","3S10A","animals","2","1","2","1",""
"null","null","fixation","html-keyboard-response","292","438504","0.0-1.0-9.0-3.0-0.24","23:45:47","3","","","","","","","fixation","","","","","","","","","","","","","","","","","","",""
"469","7","pic_response","html-keyboard-response","293","438973","0.0-1.0-9.0-3.0-1.24","23:45:47","3","","","","","","","<div>
            <img class='stim' src=""pictures/animals/1.jpg""></div><div class=""button_prompt"">
                    <b>请用数字键0-9回答</b>
                    </div>","","","","","","","","","","","","","","","","","","",""
"469","null","sub_response","html-keyboard-response","294","439976","0.0-1.0-9.0-3.0-2.24","23:45:47","3","","","","","","","<div style='text-align: center;'>
                            <span style=""color: green; font-size: 40px""><b>正确！+1 pts</b></span></div>
                            ","","learn","1","1","1","learn","6","6","[0, 1, 2, 3, 4, 5, 6, 7, 8, 9]","24","8","setsize","3S10A","animals","2","2","6","1",""
"null","null","fixation","html-keyboard-response","295","440477","0.0-1.0-9.0-3.0-0.25","23:45:47","3","","","","","","","fixation","","","","","","","","","","","","","","","","","","",""
"1214","3","pic_response","html-keyboard-response","296","441691","0.0-1.0-9.0-3.0-1.25","23:45:47","3","","","","","","","<div>
            <img class='stim' src=""pictures/animals/0.jpg""></div><div class=""button_prompt"">
                    <b>请用数字键0-9回答</b>
                    </div>","","","","","","","","","","","","","","","","","","",""
"1214","null","sub_response","html-keyboard-response","297","442692","0.0-1.0-9.0-3.0-2.25","23:45:47","3","","","","","","","<div style='text-align: center;'>
                            <span style=""color: green; font-size: 40px""><b>正确！+1 pts</b></span></div>
                            ","","learn","0","0","0","learn","2","2","[0, 1, 2, 3, 4, 5, 6, 7, 8, 9]","25","8","setsize","3S10A","animals","2","3","2","1",""
"null","null","fixation","html-keyboard-response","298","443196","0.0-1.0-9.0-3.0-0.26","23:45:47","3","","","","","","","fixation","","","","","","","","","","","","","","","","","","",""
"584","9","pic_response","html-keyboard-response","299","443781","0.0-1.0-9.0-3.0-1.26","23:45:47","3","","","","","","","<div>
            <img class='stim' src=""pictures/animals/2.jpg""></div><div class=""button_prompt"">
                    <b>请用数字键0-9回答</b>
                    </div>","","","","","","","","","","","","","","","","","","",""
"584","null","sub_response","html-keyboard-response","300","444782","0.0-1.0-9.0-3.0-2.26","23:45:47","3","","","","","","","<div style='text-align: center;'>
                            <span style=""color: red; font-size: 40px""><b>错误！+0 pts</b></span></div>
                            ","","learn","2","2","2","learn","9","9","[0, 1, 2, 3, 4, 5, 6, 7, 8, 9]","26","8","setsize","3S10A","animals","2","0","8","0",""
"null","null","fixation","html-keyboard-response","301","445283","0.0-1.0-9.0-3.0-0.27","23:45:47","3","","","","","","","fixation","","","","","","","","","","","","","","","","","","",""
"1393","3","pic_response","html-keyboard-response","302","446676","0.0-1.0-9.0-3.0-1.27","23:45:47","3","","","","","","","<div>
            <img class='stim' src=""pictures/animals/0.jpg""></div><div class=""button_prompt"">
                    <b>请用数字键0-9回答</b>
                    </div>","","","","","","","","","","","","","","","","","","",""
"1393","null","sub_response","html-keyboard-response","303","447678","0.0-1.0-9.0-3.0-2.27","23:45:47","3","","","","","","","<div style='text-align: center;'>
                            <span style=""color: green; font-size: 40px""><b>正确！+1 pts</b></span></div>
                            ","","learn","0","0","0","learn","2","2","[0, 1, 2, 3, 4, 5, 6, 7, 8, 9]","27","9","setsize","3S10A","animals","2","1","2","1",""
"null","null","fixation","html-keyboard-response","304","448179","0.0-1.0-9.0-3.0-0.28","23:45:47","3","","","","","","","fixation","","","","","","","","","","","","","","","","","","",""
"729","8","pic_response","html-keyboard-response","305","448908","0.0-1.0-9.0-3.0-1.28","23:45:47","3","","","","","","","<div>
            <img class='stim' src=""pictures/animals/2.jpg""></div><div class=""button_prompt"">
                    <b>请用数字键0-9回答</b>
                    </div>","","","","","","","","","","","","","","","","","","",""
"729","null","sub_response","html-keyboard-response","306","449910","0.0-1.0-9.0-3.0-2.28","23:45:47","3","","","","","","","<div style='text-align: center;'>
                            <span style=""color: red; font-size: 40px""><b>错误！+0 pts</b></span></div>
                            ","","learn","2","2","2","learn","9","9","[0, 1, 2, 3, 4, 5, 6, 7, 8, 9]","28","9","setsize","3S10A","animals","2","0","7","0",""
"null","null","fixation","html-keyboard-response","307","450411","0.0-1.0-9.0-3.0-0.29","23:45:47","3","","","","","","","fixation","","","","","","","","","","","","","","","","","","",""
"1760","7","pic_response","html-keyboard-response","308","452172","0.0-1.0-9.0-3.0-1.29","23:45:47","3","","","","","","","<div>
            <img class='stim' src=""pictures/animals/1.jpg""></div><div class=""button_prompt"">
                    <b>请用数字键0-9回答</b>
                    </div>","","","","","","","","","","","","","","","","","","",""
"1760","null","sub_response","html-keyboard-response","309","453173","0.0-1.0-9.0-3.0-2.29","23:45:47","3","","","","","","","<div style='text-align: center;'>
                            <span style=""color: green; font-size: 40px""><b>正确！+1 pts</b></span></div>
                            ","","learn","1","1","1","learn","6","6","[0, 1, 2, 3, 4, 5, 6, 7, 8, 9]","29","9","setsize","3S10A","animals","2","1","6","1",""
"null","null","fixation","html-keyboard-response","310","453674","0.0-1.0-9.0-3.0-0.30","23:45:47","3","","","","","","","fixation","","","","","","","","","","","","","","","","","","",""
"611","6","pic_response","html-keyboard-response","311","454285","0.0-1.0-9.0-3.0-1.30","23:45:47","3","","","","","","","<div>
            <img class='stim' src=""pictures/animals/2.jpg""></div><div class=""button_prompt"">
                    <b>请用数字键0-9回答</b>
                    </div>","","","","","","","","","","","","","","","","","","",""
"611","null","sub_response","html-keyboard-response","312","455287","0.0-1.0-9.0-3.0-2.30","23:45:47","3","","","","","","","<div style='text-align: center;'>
                            <span style=""color: red; font-size: 40px""><b>错误！+0 pts</b></span></div>
                            ","","learn","2","2","2","learn","9","9","[0, 1, 2, 3, 4, 5, 6, 7, 8, 9]","30","10","setsize","3S10A","animals","2","0","5","0",""
"null","null","fixation","html-keyboard-response","313","455789","0.0-1.0-9.0-3.0-0.31","23:45:47","3","","","","","","","fixation","","","","","","","","","","","","","","","","","","",""
"1378","3","pic_response","html-keyboard-response","314","457168","0.0-1.0-9.0-3.0-1.31","23:45:47","3","","","","","","","<div>
            <img class='stim' src=""pictures/animals/0.jpg""></div><div class=""button_prompt"">
                    <b>请用数字键0-9回答</b>
                    </div>","","","","","","","","","","","","","","","","","","",""
"1378","null","sub_response","html-keyboard-response","315","458169","0.0-1.0-9.0-3.0-2.31","23:45:47","3","","","","","","","<div style='text-align: center;'>
                            <span style=""color: green; font-size: 40px""><b>正确！+1 pts</b></span></div>
                            ","","learn","0","0","0","learn","2","2","[0, 1, 2, 3, 4, 5, 6, 7, 8, 9]","31","10","setsize","3S10A","animals","2","1","2","1",""
"null","null","fixation","html-keyboard-response","316","458670","0.0-1.0-9.0-3.0-0.32","23:45:47","3","","","","","","","fixation","","","","","","","","","","","","","","","","","","",""
"1547","7","pic_response","html-keyboard-response","317","460218","0.0-1.0-9.0-3.0-1.32","23:45:47","3","","","","","","","<div>
            <img class='stim' src=""pictures/animals/1.jpg""></div><div class=""button_prompt"">
                    <b>请用数字键0-9回答</b>
                    </div>","","","","","","","","","","","","","","","","","","",""
"1547","null","sub_response","html-keyboard-response","318","461219","0.0-1.0-9.0-3.0-2.32","23:45:47","3","","","","","","","<div style='text-align: center;'>
                            <span style=""color: green; font-size: 40px""><b>正确！+1 pts</b></span></div>
                            ","","learn","1","1","1","learn","6","6","[0, 1, 2, 3, 4, 5, 6, 7, 8, 9]","32","10","setsize","3S10A","animals","2","2","6","1",""
"null","null","fixation","html-keyboard-response","319","461721","0.0-1.0-9.0-3.0-0.33","23:45:47","3","","","","","","","fixation","","","","","","","","","","","","","","","","","","",""
"724","7","pic_response","html-keyboard-response","320","462445","0.0-1.0-9.0-3.0-1.33","23:45:47","3","","","","","","","<div>
            <img class='stim' src=""pictures/animals/1.jpg""></div><div class=""button_prompt"">
                    <b>请用数字键0-9回答</b>
                    </div>","","","","","","","","","","","","","","","","","","",""
