"rt","response","screen_id","trial_type","trial_index","time_elapsed","internal_node_id","start_time","n_Prac","success","timeout","failed_images","failed_audio","failed_video","view_history","stimulus","question_order","stage","s","word","word_id","phase","a_cor","a_real","a_ava","trial","tps","task_type","block_typ","pic_typ","block_id","cum_r","a","r","plugin_name"
"21601","{""sub_id"":""1"",""task_type"":""task1"",""name"":""李华"",""gender"":""男""}","basic_info","survey-html-form","0","21605","0.0-0.0","18:00:05","3","","","","","","","","","","","","","","","","","","","","","","","","","",""
"","","","preload","1","22823","0.0-1.0-0.0","18:00:05","3","true","false","[]","[]","[]","","","","","","","","","","","","","","","","","","","","",""
"","","","preload","2","23105","0.0-1.0-1.0","18:00:05","3","true","false","[]","[]","[]","","","","","","","","","","","","","","","","","","","","",""
"","","","fullscreen","3","26600","0.0-1.0-2.0","18:00:05","3","true","","","","","","","","","","","","","","","","","","","","","","","","",""
"47879","","instruct","instructions","4","74481","0.0-1.0-3.0-0.0","18:00:05","3","","","","","","[{""page_index"":0,""viewing_time"":16356},{""page_index"":1,""viewing_time"":3615},{""page_index"":0,""viewing_time"":13981},{""page_index"":1,""viewing_time"":4170},{""page_index"":2,""viewing_time"":9758}]","","","","","","","","","","","","","","","","","","","",""
"12171","{""Q0"":"""",""task1"":""<span style='font-size: 24px'>学习图片和数字的对应关系</span>"",""task2"":""<span style='font-size: 24px'> 数字键1-3 </span>"",""task3"":""<span style='font-size: 24px'> 看到图片选出正确对应的数字 </span>""}","question","survey-multi-choice","5","86653","0.0-1.0-3.0-1.0","18:00:05","3","","","","","","","","[0,1,2,3]","","","","","","","","","","","","","","","","","",""
"3548"," ","inst_q","html-keyboard-response","6","90204","0.0-1.0-3.0-2.0","18:00:05","3","","","","","","","inst","","1","","","","","","","","","","","","","","","","",""
"7066","","instruct","instructions","7","97272","0.0-1.0-3.1-0.1","18:00:05","3","","","","","","[{""page_index"":0,""viewing_time"":3868},{""page_index"":1,""viewing_time"":1375},{""page_index"":2,""viewing_time"":1822}]","","","","","","","","","","","","","","","","","","","",""
"12600","{""Q0"":"""",""task1"":""<span style='font-size: 24px'>学习图片和数字的对应关系</span>"",""task2"":""<span style='font-size: 24px'> 数字键1-3 </span>"",""task3"":""<span style='font-size: 24px'> 猜测Queen Elizabeth住在哪一栋房子里 </span>""}","question","survey-multi-choice","8","109873","0.0-1.0-3.1-1.1","18:00:05","3","","","","","","","","[0,1,2,3]","","","","","","","","","","","","","","","","","",""
"2082"," ","inst_q","html-keyboard-response","9","111957","0.0-1.0-3.1-2.1","18:00:05","3","","","","","","","inst","","1","","","","","","","","","","","","","","","","",""
"9877","","instruct","instructions","10","121834","0.0-1.0-3.2-0.2","18:00:05","3","","","","","","[{""page_index"":0,""viewing_time"":1965},{""page_index"":1,""viewing_time"":3885},{""page_index"":2,""viewing_time"":4027}]","","","","","","","","","","","","","","","","","","","",""
"8459","{""Q0"":"""",""task1"":""<span style='font-size: 24px'>学习图片和数字的对应关系</span>"",""task2"":""<span style='font-size: 24px'> 图片下方标注为可用的数字键（数字键1-3或0-9） </span>"",""task3"":""<span style='font-size: 24px'> 看到图片选出正确对应的数字 </span>""}","question","survey-multi-choice","11","130295","0.0-1.0-3.2-1.2","18:00:05","3","","","","","","","","[0,1,2,3]","","","","","","","","","","","","","","","","","",""
"2672"," ","inst_q","html-keyboard-response","12","132970","0.0-1.0-3.2-2.2","18:00:05","3","","","","","","","inst","","1","","","","","","","","","","","","","","","","",""
"","","","preload","13","133175","0.0-1.0-4.0-0.0","18:00:05","3","true","false","[]","[]","[]","","","","","","","","","","","","","","","","","","","","",""
"3034"," ","","html-keyboard-response","14","136205","0.0-1.0-4.0-1.0","18:00:05","3","","","","","","","<div style='font-size: 32px; text-align: center;'
                    <p>请学习图片和数字之间的对应关系</p>
                    <p>我们将<span style='color: blue'><b> 告诉 </b></span>您选择的对错。请根据反馈学习。</p>
                    <p>请按""空格""继续实验。</p></div>","","","","","","","","","","","","","","","","","","",""
"8588"," ","inst","html-keyboard-response","15","144794","0.0-1.0-4.0-2.0","18:00:05","3","","","","","","","<img class='instruct_stim' src=""instruction/prac3.PNG""></div>","","","","","","","","","","","","","","","","","","",""
"null","null","fixation","html-keyboard-response","16","145295","0.0-1.0-4.0-3.0-0.0","18:00:05","3","","","","","","","fixation","","","","","","","","","","","","","","","","","","",""
"1678","2","pic_response","html-keyboard-response","17","146975","0.0-1.0-4.0-3.0-1.0","18:00:05","3","","","","","","","<div>
            <img class='stim' src=""pictures/prac/0.jpg""></div><div class=""button_prompt"">
                        <b>请用数字键1-3回答</b>
                        </div>","","","","","","","","","","","","","","","","","","",""
"1678","null","sub_response","html-keyboard-response","18","147981","0.0-1.0-4.0-3.0-2.0","18:00:05","3","","","","","","","<div style='text-align: center;'>
                            <span style=""color: red; font-size: 40px""><b>错误！+0 pts</b></span></div>
                            ","","learn","0","0","0","learn","0","0","[0, 1, 2]","0","0","setsize","99","prac","0","0","1","0",""
"null","null","fixation","html-keyboard-response","19","148483","0.0-1.0-4.0-3.0-0.1","18:00:05","3","","","","","","","fixation","","","","","","","","","","","","","","","","","","",""
"2141","2","pic_response","html-keyboard-response","20","150625","0.0-1.0-4.0-3.0-1.1","18:00:05","3","","","","","","","<div>
            <img class='stim' src=""pictures/prac/1.jpg""></div><div class=""button_prompt"">
                        <b>请用数字键1-3回答</b>
                        </div>","","","","","","","","","","","","","","","","","","",""
"2141","null","sub_response","html-keyboard-response","21","151633","0.0-1.0-4.0-3.0-2.1","18:00:05","3","","","","","","","<div style='text-align: center;'>
                            <span style=""color: red; font-size: 40px""><b>错误！+0 pts</b></span></div>
                            ","","learn","1","1","1","learn","0","0","[0, 1, 2]","1","0","setsize","99","prac","0","0","1","0",""
"null","null","fixation","html-keyboard-response","22","152139","0.0-1.0-4.0-3.0-0.2","18:00:05","3","","","","","","","fixation","","","","","","","","","","","","","","","","","","",""
"1473","1","pic_response","html-keyboard-response","23","153612","0.0-1.0-4.0-3.0-1.2","18:00:05","3","","","","","","","<div>
            <img class='stim' src=""pictures/prac/2.jpg""></div><div class=""button_prompt"">
                        <b>请用数字键1-3回答</b>
                        </div>","","","","","","","","","","","","","","","","","","",""
"1473","null","sub_response","html-keyboard-response","24","154617","0.0-1.0-4.0-3.0-2.2","18:00:05","3","","","","","","","<div style='text-align: center;'>
                            <span style=""color: red; font-size: 40px""><b>错误！+0 pts</b></span></div>
                            ","","learn","2","2","2","learn","2","2","[0, 1, 2]","2","0","setsize","99","prac","0","0","0","0",""
"null","null","fixation","html-keyboard-response","25","155120","0.0-1.0-4.0-3.0-0.3","18:00:05","3","","","","","","","fixation","","","","","","","","","","","","","","","","","","",""
"1741","1","pic_response","html-keyboard-response","26","156862","0.0-1.0-4.0-3.0-1.3","18:00:05","3","","","","","","","<div>
            <img class='stim' src=""pictures/prac/0.jpg""></div><div class=""button_prompt"">
                        <b>请用数字键1-3回答</b>
                        </div>","","","","","","","","","","","","","","","","","","",""
"1741","null","sub_response","html-keyboard-response","27","157868","0.0-1.0-4.0-3.0-2.3","18:00:05","3","","","","","","","<div style='text-align: center;'>
                            <span style=""color: green; font-size: 40px""><b>正确！+1 pts</b></span></div>
                            ","","learn","0","0","0","learn","0","0","[0, 1, 2]","3","1","setsize","99","prac","0","1","0","1",""
"null","null","fixation","html-keyboard-response","28","158374","0.0-1.0-4.0-3.0-0.4","18:00:05","3","","","","","","","fixation","","","","","","","","","","","","","","","","","","",""
"1820","3","pic_response","html-keyboard-response","29","160195","0.0-1.0-4.0-3.0-1.4","18:00:05","3","","","","","","","<div>
            <img class='stim' src=""pictures/prac/1.jpg""></div><div class=""button_prompt"">
                        <b>请用数字键1-3回答</b>
                        </div>","","","","","","","","","","","","","","","","","","",""
"1820","null","sub_response","html-keyboard-response","30","161201","0.0-1.0-4.0-3.0-2.4","18:00:05","3","","","","","","","<div style='text-align: center;'>
                            <span style=""color: red; font-size: 40px""><b>错误！+0 pts</b></span></div>
                            ","","learn","1","1","1","learn","0","0","[0, 1, 2]","4","1","setsize","99","prac","0","0","2","0",""
"null","null","fixation","html-keyboard-response","31","161711","0.0-1.0-4.0-3.0-0.5","18:00:05","3","","","","","","","fixation","","","","","","","","","","","","","","","","","","",""
"1254","3","pic_response","html-keyboard-response","32","162966","0.0-1.0-4.0-3.0-1.5","18:00:05","3","","","","","","","<div>
            <img class='stim' src=""pictures/prac/2.jpg""></div><div class=""button_prompt"">
                        <b>请用数字键1-3回答</b>
                        </div>","","","","","","","","","","","","","","","","","","",""
"1254","null","sub_response","html-keyboard-response","33","163976","0.0-1.0-4.0-3.0-2.5","18:00:05","3","","","","","","","<div style='text-align: center;'>
                            <span style=""color: green; font-size: 40px""><b>正确！+1 pts</b></span></div>
                            ","","learn","2","2","2","learn","2","2","[0, 1, 2]","5","1","setsize","99","prac","0","1","2","1",""
"","","","preload","34","163980","0.0-1.0-4.1-0.1","18:00:05","3","true","false","[]","[]","[]","","","","","","","","","","","","","","","","","","","","",""
"3139"," ","","html-keyboard-response","35","167120","0.0-1.0-4.1-1.1","18:00:05","3","","","","","","","<div style='font-size: 32px; text-align: center;'
                    <p>请学习图片和数字之间的对应关系</p>
                    <p>我们将<span style='color: blue'><b> 告诉 </b></span>您选择的对错。请根据反馈学习。</p>
                    <p>请按""空格""继续实验。</p></div>","","","","","","","","","","","","","","","","","","",""
"2773"," ","inst","html-keyboard-response","36","169893","0.0-1.0-4.1-2.1","18:00:05","3","","","","","","","<img class='instruct_stim' src=""instruction/prac3.PNG""></div>","","","","","","","","","","","","","","","","","","",""
"null","null","fixation","html-keyboard-response","37","170398","0.0-1.0-4.1-3.1-0.6","18:00:05","3","","","","","","","fixation","","","","","","","","","","","","","","","","","","",""
"2083","1","pic_response","html-keyboard-response","38","172482","0.0-1.0-4.1-3.1-1.6","18:00:05","3","","","","","","","<div>
            <img class='stim' src=""pictures/prac/0.jpg""></div><div class=""button_prompt"">
                        <b>请用数字键1-3回答</b>
                        </div>","","","","","","","","","","","","","","","","","","",""
"2083","null","sub_response","html-keyboard-response","39","173489","0.0-1.0-4.1-3.1-2.6","18:00:05","3","","","","","","","<div style='text-align: center;'>
                            <span style=""color: green; font-size: 40px""><b>正确！+1 pts</b></span></div>
                            ","","learn","0","0","0","learn","0","0","[0, 1, 2]","0","0","setsize","99","prac","0","2","0","1",""
"null","null","fixation","html-keyboard-response","40","174001","0.0-1.0-4.1-3.1-0.7","18:00:05","3","","","","","","","fixation","","","","","","","","","","","","","","","","","","",""
"2303","3","pic_response","html-keyboard-response","41","176306","0.0-1.0-4.1-3.1-1.7","18:00:05","3","","","","","","","<div>
            <img class='stim' src=""pictures/prac/1.jpg""></div><div class=""button_prompt"">
                        <b>请用数字键1-3回答</b>
                        </div>","","","","","","","","","","","","","","","","","","",""
"2303","null","sub_response","html-keyboard-response","42","177307","0.0-1.0-4.1-3.1-2.7","18:00:05","3","","","","","","","<div style='text-align: center;'>
                            <span style=""color: red; font-size: 40px""><b>错误！+0 pts</b></span></div>
                            ","","learn","1","1","1","learn","0","0","[0, 1, 2]","1","0","setsize","99","prac","0","0","2","0",""
"null","null","fixation","html-keyboard-response","43","177814","0.0-1.0-4.1-3.1-0.8","18:00:05","3","","","","","","","fixation","","","","","","","","","","","","","","","","","","",""
"891","3","pic_response","html-keyboard-response","44","178706","0.0-1.0-4.1-3.1-1.8","18:00:05","3","","","","","","","<div>
            <img class='stim' src=""pictures/prac/2.jpg""></div><div class=""button_prompt"">
                        <b>请用数字键1-3回答</b>
                        </div>","","","","","","","","","","","","","","","","","","",""
"891","null","sub_response","html-keyboard-response","45","179712","0.0-1.0-4.1-3.1-2.8","18:00:05","3","","","","","","","<div style='text-align: center;'>
                            <span style=""color: green; font-size: 40px""><b>正确！+1 pts</b></span></div>
                            ","","learn","2","2","2","learn","2","2","[0, 1, 2]","2","0","setsize","99","prac","0","1","2","1",""
"null","null","fixation","html-keyboard-response","46","180217","0.0-1.0-4.1-3.1-0.9","18:00:05","3","","","","","","","fixation","","","","","","","","","","","","","","","","","","",""
"1413","2","pic_response","html-keyboard-response","47","181632","0.0-1.0-4.1-3.1-1.9","18:00:05","3","","","","","","","<div>
            <img class='stim' src=""pictures/prac/0.jpg""></div><div class=""button_prompt"">
                        <b>请用数字键1-3回答</b>
                        </div>","","","","","","","","","","","","","","","","","","",""
"1413","null","sub_response","html-keyboard-response","48","182641","0.0-1.0-4.1-3.1-2.9","18:00:05","3","","","","","","","<div style='text-align: center;'>
                            <span style=""color: red; font-size: 40px""><b>错误！+0 pts</b></span></div>
                            ","","learn","0","0","0","learn","0","0","[0, 1, 2]","3","1","setsize","99","prac","0","0","1","0",""
"null","null","fixation","html-keyboard-response","49","183144","0.0-1.0-4.1-3.1-0.10","18:00:05","3","","","","","","","fixation","","","","","","","","","","","","","","","","","","",""
"1927","1","pic_response","html-keyboard-response","50","185072","0.0-1.0-4.1-3.1-1.10","18:00:05","3","","","","","","","<div>
            <img class='stim' src=""pictures/prac/1.jpg""></div><div class=""button_prompt"">
                        <b>请用数字键1-3回答</b>
                        </div>","","","","","","","","","","","","","","","","","","",""
"1927","null","sub_response","html-keyboard-response","51","186073","0.0-1.0-4.1-3.1-2.10","18:00:05","3","","","","","","","<div style='text-align: center;'>
                            <span style=""color: green; font-size: 40px""><b>正确！+1 pts</b></span></div>
                            ","","learn","1","1","1","learn","0","0","[0, 1, 2]","4","1","setsize","99","prac","0","1","0","1",""
"null","null","fixation","html-keyboard-response","52","186576","0.0-1.0-4.1-3.1-0.11","18:00:05","3","","","","","","","fixation","","","","","","","","","","","","","","","","","","",""
"1420","3","pic_response","html-keyboard-response","53","187997","0.0-1.0-4.1-3.1-1.11","18:00:05","3","","","","","","","<div>
            <img class='stim' src=""pictures/prac/2.jpg""></div><div class=""button_prompt"">
                        <b>请用数字键1-3回答</b>
                        </div>","","","","","","","","","","","","","","","","","","",""
"1420","null","sub_response","html-keyboard-response","54","189001","0.0-1.0-4.1-3.1-2.11","18:00:05","3","","","","","","","<div style='text-align: center;'>
                            <span style=""color: green; font-size: 40px""><b>正确！+1 pts</b></span></div>
                            ","","learn","2","2","2","learn","2","2","[0, 1, 2]","5","1","setsize","99","prac","0","2","2","1",""
"","","","preload","55","189004","0.0-1.0-4.2-0.2","18:00:05","3","true","false","[]","[]","[]","","","","","","","","","","","","","","","","","","","","",""
"3287"," ","","html-keyboard-response","56","192292","0.0-1.0-4.2-1.2","18:00:05","3","","","","","","","<div style='font-size: 32px; text-align: center;'
                    <p>请学习图片和数字之间的对应关系</p>
                    <p>我们将<span style='color: blue'><b> 告诉 </b></span>您选择的对错。请根据反馈学习。</p>
                    <p>请按""空格""继续实验。</p></div>","","","","","","","","","","","","","","","","","","",""
"1688"," ","inst","html-keyboard-response","57","193981","0.0-1.0-4.2-2.2","18:00:05","3","","","","","","","<img class='instruct_stim' src=""instruction/prac3.PNG""></div>","","","","","","","","","","","","","","","","","","",""
"null","null","fixation","html-keyboard-response","58","194489","0.0-1.0-4.2-3.2-0.12","18:00:05","3","","","","","","","fixation","","","","","","","","","","","","","","","","","","",""
"2273","3","pic_response","html-keyboard-response","59","196766","0.0-1.0-4.2-3.2-1.12","18:00:05","3","","","","","","","<div>
            <img class='stim' src=""pictures/prac/0.jpg""></div><div class=""button_prompt"">
                        <b>请用数字键1-3回答</b>
                        </div>","","","","","","","","","","","","","","","","","","",""
"2273","null","sub_response","html-keyboard-response","60","197770","0.0-1.0-4.2-3.2-2.12","18:00:05","3","","","","","","","<div style='text-align: center;'>
                            <span style=""color: red; font-size: 40px""><b>错误！+0 pts</b></span></div>
                            ","","learn","0","0","0","learn","0","0","[0, 1, 2]","0","0","setsize","99","prac","0","0","2","0",""
"null","null","fixation","html-keyboard-response","61","198273","0.0-1.0-4.2-3.2-0.13","18:00:05","3","","","","","","","fixation","","","","","","","","","","","","","","","","","","",""
"1042","1","pic_response","html-keyboard-response","62","199316","0.0-1.0-4.2-3.2-1.13","18:00:05","3","","","","","","","<div>
            <img class='stim' src=""pictures/prac/1.jpg""></div><div class=""button_prompt"">
                        <b>请用数字键1-3回答</b>
                        </div>","","","","","","","","","","","","","","","","","","",""
"1042","null","sub_response","html-keyboard-response","63","200323","0.0-1.0-4.2-3.2-2.13","18:00:05","3","","","","","","","<div style='text-align: center;'>
                            <span style=""color: green; font-size: 40px""><b>正确！+1 pts</b></span></div>
                            ","","learn","1","1","1","learn","0","0","[0, 1, 2]","1","0","setsize","99","prac","0","1","0","1",""
"null","null","fixation","html-keyboard-response","64","200824","0.0-1.0-4.2-3.2-0.14","18:00:05","3","","","","","","","fixation","","","","","","","","","","","","","","","","","","",""
"2619","3","pic_response","html-keyboard-response","65","203444","0.0-1.0-4.2-3.2-1.14","18:00:05","3","","","","","","","<div>
            <img class='stim' src=""pictures/prac/2.jpg""></div><div class=""button_prompt"">
                        <b>请用数字键1-3回答</b>
                        </div>","","","","","","","","","","","","","","","","","","",""
"2619","null","sub_response","html-keyboard-response","66","204449","0.0-1.0-4.2-3.2-2.14","18:00:05","3","","","","","","","<div style='text-align: center;'>
                            <span style=""color: green; font-size: 40px""><b>正确！+1 pts</b></span></div>
                            ","","learn","2","2","2","learn","2","2","[0, 1, 2]","2","0","setsize","99","prac","0","2","2","1",""
"null","null","fixation","html-keyboard-response","67","204956","0.0-1.0-4.2-3.2-0.15","18:00:05","3","","","","","","","fixation","","","","","","","","","","","","","","","","","","",""
"930","1","pic_response","html-keyboard-response","68","205887","0.0-1.0-4.2-3.2-1.15","18:00:05","3","","","","","","","<div>
            <img class='stim' src=""pictures/prac/0.jpg""></div><div class=""button_prompt"">
                        <b>请用数字键1-3回答</b>
                        </div>","","","","","","","","","","","","","","","","","","",""
"930","null","sub_response","html-keyboard-response","69","206896","0.0-1.0-4.2-3.2-2.15","18:00:05","3","","","","","","","<div style='text-align: center;'>
                            <span style=""color: green; font-size: 40px""><b>正确！+1 pts</b></span></div>
                            ","","learn","0","0","0","learn","0","0","[0, 1, 2]","3","1","setsize","99","prac","0","3","0","1",""
"null","null","fixation","html-keyboard-response","70","207397","0.0-1.0-4.2-3.2-0.16","18:00:05","3","","","","","","","fixation","","","","","","","","","","","","","","","","","","",""
"2417","1","pic_response","html-keyboard-response","71","209816","0.0-1.0-4.2-3.2-1.16","18:00:05","3","","","","","","","<div>
            <img class='stim' src=""pictures/prac/1.jpg""></div><div class=""button_prompt"">
                        <b>请用数字键1-3回答</b>
                        </div>","","","","","","","","","","","","","","","","","","",""
"2417","null","sub_response","html-keyboard-response","72","210821","0.0-1.0-4.2-3.2-2.16","18:00:05","3","","","","","","","<div style='text-align: center;'>
                            <span style=""color: green; font-size: 40px""><b>正确！+1 pts</b></span></div>
                            ","","learn","1","1","1","learn","0","0","[0, 1, 2]","4","1","setsize","99","prac","0","4","0","1",""
"null","null","fixation","html-keyboard-response","73","211327","0.0-1.0-4.2-3.2-0.17","18:00:05","3","","","","","","","fixation","","","","","","","","","","","","","","","","","","",""
"1464","3","pic_response","html-keyboard-response","74","212792","0.0-1.0-4.2-3.2-1.17","18:00:05","3","","","","","","","<div>
            <img class='stim' src=""pictures/prac/2.jpg""></div><div class=""button_prompt"">
                        <b>请用数字键1-3回答</b>
                        </div>","","","","","","","","","","","","","","","","","","",""
"1464","null","sub_response","html-keyboard-response","75","213800","0.0-1.0-4.2-3.2-2.17","18:00:05","3","","","","","","","<div style='text-align: center;'>
                            <span style=""color: green; font-size: 40px""><b>正确！+1 pts</b></span></div>
                            ","","learn","2","2","2","learn","2","2","[0, 1, 2]","5","1","setsize","99","prac","0","5","2","1",""
"null","null","","html-keyboard-response","76","273804","0.0-1.0-5.0","18:00:05","3","","","","","","","<div style=""font-size: 25px""><p>距下一个实验开始还有</p><div style=""font-size: 50px; color: blue""><p><span id=""clock"">1:00</span></div></p><p>按""空格""跳过休息</p></div>","","","","","","","","","","","","","","","","","","",""
"1154"," ","","html-keyboard-response","77","274959","0.0-1.0-6.0","18:00:05","3","","","","","","","<div style='font-size: 32px; text-align: center;'
                    <p>请按""空格""继续正式实验。</p></div>","","","","","","","","","","","","","","","","","","",""
"","","","preload","78","275379","0.0-1.0-7.0-0.0","18:00:05","3","true","false","[]","[]","[]","","","","","","","","","","","","","","","","","","","","",""
"2499"," ","","html-keyboard-response","79","277878","0.0-1.0-7.0-1.0","18:00:05","3","","","","","","","<div style='font-size: 32px; text-align: center;'
                    <p>请学习图片和数字之间的对应关系</p>
                    <p>我们将<span style='color: blue'><b> 告诉 </b></span>您选择的对错。请根据反馈学习。</p>
                    <p>请按""空格""继续实验。</p></div>","","","","","","","","","","","","","","","","","","",""
"2309"," ","inst","html-keyboard-response","80","280188","0.0-1.0-7.0-2.0","18:00:05","3","","","","","","","<img class='instruct_stim' src=""instruction/food3.PNG""></div>","","","","","","","","","","","","","","","","","","",""
"null","null","fixation","html-keyboard-response","81","280689","0.0-1.0-7.0-3.0-0.0","18:00:05","3","","","","","","","fixation","","","","","","","","","","","","","","","","","","",""
"1054","1","pic_response","html-keyboard-response","82","281744","0.0-1.0-7.0-3.0-1.0","18:00:05","3","","","","","","","<div>
            <img class='stim' src=""pictures/food/0.jpg""></div><div class=""button_prompt"">
                        <b>请用数字键1-3回答</b>
                        </div>","","","","","","","","","","","","","","","","","","",""
"1054","null","sub_response","html-keyboard-response","83","282751","0.0-1.0-7.0-3.0-2.0","18:00:05","3","","","","","","","<div style='text-align: center;'>
                            <span style=""color: green; font-size: 40px""><b>正确！+1 pts</b></span></div>
                            ","","learn","0","0","0","learn","0","0","[0, 1, 2]","0","0","setsize","3S3A","food","1","6","0","1",""
"null","null","fixation","html-keyboard-response","84","283256","0.0-1.0-7.0-3.0-0.1","18:00:05","3","","","","","","","fixation","","","","","","","","","","","","","","","","","","",""
"825","1","pic_response","html-keyboard-response","85","284081","0.0-1.0-7.0-3.0-1.1","18:00:05","3","","","","","","","<div>
            <img class='stim' src=""pictures/food/1.jpg""></div><div class=""button_prompt"">
                        <b>请用数字键1-3回答</b>
                        </div>","","","","","","","","","","","","","","","","","","",""
"825","null","sub_response","html-keyboard-response","86","285086","0.0-1.0-7.0-3.0-2.1","18:00:05","3","","","","","","","<div style='text-align: center;'>
                            <span style=""color: green; font-size: 40px""><b>正确！+1 pts</b></span></div>
                            ","","learn","1","1","1","learn","0","0","[0, 1, 2]","1","0","setsize","3S3A","food","1","7","0","1",""
"null","null","fixation","html-keyboard-response","87","285593","0.0-1.0-7.0-3.0-0.2","18:00:05","3","","","","","","","fixation","","","","","","","","","","","","","","","","","","",""
"1340","3","pic_response","html-keyboard-response","88","286933","0.0-1.0-7.0-3.0-1.2","18:00:05","3","","","","","","","<div>
            <img class='stim' src=""pictures/food/2.jpg""></div><div class=""button_prompt"">
                        <b>请用数字键1-3回答</b>
                        </div>","","","","","","","","","","","","","","","","","","",""
"1340","null","sub_response","html-keyboard-response","89","287940","0.0-1.0-7.0-3.0-2.2","18:00:05","3","","","","","","","<div style='text-align: center;'>
                            <span style=""color: green; font-size: 40px""><b>正确！+1 pts</b></span></div>
                            ","","learn","2","2","2","learn","2","2","[0, 1, 2]","2","0","setsize","3S3A","food","1","8","2","1",""
"null","null","fixation","html-keyboard-response","90","288444","0.0-1.0-7.0-3.0-0.3","18:00:05","3","","","","","","","fixation","","","","","","","","","","","","","","","","","","",""
"1047","1","pic_response","html-keyboard-response","91","289492","0.0-1.0-7.0-3.0-1.3","18:00:05","3","","","","","","","<div>
            <img class='stim' src=""pictures/food/1.jpg""></div><div class=""button_prompt"">
                        <b>请用数字键1-3回答</b>
                        </div>","","","","","","","","","","","","","","","","","","",""
"1047","null","sub_response","html-keyboard-response","92","290497","0.0-1.0-7.0-3.0-2.3","18:00:05","3","","","","","","","<div style='text-align: center;'>
                            <span style=""color: green; font-size: 40px""><b>正确！+1 pts</b></span></div>
                            ","","learn","1","1","1","learn","0","0","[0, 1, 2]","3","1","setsize","3S3A","food","1","9","0","1",""
"null","null","fixation","html-keyboard-response","93","291006","0.0-1.0-7.0-3.0-0.4","18:00:05","3","","","","","","","fixation","","","","","","","","","","","","","","","","","","",""
"2439","1","pic_response","html-keyboard-response","94","293446","0.0-1.0-7.0-3.0-1.4","18:00:05","3","","","","","","","<div>
            <img class='stim' src=""pictures/food/0.jpg""></div><div class=""button_prompt"">
                        <b>请用数字键1-3回答</b>
                        </div>","","","","","","","","","","","","","","","","","","",""
"2439","null","sub_response","html-keyboard-response","95","294457","0.0-1.0-7.0-3.0-2.4","18:00:05","3","","","","","","","<div style='text-align: center;'>
                            <span style=""color: green; font-size: 40px""><b>正确！+1 pts</b></span></div>
                            ","","learn","0","0","0","learn","0","0","[0, 1, 2]","4","1","setsize","3S3A","food","1","10","0","1",""
"null","null","fixation","html-keyboard-response","96","294961","0.0-1.0-7.0-3.0-0.5","18:00:05","3","","","","","","","fixation","","","","","","","","","","","","","","","","","","",""
"929","3","pic_response","html-keyboard-response","97","295890","0.0-1.0-7.0-3.0-1.5","18:00:05","3","","","","","","","<div>
            <img class='stim' src=""pictures/food/2.jpg""></div><div class=""button_prompt"">
                        <b>请用数字键1-3回答</b>
                        </div>","","","","","","","","","","","","","","","","","","",""
"929","null","sub_response","html-keyboard-response","98","296895","0.0-1.0-7.0-3.0-2.5","18:00:05","3","","","","","","","<div style='text-align: center;'>
                            <span style=""color: green; font-size: 40px""><b>正确！+1 pts</b></span></div>
                            ","","learn","2","2","2","learn","2","2","[0, 1, 2]","5","1","setsize","3S3A","food","1","11","2","1",""
"null","null","fixation","html-keyboard-response","99","297408","0.0-1.0-7.0-3.0-0.6","18:00:05","3","","","","","","","fixation","","","","","","","","","","","","","","","","","","",""
"1006","3","pic_response","html-keyboard-response","100","298415","0.0-1.0-7.0-3.0-1.6","18:00:05","3","","","","","","","<div>
            <img class='stim' src=""pictures/food/2.jpg""></div><div class=""button_prompt"">
                        <b>请用数字键1-3回答</b>
                        </div>","","","","","","","","","","","","","","","","","","",""
"1006","null","sub_response","html-keyboard-response","101","299420","0.0-1.0-7.0-3.0-2.6","18:00:05","3","","","","","","","<div style='text-align: center;'>
                            <span style=""color: green; font-size: 40px""><b>正确！+1 pts</b></span></div>
                            ","","learn","2","2","2","learn","2","2","[0, 1, 2]","6","2","setsize","3S3A","food","1","12","2","1",""
"null","null","fixation","html-keyboard-response","102","299926","0.0-1.0-7.0-3.0-0.7","18:00:05","3","","","","","","","fixation","","","","","","","","","","","","","","","","","","",""
"1011","1","pic_response","html-keyboard-response","103","300938","0.0-1.0-7.0-3.0-1.7","18:00:05","3","","","","","","","<div>
            <img class='stim' src=""pictures/food/1.jpg""></div><div class=""button_prompt"">
                        <b>请用数字键1-3回答</b>
                        </div>","","","","","","","","","","","","","","","","","","",""
"1011","null","sub_response","html-keyboard-response","104","301945","0.0-1.0-7.0-3.0-2.7","18:00:05","3","","","","","","","<div style='text-align: center;'>
                            <span style=""color: green; font-size: 40px""><b>正确！+1 pts</b></span></div>
                            ","","learn","1","1","1","learn","0","0","[0, 1, 2]","7","2","setsize","3S3A","food","1","13","0","1",""
"null","null","fixation","html-keyboard-response","105","302447","0.0-1.0-7.0-3.0-0.8","18:00:05","3","","","","","","","fixation","","","","","","","","","","","","","","","","","","",""
"796","1","pic_response","html-keyboard-response","106","303244","0.0-1.0-7.0-3.0-1.8","18:00:05","3","","","","","","","<div>
            <img class='stim' src=""pictures/food/0.jpg""></div><div class=""button_prompt"">
                        <b>请用数字键1-3回答</b>
                        </div>","","","","","","","","","","","","","","","","","","",""
"796","null","sub_response","html-keyboard-response","107","304247","0.0-1.0-7.0-3.0-2.8","18:00:05","3","","","","","","","<div style='text-align: center;'>
                            <span style=""color: green; font-size: 40px""><b>正确！+1 pts</b></span></div>
                            ","","learn","0","0","0","learn","0","0","[0, 1, 2]","8","2","setsize","3S3A","food","1","14","0","1",""
"null","null","fixation","html-keyboard-response","108","304749","0.0-1.0-7.0-3.0-0.9","18:00:05","3","","","","","","","fixation","","","","","","","","","","","","","","","","","","",""
"902","1","pic_response","html-keyboard-response","109","305653","0.0-1.0-7.0-3.0-1.9","18:00:05","3","","","","","","","<div>
            <img class='stim' src=""pictures/food/0.jpg""></div><div class=""button_prompt"">
                        <b>请用数字键1-3回答</b>
                        </div>","","","","","","","","","","","","","","","","","","",""
"902","null","sub_response","html-keyboard-response","110","306658","0.0-1.0-7.0-3.0-2.9","18:00:05","3","","","","","","","<div style='text-align: center;'>
                            <span style=""color: green; font-size: 40px""><b>正确！+1 pts</b></span></div>
                            ","","learn","0","0","0","learn","0","0","[0, 1, 2]","9","3","setsize","3S3A","food","1","15","0","1",""
"null","null","fixation","html-keyboard-response","111","307165","0.0-1.0-7.0-3.0-0.10","18:00:05","3","","","","","","","fixation","","","","","","","","","","","","","","","","","","",""
"952","3","pic_response","html-keyboard-response","112","308118","0.0-1.0-7.0-3.0-1.10","18:00:05","3","","","","","","","<div>
            <img class='stim' src=""pictures/food/2.jpg""></div><div class=""button_prompt"">
                        <b>请用数字键1-3回答</b>
                        </div>","","","","","","","","","","","","","","","","","","",""
"952","null","sub_response","html-keyboard-response","113","309121","0.0-1.0-7.0-3.0-2.10","18:00:05","3","","","","","","","<div style='text-align: center;'>
                            <span style=""color: green; font-size: 40px""><b>正确！+1 pts</b></span></div>
                            ","","learn","2","2","2","learn","2","2","[0, 1, 2]","10","3","setsize","3S3A","food","1","16","2","1",""
"null","null","fixation","html-keyboard-response","114","309626","0.0-1.0-7.0-3.0-0.11","18:00:05","3","","","","","","","fixation","","","","","","","","","","","","","","","","","","",""
"1333","3","pic_response","html-keyboard-response","115","310960","0.0-1.0-7.0-3.0-1.11","18:00:05","3","","","","","","","<div>
            <img class='stim' src=""pictures/food/1.jpg""></div><div class=""button_prompt"">
                        <b>请用数字键1-3回答</b>
                        </div>","","","","","","","","","","","","","","","","","","",""
"1333","null","sub_response","html-keyboard-response","116","311967","0.0-1.0-7.0-3.0-2.11","18:00:05","3","","","","","","","<div style='text-align: center;'>
                            <span style=""color: red; font-size: 40px""><b>错误！+0 pts</b></span></div>
                            ","","learn","1","1","1","learn","0","0","[0, 1, 2]","11","3","setsize","3S3A","food","1","0","2","0",""
"null","null","fixation","html-keyboard-response","117","312469","0.0-1.0-7.0-3.0-0.12","18:00:05","3","","","","","","","fixation","","","","","","","","","","","","","","","","","","",""
"977","1","pic_response","html-keyboard-response","118","313446","0.0-1.0-7.0-3.0-1.12","18:00:05","3","","","","","","","<div>
            <img class='stim' src=""pictures/food/0.jpg""></div><div class=""button_prompt"">
                        <b>请用数字键1-3回答</b>
                        </div>","","","","","","","","","","","","","","","","","","",""
"977","null","sub_response","html-keyboard-response","119","314452","0.0-1.0-7.0-3.0-2.12","18:00:05","3","","","","","","","<div style='text-align: center;'>
                            <span style=""color: green; font-size: 40px""><b>正确！+1 pts</b></span></div>
                            ","","learn","0","0","0","learn","0","0","[0, 1, 2]","12","4","setsize","3S3A","food","1","1","0","1",""
"null","null","fixation","html-keyboard-response","120","314953","0.0-1.0-7.0-3.0-0.13","18:00:05","3","","","","","","","fixation","","","","","","","","","","","","","","","","","","",""
"827","3","pic_response","html-keyboard-response","121","315781","0.0-1.0-7.0-3.0-1.13","18:00:05","3","","","","","","","<div>
            <img class='stim' src=""pictures/food/2.jpg""></div><div class=""button_prompt"">
                        <b>请用数字键1-3回答</b>
                        </div>","","","","","","","","","","","","","","","","","","",""
"827","null","sub_response","html-keyboard-response","122","316790","0.0-1.0-7.0-3.0-2.13","18:00:05","3","","","","","","","<div style='text-align: center;'>
                            <span style=""color: green; font-size: 40px""><b>正确！+1 pts</b></span></div>
                            ","","learn","2","2","2","learn","2","2","[0, 1, 2]","13","4","setsize","3S3A","food","1","2","2","1",""
"null","null","fixation","html-keyboard-response","123","317299","0.0-1.0-7.0-3.0-0.14","18:00:05","3","","","","","","","fixation","","","","","","","","","","","","","","","","","","",""
"438","1","pic_response","html-keyboard-response","124","317738","0.0-1.0-7.0-3.0-1.14","18:00:05","3","","","","","","","<div>
            <img class='stim' src=""pictures/food/1.jpg""></div><div class=""button_prompt"">
                        <b>请用数字键1-3回答</b>
                        </div>","","","","","","","","","","","","","","","","","","",""
"438","null","sub_response","html-keyboard-response","125","318754","0.0-1.0-7.0-3.0-2.14","18:00:05","3","","","","","","","<div style='text-align: center;'>
                            <span style=""color: green; font-size: 40px""><b>正确！+1 pts</b></span></div>
                            ","","learn","1","1","1","learn","0","0","[0, 1, 2]","14","4","setsize","3S3A","food","1","3","0","1",""
"null","null","fixation","html-keyboard-response","126","319260","0.0-1.0-7.0-3.0-0.15","18:00:05","3","","","","","","","fixation","","","","","","","","","","","","","","","","","","",""
"1590","3","pic_response","html-keyboard-response","127","320851","0.0-1.0-7.0-3.0-1.15","18:00:05","3","","","","","","","<div>
            <img class='stim' src=""pictures/food/2.jpg""></div><div class=""button_prompt"">
                        <b>请用数字键1-3回答</b>
                        </div>","","","","","","","","","","","","","","","","","","",""
"1590","null","sub_response","html-keyboard-response","128","321855","0.0-1.0-7.0-3.0-2.15","18:00:05","3","","","","","","","<div style='text-align: center;'>
                            <span style=""color: green; font-size: 40px""><b>正确！+1 pts</b></span></div>
                            ","","learn","2","2","2","learn","2","2","[0, 1, 2]","15","5","setsize","3S3A","food","1","4","2","1",""
"null","null","fixation","html-keyboard-response","129","322364","0.0-1.0-7.0-3.0-0.16","18:00:05","3","","","","","","","fixation","","","","","","","","","","","","","","","","","","",""
"677","1","pic_response","html-keyboard-response","130","323041","0.0-1.0-7.0-3.0-1.16","18:00:05","3","","","","","","","<div>
            <img class='stim' src=""pictures/food/1.jpg""></div><div class=""button_prompt"">
                        <b>请用数字键1-3回答</b>
                        </div>","","","","","","","","","","","","","","","","","","",""
"677","null","sub_response","html-keyboard-response","131","324054","0.0-1.0-7.0-3.0-2.16","18:00:05","3","","","","","","","<div style='text-align: center;'>
                            <span style=""color: green; font-size: 40px""><b>正确！+1 pts</b></span></div>
                            ","","learn","1","1","1","learn","0","0","[0, 1, 2]","16","5","setsize","3S3A","food","1","5","0","1",""
"null","null","fixation","html-keyboard-response","132","324560","0.0-1.0-7.0-3.0-0.17","18:00:05","3","","","","","","","fixation","","","","","","","","","","","","","","","","","","",""
"344","1","pic_response","html-keyboard-response","133","324904","0.0-1.0-7.0-3.0-1.17","18:00:05","3","","","","","","","<div>
            <img class='stim' src=""pictures/food/0.jpg""></div><div class=""button_prompt"">
                        <b>请用数字键1-3回答</b>
                        </div>","","","","","","","","","","","","","","","","","","",""
"344","null","sub_response","html-keyboard-response","134","325908","0.0-1.0-7.0-3.0-2.17","18:00:05","3","","","","","","","<div style='text-align: center;'>
                            <span style=""color: green; font-size: 40px""><b>正确！+1 pts</b></span></div>
                            ","","learn","0","0","0","learn","0","0","[0, 1, 2]","17","5","setsize","3S3A","food","1","6","0","1",""
"null","null","fixation","html-keyboard-response","135","326416","0.0-1.0-7.0-3.0-0.18","18:00:05","3","","","","","","","fixation","","","","","","","","","","","","","","","","","","",""
"763","3","pic_response","html-keyboard-response","136","327179","0.0-1.0-7.0-3.0-1.18","18:00:05","3","","","","","","","<div>
            <img class='stim' src=""pictures/food/1.jpg""></div><div class=""button_prompt"">
                        <b>请用数字键1-3回答</b>
                        </div>","","","","","","","","","","","","","","","","","","",""
"763","null","sub_response","html-keyboard-response","137","328187","0.0-1.0-7.0-3.0-2.18","18:00:05","3","","","","","","","<div style='text-align: center;'>
                            <span style=""color: red; font-size: 40px""><b>错误！+0 pts</b></span></div>
                            ","","learn","1","1","1","learn","0","0","[0, 1, 2]","18","6","setsize","3S3A","food","1","0","2","0",""
"null","null","fixation","html-keyboard-response","138","328696","0.0-1.0-7.0-3.0-0.19","18:00:05","3","","","","","","","fixation","","","","","","","","","","","","","","","","","","",""
"679","1","pic_response","html-keyboard-response","139","329376","0.0-1.0-7.0-3.0-1.19","18:00:05","3","","","","","","","<div>
            <img class='stim' src=""pictures/food/0.jpg""></div><div class=""button_prompt"">
                        <b>请用数字键1-3回答</b>
                        </div>","","","","","","","","","","","","","","","","","","",""
"679","null","sub_response","html-keyboard-response","140","330384","0.0-1.0-7.0-3.0-2.19","18:00:05","3","","","","","","","<div style='text-align: center;'>
                            <span style=""color: green; font-size: 40px""><b>正确！+1 pts</b></span></div>
                            ","","learn","0","0","0","learn","0","0","[0, 1, 2]","19","6","setsize","3S3A","food","1","1","0","1",""
"null","null","fixation","html-keyboard-response","141","330885","0.0-1.0-7.0-3.0-0.20","18:00:05","3","","","","","","","fixation","","","","","","","","","","","","","","","","","","",""
"989","3","pic_response","html-keyboard-response","142","331875","0.0-1.0-7.0-3.0-1.20","18:00:05","3","","","","","","","<div>
            <img class='stim' src=""pictures/food/2.jpg""></div><div class=""button_prompt"">
                        <b>请用数字键1-3回答</b>
                        </div>","","","","","","","","","","","","","","","","","","",""
"989","null","sub_response","html-keyboard-response","143","332879","0.0-1.0-7.0-3.0-2.20","18:00:05","3","","","","","","","<div style='text-align: center;'>
                            <span style=""color: green; font-size: 40px""><b>正确！+1 pts</b></span></div>
                            ","","learn","2","2","2","learn","2","2","[0, 1, 2]","20","6","setsize","3S3A","food","1","2","2","1",""
"null","null","fixation","html-keyboard-response","144","333381","0.0-1.0-7.0-3.0-0.21","18:00:05","3","","","","","","","fixation","","","","","","","","","","","","","","","","","","",""
"903","3","pic_response","html-keyboard-response","145","334285","0.0-1.0-7.0-3.0-1.21","18:00:05","3","","","","","","","<div>
            <img class='stim' src=""pictures/food/2.jpg""></div><div class=""button_prompt"">
                        <b>请用数字键1-3回答</b>
                        </div>","","","","","","","","","","","","","","","","","","",""
"903","null","sub_response","html-keyboard-response","146","335294","0.0-1.0-7.0-3.0-2.21","18:00:05","3","","","","","","","<div style='text-align: center;'>
                            <span style=""color: green; font-size: 40px""><b>正确！+1 pts</b></span></div>
                            ","","learn","2","2","2","learn","2","2","[0, 1, 2]","21","7","setsize","3S3A","food","1","3","2","1",""
"null","null","fixation","html-keyboard-response","147","335802","0.0-1.0-7.0-3.0-0.22","18:00:05","3","","","","","","","fixation","","","","","","","","","","","","","","","","","","",""
"798","1","pic_response","html-keyboard-response","148","336601","0.0-1.0-7.0-3.0-1.22","18:00:05","3","","","","","","","<div>
            <img class='stim' src=""pictures/food/0.jpg""></div><div class=""button_prompt"">
                        <b>请用数字键1-3回答</b>
                        </div>","","","","","","","","","","","","","","","","","","",""
"798","null","sub_response","html-keyboard-response","149","337608","0.0-1.0-7.0-3.0-2.22","18:00:05","3","","","","","","","<div style='text-align: center;'>
                            <span style=""color: green; font-size: 40px""><b>正确！+1 pts</b></span></div>
                            ","","learn","0","0","0","learn","0","0","[0, 1, 2]","22","7","setsize","3S3A","food","1","4","0","1",""
"null","null","fixation","html-keyboard-response","150","338111","0.0-1.0-7.0-3.0-0.23","18:00:05","3","","","","","","","fixation","","","","","","","","","","","","","","","","","","",""
"719","1","pic_response","html-keyboard-response","151","338831","0.0-1.0-7.0-3.0-1.23","18:00:05","3","","","","","","","<div>
            <img class='stim' src=""pictures/food/1.jpg""></div><div class=""button_prompt"">
                        <b>请用数字键1-3回答</b>
                        </div>","","","","","","","","","","","","","","","","","","",""
"719","null","sub_response","html-keyboard-response","152","339838","0.0-1.0-7.0-3.0-2.23","18:00:05","3","","","","","","","<div style='text-align: center;'>
                            <span style=""color: green; font-size: 40px""><b>正确！+1 pts</b></span></div>
                            ","","learn","1","1","1","learn","0","0","[0, 1, 2]","23","7","setsize","3S3A","food","1","5","0","1",""
"null","null","fixation","html-keyboard-response","153","340339","0.0-1.0-7.0-3.0-0.24","18:00:05","3","","","","","","","fixation","","","","","","","","","","","","","","","","","","",""
"1388","3","pic_response","html-keyboard-response","154","341729","0.0-1.0-7.0-3.0-1.24","18:00:05","3","","","","","","","<div>
            <img class='stim' src=""pictures/food/2.jpg""></div><div class=""button_prompt"">
                        <b>请用数字键1-3回答</b>
                        </div>","","","","","","","","","","","","","","","","","","",""
"1388","null","sub_response","html-keyboard-response","155","342733","0.0-1.0-7.0-3.0-2.24","18:00:05","3","","","","","","","<div style='text-align: center;'>
                            <span style=""color: green; font-size: 40px""><b>正确！+1 pts</b></span></div>
                            ","","learn","2","2","2","learn","2","2","[0, 1, 2]","24","8","setsize","3S3A","food","1","6","2","1",""
"null","null","fixation","html-keyboard-response","156","343235","0.0-1.0-7.0-3.0-0.25","18:00:05","3","","","","","","","fixation","","","","","","","","","","","","","","","","","","",""
"1540","1","pic_response","html-keyboard-response","157","344776","0.0-1.0-7.0-3.0-1.25","18:00:05","3","","","","","","","<div>
            <img class='stim' src=""pictures/food/1.jpg""></div><div class=""button_prompt"">
                        <b>请用数字键1-3回答</b>
                        </div>","","","","","","","","","","","","","","","","","","",""
"1540","null","sub_response","html-keyboard-response","158","345780","0.0-1.0-7.0-3.0-2.25","18:00:05","3","","","","","","","<div style='text-align: center;'>
                            <span style=""color: green; font-size: 40px""><b>正确！+1 pts</b></span></div>
                            ","","learn","1","1","1","learn","0","0","[0, 1, 2]","25","8","setsize","3S3A","food","1","7","0","1",""
"null","null","fixation","html-keyboard-response","159","346296","0.0-1.0-7.0-3.0-0.26","18:00:05","3","","","","","","","fixation","","","","","","","","","","","","","","","","","","",""
"799","1","pic_response","html-keyboard-response","160","347096","0.0-1.0-7.0-3.0-1.26","18:00:05","3","","","","","","","<div>
            <img class='stim' src=""pictures/food/0.jpg""></div><div class=""button_prompt"">
                        <b>请用数字键1-3回答</b>
                        </div>","","","","","","","","","","","","","","","","","","",""
"799","null","sub_response","html-keyboard-response","161","348103","0.0-1.0-7.0-3.0-2.26","18:00:05","3","","","","","","","<div style='text-align: center;'>
                            <span style=""color: green; font-size: 40px""><b>正确！+1 pts</b></span></div>
                            ","","learn","0","0","0","learn","0","0","[0, 1, 2]","26","8","setsize","3S3A","food","1","8","0","1",""
"null","null","fixation","html-keyboard-response","162","348605","0.0-1.0-7.0-3.0-0.27","18:00:05","3","","","","","","","fixation","","","","","","","","","","","","","","","","","","",""
"1000","1","pic_response","html-keyboard-response","163","349606","0.0-1.0-7.0-3.0-1.27","18:00:05","3","","","","","","","<div>
            <img class='stim' src=""pictures/food/0.jpg""></div><div class=""button_prompt"">
                        <b>请用数字键1-3回答</b>
                        </div>","","","","","","","","","","","","","","","","","","",""
"1000","null","sub_response","html-keyboard-response","164","350610","0.0-1.0-7.0-3.0-2.27","18:00:05","3","","","","","","","<div style='text-align: center;'>
                            <span style=""color: green; font-size: 40px""><b>正确！+1 pts</b></span></div>
                            ","","learn","0","0","0","learn","0","0","[0, 1, 2]","27","9","setsize","3S3A","food","1","9","0","1",""
"null","null","fixation","html-keyboard-response","165","351116","0.0-1.0-7.0-3.0-0.28","18:00:05","3","","","","","","","fixation","","","","","","","","","","","","","","","","","","",""
"1112","1","pic_response","html-keyboard-response","166","352230","0.0-1.0-7.0-3.0-1.28","18:00:05","3","","","","","","","<div>
            <img class='stim' src=""pictures/food/1.jpg""></div><div class=""button_prompt"">
                        <b>请用数字键1-3回答</b>
                        </div>","","","","","","","","","","","","","","","","","","",""
"1112","null","sub_response","html-keyboard-response","167","353231","0.0-1.0-7.0-3.0-2.28","18:00:05","3","","","","","","","<div style='text-align: center;'>
                            <span style=""color: green; font-size: 40px""><b>正确！+1 pts</b></span></div>
                            ","","learn","1","1","1","learn","0","0","[0, 1, 2]","28","9","setsize","3S3A","food","1","10","0","1",""
"null","null","fixation","html-keyboard-response","168","353740","0.0-1.0-7.0-3.0-0.29","18:00:05","3","","","","","","","fixation","","","","","","","","","","","","","","","","","","",""
"1342","3","pic_response","html-keyboard-response","169","355083","0.0-1.0-7.0-3.0-1.29","18:00:05","3","","","","","","","<div>
            <img class='stim' src=""pictures/food/2.jpg""></div><div class=""button_prompt"">
                        <b>请用数字键1-3回答</b>
                        </div>","","","","","","","","","","","","","","","","","","",""
"1342","null","sub_response","html-keyboard-response","170","356087","0.0-1.0-7.0-3.0-2.29","18:00:05","3","","","","","","","<div style='text-align: center;'>
                            <span style=""color: green; font-size: 40px""><b>正确！+1 pts</b></span></div>
                            ","","learn","2","2","2","learn","2","2","[0, 1, 2]","29","9","setsize","3S3A","food","1","11","2","1",""
"null","null","fixation","html-keyboard-response","171","356590","0.0-1.0-7.0-3.0-0.30","18:00:05","3","","","","","","","fixation","","","","","","","","","","","","","","","","","","",""
"813","1","pic_response","html-keyboard-response","172","357404","0.0-1.0-7.0-3.0-1.30","18:00:05","3","","","","","","","<div>
            <img class='stim' src=""pictures/food/0.jpg""></div><div class=""button_prompt"">
                        <b>请用数字键1-3回答</b>
                        </div>","","","","","","","","","","","","","","","","","","",""
"813","null","sub_response","html-keyboard-response","173","358408","0.0-1.0-7.0-3.0-2.30","18:00:05","3","","","","","","","<div style='text-align: center;'>
                            <span style=""color: green; font-size: 40px""><b>正确！+1 pts</b></span></div>
                            ","","learn","0","0","0","learn","0","0","[0, 1, 2]","30","10","setsize","3S3A","food","1","12","0","1",""
"null","null","fixation","html-keyboard-response","174","358915","0.0-1.0-7.0-3.0-0.31","18:00:05","3","","","","","","","fixation","","","","","","","","","","","","","","","","","","",""
"1485","3","pic_response","html-keyboard-response","175","360401","0.0-1.0-7.0-3.0-1.31","18:00:05","3","","","","","","","<div>
            <img class='stim' src=""pictures/food/2.jpg""></div><div class=""button_prompt"">
                        <b>请用数字键1-3回答</b>
                        </div>","","","","","","","","","","","","","","","","","","",""
"1485","null","sub_response","html-keyboard-response","176","361404","0.0-1.0-7.0-3.0-2.31","18:00:05","3","","","","","","","<div style='text-align: center;'>
                            <span style=""color: green; font-size: 40px""><b>正确！+1 pts</b></span></div>
                            ","","learn","2","2","2","learn","2","2","[0, 1, 2]","31","10","setsize","3S3A","food","1","13","2","1",""
"null","null","fixation","html-keyboard-response","177","361918","0.0-1.0-7.0-3.0-0.32","18:00:05","3","","","","","","","fixation","","","","","","","","","","","","","","","","","","",""
"1429","1","pic_response","html-keyboard-response","178","363348","0.0-1.0-7.0-3.0-1.32","18:00:05","3","","","","","","","<div>
            <img class='stim' src=""pictures/food/1.jpg""></div><div class=""button_prompt"">
                        <b>请用数字键1-3回答</b>
                        </div>","","","","","","","","","","","","","","","","","","",""
"1429","null","sub_response","html-keyboard-response","179","364351","0.0-1.0-7.0-3.0-2.32","18:00:05","3","","","","","","","<div style='text-align: center;'>
                            <span style=""color: green; font-size: 40px""><b>正确！+1 pts</b></span></div>
                            ","","learn","1","1","1","learn","0","0","[0, 1, 2]","32","10","setsize","3S3A","food","1","14","0","1",""
"null","null","fixation","html-keyboard-response","180","364854","0.0-1.0-7.0-3.0-0.33","18:00:05","3","","","","","","","fixation","","","","","","","","","","","","","","","","","","",""
"1014","3","pic_response","html-keyboard-response","181","365869","0.0-1.0-7.0-3.0-1.33","18:00:05","3","","","","","","","<div>
            <img class='stim' src=""pictures/food/2.jpg""></div><div class=""button_prompt"">
                        <b>请用数字键1-3回答</b>
                        </div>","","","","","","","","","","","","","","","","","","",""
"1014","null","sub_response","html-keyboard-response","182","366873","0.0-1.0-7.0-3.0-2.33","18:00:05","3","","","","","","","<div style='text-align: center;'>
                            <span style=""color: green; font-size: 40px""><b>正确！+1 pts</b></span></div>
                            ","","learn","2","2","2","learn","2","2","[0, 1, 2]","33","11","setsize","3S3A","food","1","15","2","1",""
"null","null","fixation","html-keyboard-response","183","367391","0.0-1.0-7.0-3.0-0.34","18:00:05","3","","","","","","","fixation","","","","","","","","","","","","","","","","","","",""
"1016","1","pic_response","html-keyboard-response","184","368408","0.0-1.0-7.0-3.0-1.34","18:00:05","3","","","","","","","<div>
            <img class='stim' src=""pictures/food/0.jpg""></div><div class=""button_prompt"">
                        <b>请用数字键1-3回答</b>
                        </div>","","","","","","","","","","","","","","","","","","",""
"1016","null","sub_response","html-keyboard-response","185","369409","0.0-1.0-7.0-3.0-2.34","18:00:05","3","","","","","","","<div style='text-align: center;'>
                            <span style=""color: green; font-size: 40px""><b>正确！+1 pts</b></span></div>
                            ","","learn","0","0","0","learn","0","0","[0, 1, 2]","34","11","setsize","3S3A","food","1","16","0","1",""
"null","null","fixation","html-keyboard-response","186","369913","0.0-1.0-7.0-3.0-0.35","18:00:05","3","","","","","","","fixation","","","","","","","","","","","","","","","","","","",""
"808","1","pic_response","html-keyboard-response","187","370723","0.0-1.0-7.0-3.0-1.35","18:00:05","3","","","","","","","<div>
            <img class='stim' src=""pictures/food/1.jpg""></div><div class=""button_prompt"">
                        <b>请用数字键1-3回答</b>
                        </div>","","","","","","","","","","","","","","","","","","",""
"808","null","sub_response","html-keyboard-response","188","371725","0.0-1.0-7.0-3.0-2.35","18:00:05","3","","","","","","","<div style='text-align: center;'>
                            <span style=""color: green; font-size: 40px""><b>正确！+1 pts</b></span></div>
                            ","","learn","1","1","1","learn","0","0","[0, 1, 2]","35","11","setsize","3S3A","food","1","17","0","1",""
"null","null","fixation","html-keyboard-response","189","372234","0.0-1.0-7.0-3.0-0.36","18:00:05","3","","","","","","","fixation","","","","","","","","","","","","","","","","","","",""
"1346","1","pic_response","html-keyboard-response","190","373580","0.0-1.0-7.0-3.0-1.36","18:00:05","3","","","","","","","<div>
            <img class='stim' src=""pictures/food/0.jpg""></div><div class=""button_prompt"">
                        <b>请用数字键1-3回答</b>
                        </div>","","","","","","","","","","","","","","","","","","",""
"1346","null","sub_response","html-keyboard-response","191","374588","0.0-1.0-7.0-3.0-2.36","18:00:05","3","","","","","","","<div style='text-align: center;'>
                            <span style=""color: green; font-size: 40px""><b>正确！+1 pts</b></span></div>
                            ","","learn","0","0","0","learn","0","0","[0, 1, 2]","36","12","setsize","3S3A","food","1","18","0","1",""
"null","null","fixation","html-keyboard-response","192","375089","0.0-1.0-7.0-3.0-0.37","18:00:05","3","","","","","","","fixation","","","","","","","","","","","","","","","","","","",""
"930","1","pic_response","html-keyboard-response","193","376020","0.0-1.0-7.0-3.0-1.37","18:00:05","3","","","","","","","<div>
            <img class='stim' src=""pictures/food/1.jpg""></div><div class=""button_prompt"">
                        <b>请用数字键1-3回答</b>
                        </div>","","","","","","","","","","","","","","","","","","",""
"930","null","sub_response","html-keyboard-response","194","377023","0.0-1.0-7.0-3.0-2.37","18:00:05","3","","","","","","","<div style='text-align: center;'>
                            <span style=""color: green; font-size: 40px""><b>正确！+1 pts</b></span></div>
                            ","","learn","1","1","1","learn","0","0","[0, 1, 2]","37","12","setsize","3S3A","food","1","19","0","1",""
"null","null","fixation","html-keyboard-response","195","377529","0.0-1.0-7.0-3.0-0.38","18:00:05","3","","","","","","","fixation","","","","","","","","","","","","","","","","","","",""
"871","3","pic_response","html-keyboard-response","196","378400","0.0-1.0-7.0-3.0-1.38","18:00:05","3","","","","","","","<div>
            <img class='stim' src=""pictures/food/2.jpg""></div><div class=""button_prompt"">
                        <b>请用数字键1-3回答</b>
                        </div>","","","","","","","","","","","","","","","","","","",""
"871","null","sub_response","html-keyboard-response","197","379405","0.0-1.0-7.0-3.0-2.38","18:00:05","3","","","","","","","<div style='text-align: center;'>
                            <span style=""color: green; font-size: 40px""><b>正确！+1 pts</b></span></div>
                            ","","learn","2","2","2","learn","2","2","[0, 1, 2]","38","12","setsize","3S3A","food","1","20","2","1",""
"null","null","fixation","html-keyboard-response","198","379911","0.0-1.0-7.0-3.0-0.39","18:00:05","3","","","","","","","fixation","","","","","","","","","","","","","","","","","","",""
"1683","3","pic_response","html-keyboard-response","199","381595","0.0-1.0-7.0-3.0-1.39","18:00:05","3","","","","","","","<div>
            <img class='stim' src=""pictures/food/2.jpg""></div><div class=""button_prompt"">
                        <b>请用数字键1-3回答</b>
                        </div>","","","","","","","","","","","","","","","","","","",""
"1683","null","sub_response","html-keyboard-response","200","382597","0.0-1.0-7.0-3.0-2.39","18:00:05","3","","","","","","","<div style='text-align: center;'>
                            <span style=""color: green; font-size: 40px""><b>正确！+1 pts</b></span></div>
                            ","","learn","2","2","2","learn","2","2","[0, 1, 2]","39","13","setsize","3S3A","food","1","21","2","1",""
"null","null","fixation","html-keyboard-response","201","383100","0.0-1.0-7.0-3.0-0.40","18:00:05","3","","","","","","","fixation","","","","","","","","","","","","","","","","","","",""
"1084","1","pic_response","html-keyboard-response","202","384185","0.0-1.0-7.0-3.0-1.40","18:00:05","3","","","","","","","<div>
            <img class='stim' src=""pictures/food/1.jpg""></div><div class=""button_prompt"">
                        <b>请用数字键1-3回答</b>
                        </div>","","","","","","","","","","","","","","","","","","",""
"1084","null","sub_response","html-keyboard-response","203","385189","0.0-1.0-7.0-3.0-2.40","18:00:05","3","","","","","","","<div style='text-align: center;'>
                            <span style=""color: green; font-size: 40px""><b>正确！+1 pts</b></span></div>
                            ","","learn","1","1","1","learn","0","0","[0, 1, 2]","40","13","setsize","3S3A","food","1","22","0","1",""
"null","null","fixation","html-keyboard-response","204","385691","0.0-1.0-7.0-3.0-0.41","18:00:05","3","","","","","","","fixation","","","","","","","","","","","","","","","","","","",""
"774","1","pic_response","html-keyboard-response","205","386466","0.0-1.0-7.0-3.0-1.41","18:00:05","3","","","","","","","<div>
            <img class='stim' src=""pictures/food/0.jpg""></div><div class=""button_prompt"">
                        <b>请用数字键1-3回答</b>
                        </div>","","","","","","","","","","","","","","","","","","",""
"774","null","sub_response","html-keyboard-response","206","387473","0.0-1.0-7.0-3.0-2.41","18:00:05","3","","","","","","","<div style='text-align: center;'>
                            <span style=""color: green; font-size: 40px""><b>正确！+1 pts</b></span></div>
                            ","","learn","0","0","0","learn","0","0","[0, 1, 2]","41","13","setsize","3S3A","food","1","23","0","1",""
"null","null","fixation","html-keyboard-response","207","387979","0.0-1.0-7.0-3.0-0.42","18:00:05","3","","","","","","","fixation","","","","","","","","","","","","","","","","","","",""
"1254","3","pic_response","html-keyboard-response","208","389235","0.0-1.0-7.0-3.0-1.42","18:00:05","3","","","","","","","<div>
            <img class='stim' src=""pictures/food/2.jpg""></div><div class=""button_prompt"">
                        <b>请用数字键1-3回答</b>
                        </div>","","","","","","","","","","","","","","","","","","",""
"1254","null","sub_response","html-keyboard-response","209","390240","0.0-1.0-7.0-3.0-2.42","18:00:05","3","","","","","","","<div style='text-align: center;'>
                            <span style=""color: green; font-size: 40px""><b>正确！+1 pts</b></span></div>
                            ","","learn","2","2","2","learn","2","2","[0, 1, 2]","42","14","setsize","3S3A","food","1","24","2","1",""
"null","null","fixation","html-keyboard-response","210","390745","0.0-1.0-7.0-3.0-0.43","18:00:05","3","","","","","","","fixation","","","","","","","","","","","","","","","","","","",""
"1295","1","pic_response","html-keyboard-response","211","392042","0.0-1.0-7.0-3.0-1.43","18:00:05","3","","","","","","","<div>
            <img class='stim' src=""pictures/food/1.jpg""></div><div class=""button_prompt"">
                        <b>请用数字键1-3回答</b>
                        </div>","","","","","","","","","","","","","","","","","","",""
"1295","null","sub_response","html-keyboard-response","212","393056","0.0-1.0-7.0-3.0-2.43","18:00:05","3","","","","","","","<div style='text-align: center;'>
                            <span style=""color: green; font-size: 40px""><b>正确！+1 pts</b></span></div>
                            ","","learn","1","1","1","learn","0","0","[0, 1, 2]","43","14","setsize","3S3A","food","1","25","0","1",""
"null","null","fixation","html-keyboard-response","213","393560","0.0-1.0-7.0-3.0-0.44","18:00:05","3","","","","","","","fixation","","","","","","","","","","","","","","","","","","",""
"703","1","pic_response","html-keyboard-response","214","394263","0.0-1.0-7.0-3.0-1.44","18:00:05","3","","","","","","","<div>
            <img class='stim' src=""pictures/food/0.jpg""></div><div class=""button_prompt"">
                        <b>请用数字键1-3回答</b>
                        </div>","","","","","","","","","","","","","","","","","","",""
"703","null","sub_response","html-keyboard-response","215","395267","0.0-1.0-7.0-3.0-2.44","18:00:05","3","","","","","","","<div style='text-align: center;'>
                            <span style=""color: green; font-size: 40px""><b>正确！+1 pts</b></span></div>
                            ","","learn","0","0","0","learn","0","0","[0, 1, 2]","44","14","setsize","3S3A","food","1","26","0","1",""
"null","null","fixation","html-keyboard-response","216","395776","0.0-1.0-7.0-3.0-0.45","18:00:05","3","","","","","","","fixation","","","","","","","","","","","","","","","","","","",""
"845","1","pic_response","html-keyboard-response","217","396621","0.0-1.0-7.0-3.0-1.45","18:00:05","3","","","","","","","<div>
            <img class='stim' src=""pictures/food/1.jpg""></div><div class=""button_prompt"">
                        <b>请用数字键1-3回答</b>
                        </div>","","","","","","","","","","","","","","","","","","",""
"845","null","sub_response","html-keyboard-response","218","397625","0.0-1.0-7.0-3.0-2.45","18:00:05","3","","","","","","","<div style='text-align: center;'>
                            <span style=""color: green; font-size: 40px""><b>正确！+1 pts</b></span></div>
                            ","","learn","1","1","1","learn","0","0","[0, 1, 2]","45","15","setsize","3S3A","food","1","27","0","1",""
"2964"," ","","html-keyboard-response","219","400590","0.0-1.0-8.0","18:00:05","3","","","","","","","<div style=""font-size: 25px""><p>距下一个实验开始还有</p><div style=""font-size: 50px; color: blue""><p><span id=""clock"">1:00</span></div></p><p>按""空格""跳过休息</p></div>","","","","","","","","","","","","","","","","","","",""
"","","","preload","220","400851","0.0-1.0-9.0-0.0","18:00:05","3","true","false","[]","[]","[]","","","","","","","","","","","","","","","","","","","","",""
"2627"," ","","html-keyboard-response","221","403478","0.0-1.0-9.0-1.0","18:00:05","3","","","","","","","<div style='font-size: 32px; text-align: center;'
                    <p>请学习图片和数字之间的对应关系</p>
                    <p>我们将<span style='color: blue'><b> 告诉 </b></span>您选择的对错。请根据反馈学习。</p>
                    <p>请按""空格""继续实验。</p></div>","","","","","","","","","","","","","","","","","","",""
"1573"," ","inst","html-keyboard-response","222","405052","0.0-1.0-9.0-2.0","18:00:05","3","","","","","","","<img class='instruct_stim' src=""instruction/sports3.PNG""></div>","","","","","","","","","","","","","","","","","","",""
"null","null","fixation","html-keyboard-response","223","405557","0.0-1.0-9.0-3.0-0.0","18:00:05","3","","","","","","","fixation","","","","","","","","","","","","","","","","","","",""
"1128","1","pic_response","html-keyboard-response","224","406685","0.0-1.0-9.0-3.0-1.0","18:00:05","3","","","","","","","<div>
            <img class='stim' src=""pictures/sports/1.jpg""></div><div class=""button_prompt"">
                    <b>请用数字键0-9回答</b>
                    </div>","","","","","","","","","","","","","","","","","","",""
"1128","null","sub_response","html-keyboard-response","225","407692","0.0-1.0-9.0-3.0-2.0","18:00:05","3","","","","","","","<div style='text-align: center;'>
                            <span style=""color: red; font-size: 40px""><b>错误！+0 pts</b></span></div>
                            ","","learn","1","1","1","learn","6","6","[0, 1, 2, 3, 4, 5, 6, 7, 8, 9]","0","0","setsize","3S10A","sports","2","0","0","0",""
"null","null","fixation","html-keyboard-response","226","408201","0.0-1.0-9.0-3.0-0.1","18:00:05","3","","","","","","","fixation","","","","","","","","","","","","","","","","","","",""
"894","1","pic_response","html-keyboard-response","227","409096","0.0-1.0-9.0-3.0-1.1","18:00:05","3","","","","","","","<div>
            <img class='stim' src=""pictures/sports/0.jpg""></div><div class=""button_prompt"">
                    <b>请用数字键0-9回答</b>
                    </div>","","","","","","","","","","","","","","","","","","",""
"894","null","sub_response","html-keyboard-response","228","410103","0.0-1.0-9.0-3.0-2.1","18:00:05","3","","","","","","","<div style='text-align: center;'>
                            <span style=""color: red; font-size: 40px""><b>错误！+0 pts</b></span></div>
                            ","","learn","0","0","0","learn","2","2","[0, 1, 2, 3, 4, 5, 6, 7, 8, 9]","1","0","setsize","3S10A","sports","2","0","0","0",""
"null","null","fixation","html-keyboard-response","229","410608","0.0-1.0-9.0-3.0-0.2","18:00:05","3","","","","","","","fixation","","","","","","","","","","","","","","","","","","",""
"2759","3","pic_response","html-keyboard-response","230","413369","0.0-1.0-9.0-3.0-1.2","18:00:05","3","","","","","","","<div>
            <img class='stim' src=""pictures/sports/2.jpg""></div><div class=""button_prompt"">
                    <b>请用数字键0-9回答</b>
                    </div>","","","","","","","","","","","","","","","","","","",""
"2759","null","sub_response","html-keyboard-response","231","414375","0.0-1.0-9.0-3.0-2.2","18:00:05","3","","","","","","","<div style='text-align: center;'>
                            <span style=""color: red; font-size: 40px""><b>错误！+0 pts</b></span></div>
                            ","","learn","2","2","2","learn","9","9","[0, 1, 2, 3, 4, 5, 6, 7, 8, 9]","2","0","setsize","3S10A","sports","2","0","2","0",""
"null","null","fixation","html-keyboard-response","232","414882","0.0-1.0-9.0-3.0-0.3","18:00:05","3","","","","","","","fixation","","","","","","","","","","","","","","","","","","",""
"884","2","pic_response","html-keyboard-response","233","415767","0.0-1.0-9.0-3.0-1.3","18:00:05","3","","","","","","","<div>
            <img class='stim' src=""pictures/sports/0.jpg""></div><div class=""button_prompt"">
                    <b>请用数字键0-9回答</b>
                    </div>","","","","","","","","","","","","","","","","","","",""
"884","null","sub_response","html-keyboard-response","234","416773","0.0-1.0-9.0-3.0-2.3","18:00:05","3","","","","","","","<div style='text-align: center;'>
                            <span style=""color: red; font-size: 40px""><b>错误！+0 pts</b></span></div>
                            ","","learn","0","0","0","learn","2","2","[0, 1, 2, 3, 4, 5, 6, 7, 8, 9]","3","1","setsize","3S10A","sports","2","0","1","0",""
"null","null","fixation","html-keyboard-response","235","417279","0.0-1.0-9.0-3.0-0.4","18:00:05","3","","","","","","","fixation","","","","","","","","","","","","","","","","","","",""
"946","3","pic_response","html-keyboard-response","236","418225","0.0-1.0-9.0-3.0-1.4","18:00:05","3","","","","","","","<div>
            <img class='stim' src=""pictures/sports/2.jpg""></div><div class=""button_prompt"">
                    <b>请用数字键0-9回答</b>
                    </div>","","","","","","","","","","","","","","","","","","",""
"946","null","sub_response","html-keyboard-response","237","419234","0.0-1.0-9.0-3.0-2.4","18:00:05","3","","","","","","","<div style='text-align: center;'>
                            <span style=""color: red; font-size: 40px""><b>错误！+0 pts</b></span></div>
                            ","","learn","2","2","2","learn","9","9","[0, 1, 2, 3, 4, 5, 6, 7, 8, 9]","4","1","setsize","3S10A","sports","2","0","2","0",""
"null","null","fixation","html-keyboard-response","238","419738","0.0-1.0-9.0-3.0-0.5","18:00:05","3","","","","","","","fixation","","","","","","","","","","","","","","","","","","",""
"1115","2","pic_response","html-keyboard-response","239","420854","0.0-1.0-9.0-3.0-1.5","18:00:05","3","","","","","","","<div>
            <img class='stim' src=""pictures/sports/1.jpg""></div><div class=""button_prompt"">
                    <b>请用数字键0-9回答</b>
                    </div>","","","","","","","","","","","","","","","","","","",""
"1115","null","sub_response","html-keyboard-response","240","421856","0.0-1.0-9.0-3.0-2.5","18:00:05","3","","","","","","","<div style='text-align: center;'>
                            <span style=""color: red; font-size: 40px""><b>错误！+0 pts</b></span></div>
                            ","","learn","1","1","1","learn","6","6","[0, 1, 2, 3, 4, 5, 6, 7, 8, 9]","5","1","setsize","3S10A","sports","2","0","1","0",""
"null","null","fixation","html-keyboard-response","241","422365","0.0-1.0-9.0-3.0-0.6","18:00:05","3","","","","","","","fixation","","","","","","","","","","","","","","","","","","",""
"694","3","pic_response","html-keyboard-response","242","423060","0.0-1.0-9.0-3.0-1.6","18:00:05","3","","","","","","","<div>
            <img class='stim' src=""pictures/sports/0.jpg""></div><div class=""button_prompt"">
                    <b>请用数字键0-9回答</b>
                    </div>","","","","","","","","","","","","","","","","","","",""
"694","null","sub_response","html-keyboard-response","243","424065","0.0-1.0-9.0-3.0-2.6","18:00:05","3","","","","","","","<div style='text-align: center;'>
                            <span style=""color: green; font-size: 40px""><b>正确！+1 pts</b></span></div>
                            ","","learn","0","0","0","learn","2","2","[0, 1, 2, 3, 4, 5, 6, 7, 8, 9]","6","2","setsize","3S10A","sports","2","1","2","1",""
"null","null","fixation","html-keyboard-response","244","424571","0.0-1.0-9.0-3.0-0.7","18:00:05","3","","","","","","","fixation","","","","","","","","","","","","","","","","","","",""
"524","2","pic_response","html-keyboard-response","245","425096","0.0-1.0-9.0-3.0-1.7","18:00:05","3","","","","","","","<div>
            <img class='stim' src=""pictures/sports/1.jpg""></div><div class=""button_prompt"">
                    <b>请用数字键0-9回答</b>
                    </div>","","","","","","","","","","","","","","","","","","",""
"524","null","sub_response","html-keyboard-response","246","426106","0.0-1.0-9.0-3.0-2.7","18:00:05","3","","","","","","","<div style='text-align: center;'>
                            <span style=""color: red; font-size: 40px""><b>错误！+0 pts</b></span></div>
                            ","","learn","1","1","1","learn","6","6","[0, 1, 2, 3, 4, 5, 6, 7, 8, 9]","7","2","setsize","3S10A","sports","2","0","1","0",""
"null","null","fixation","html-keyboard-response","247","426611","0.0-1.0-9.0-3.0-0.8","18:00:05","3","","","","","","","fixation","","","","","","","","","","","","","","","","","","",""
"1127","3","pic_response","html-keyboard-response","248","427740","0.0-1.0-9.0-3.0-1.8","18:00:05","3","","","","","","","<div>
            <img class='stim' src=""pictures/sports/2.jpg""></div><div class=""button_prompt"">
                    <b>请用数字键0-9回答</b>
                    </div>","","","","","","","","","","","","","","","","","","",""
"1127","null","sub_response","html-keyboard-response","249","428746","0.0-1.0-9.0-3.0-2.8","18:00:05","3","","","","","","","<div style='text-align: center;'>
                            <span style=""color: red; font-size: 40px""><b>错误！+0 pts</b></span></div>
                            ","","learn","2","2","2","learn","9","9","[0, 1, 2, 3, 4, 5, 6, 7, 8, 9]","8","2","setsize","3S10A","sports","2","0","2","0",""
"null","null","fixation","html-keyboard-response","250","429248","0.0-1.0-9.0-3.0-0.9","18:00:05","3","","","","","","","fixation","","","","","","","","","","","","","","","","","","",""
"662","2","pic_response","html-keyboard-response","251","429910","0.0-1.0-9.0-3.0-1.9","18:00:05","3","","","","","","","<div>
            <img class='stim' src=""pictures/sports/1.jpg""></div><div class=""button_prompt"">
                    <b>请用数字键0-9回答</b>
                    </div>","","","","","","","","","","","","","","","","","","",""
"662","null","sub_response","html-keyboard-response","252","430921","0.0-1.0-9.0-3.0-2.9","18:00:05","3","","","","","","","<div style='text-align: center;'>
                            <span style=""color: red; font-size: 40px""><b>错误！+0 pts</b></span></div>
                            ","","learn","1","1","1","learn","6","6","[0, 1, 2, 3, 4, 5, 6, 7, 8, 9]","9","3","setsize","3S10A","sports","2","0","1","0",""
"null","null","fixation","html-keyboard-response","253","431432","0.0-1.0-9.0-3.0-0.10","18:00:05","3","","","","","","","fixation","","","","","","","","","","","","","","","","","","",""
"1018","3","pic_response","html-keyboard-response","254","432451","0.0-1.0-9.0-3.0-1.10","18:00:05","3","","","","","","","<div>
            <img class='stim' src=""pictures/sports/0.jpg""></div><div class=""button_prompt"">
                    <b>请用数字键0-9回答</b>
                    </div>","","","","","","","","","","","","","","","","","","",""
"1018","null","sub_response","html-keyboard-response","255","433455","0.0-1.0-9.0-3.0-2.10","18:00:05","3","","","","","","","<div style='text-align: center;'>
                            <span style=""color: green; font-size: 40px""><b>正确！+1 pts</b></span></div>
                            ","","learn","0","0","0","learn","2","2","[0, 1, 2, 3, 4, 5, 6, 7, 8, 9]","10","3","setsize","3S10A","sports","2","1","2","1",""
"null","null","fixation","html-keyboard-response","256","433957","0.0-1.0-9.0-3.0-0.11","18:00:05","3","","","","","","","fixation","","","","","","","","","","","","","","","","","","",""
"898","3","pic_response","html-keyboard-response","257","434857","0.0-1.0-9.0-3.0-1.11","18:00:05","3","","","","","","","<div>
            <img class='stim' src=""pictures/sports/2.jpg""></div><div class=""button_prompt"">
                    <b>请用数字键0-9回答</b>
                    </div>","","","","","","","","","","","","","","","","","","",""
"898","null","sub_response","html-keyboard-response","258","435862","0.0-1.0-9.0-3.0-2.11","18:00:05","3","","","","","","","<div style='text-align: center;'>
                            <span style=""color: red; font-size: 40px""><b>错误！+0 pts</b></span></div>
                            ","","learn","2","2","2","learn","9","9","[0, 1, 2, 3, 4, 5, 6, 7, 8, 9]","11","3","setsize","3S10A","sports","2","0","2","0",""
"null","null","fixation","html-keyboard-response","259","436370","0.0-1.0-9.0-3.0-0.12","18:00:05","3","","","","","","","fixation","","","","","","","","","","","","","","","","","","",""
"391","3","pic_response","html-keyboard-response","260","436762","0.0-1.0-9.0-3.0-1.12","18:00:05","3","","","","","","","<div>
            <img class='stim' src=""pictures/sports/0.jpg""></div><div class=""button_prompt"">
                    <b>请用数字键0-9回答</b>
                    </div>","","","","","","","","","","","","","","","","","","",""
"391","null","sub_response","html-keyboard-response","261","437769","0.0-1.0-9.0-3.0-2.12","18:00:05","3","","","","","","","<div style='text-align: center;'>
                            <span style=""color: green; font-size: 40px""><b>正确！+1 pts</b></span></div>
                            ","","learn","0","0","0","learn","2","2","[0, 1, 2, 3, 4, 5, 6, 7, 8, 9]","12","4","setsize","3S10A","sports","2","1","2","1",""
"null","null","fixation","html-keyboard-response","262","438274","0.0-1.0-9.0-3.0-0.13","18:00:05","3","","","","","","","fixation","","","","","","","","","","","","","","","","","","",""
"1021","3","pic_response","html-keyboard-response","263","439296","0.0-1.0-9.0-3.0-1.13","18:00:05","3","","","","","","","<div>
            <img class='stim' src=""pictures/sports/2.jpg""></div><div class=""button_prompt"">
                    <b>请用数字键0-9回答</b>
                    </div>","","","","","","","","","","","","","","","","","","",""
"1021","null","sub_response","html-keyboard-response","264","440300","0.0-1.0-9.0-3.0-2.13","18:00:05","3","","","","","","","<div style='text-align: center;'>
                            <span style=""color: red; font-size: 40px""><b>错误！+0 pts</b></span></div>
                            ","","learn","2","2","2","learn","9","9","[0, 1, 2, 3, 4, 5, 6, 7, 8, 9]","13","4","setsize","3S10A","sports","2","0","2","0",""
"null","null","fixation","html-keyboard-response","265","440809","0.0-1.0-9.0-3.0-0.14","18:00:05","3","","","","","","","fixation","","","","","","","","","","","","","","","","","","",""
"658","3","pic_response","html-keyboard-response","266","441468","0.0-1.0-9.0-3.0-1.14","18:00:05","3","","","","","","","<div>
            <img class='stim' src=""pictures/sports/1.jpg""></div><div class=""button_prompt"">
                    <b>请用数字键0-9回答</b>
                    </div>","","","","","","","","","","","","","","","","","","",""
"658","null","sub_response","html-keyboard-response","267","442474","0.0-1.0-9.0-3.0-2.14","18:00:05","3","","","","","","","<div style='text-align: center;'>
                            <span style=""color: red; font-size: 40px""><b>错误！+0 pts</b></span></div>
                            ","","learn","1","1","1","learn","6","6","[0, 1, 2, 3, 4, 5, 6, 7, 8, 9]","14","4","setsize","3S10A","sports","2","0","2","0",""
"null","null","fixation","html-keyboard-response","268","442975","0.0-1.0-9.0-3.0-0.15","18:00:05","3","","","","","","","fixation","","","","","","","","","","","","","","","","","","",""
"1221","2","pic_response","html-keyboard-response","269","444197","0.0-1.0-9.0-3.0-1.15","18:00:05","3","","","","","","","<div>
            <img class='stim' src=""pictures/sports/1.jpg""></div><div class=""button_prompt"">
                    <b>请用数字键0-9回答</b>
                    </div>","","","","","","","","","","","","","","","","","","",""
"1221","null","sub_response","html-keyboard-response","270","445206","0.0-1.0-9.0-3.0-2.15","18:00:05","3","","","","","","","<div style='text-align: center;'>
                            <span style=""color: red; font-size: 40px""><b>错误！+0 pts</b></span></div>
                            ","","learn","1","1","1","learn","6","6","[0, 1, 2, 3, 4, 5, 6, 7, 8, 9]","15","5","setsize","3S10A","sports","2","0","1","0",""
"null","null","fixation","html-keyboard-response","271","445715","0.0-1.0-9.0-3.0-0.16","18:00:05","3","","","","","","","fixation","","","","","","","","","","","","","","","","","","",""
"616","3","pic_response","html-keyboard-response","272","446332","0.0-1.0-9.0-3.0-1.16","18:00:05","3","","","","","","","<div>
            <img class='stim' src=""pictures/sports/0.jpg""></div><div class=""button_prompt"">
                    <b>请用数字键0-9回答</b>
                    </div>","","","","","","","","","","","","","","","","","","",""
"616","null","sub_response","html-keyboard-response","273","447340","0.0-1.0-9.0-3.0-2.16","18:00:05","3","","","","","","","<div style='text-align: center;'>
                            <span style=""color: green; font-size: 40px""><b>正确！+1 pts</b></span></div>
                            ","","learn","0","0","0","learn","2","2","[0, 1, 2, 3, 4, 5, 6, 7, 8, 9]","16","5","setsize","3S10A","sports","2","1","2","1",""
"null","null","fixation","html-keyboard-response","274","447843","0.0-1.0-9.0-3.0-0.17","18:00:05","3","","","","","","","fixation","","","","","","","","","","","","","","","","","","",""
"1804","1","pic_response","html-keyboard-response","275","449648","0.0-1.0-9.0-3.0-1.17","18:00:05","3","","","","","","","<div>
            <img class='stim' src=""pictures/sports/2.jpg""></div><div class=""button_prompt"">
                    <b>请用数字键0-9回答</b>
                    </div>","","","","","","","","","","","","","","","","","","",""
"1804","null","sub_response","html-keyboard-response","276","450649","0.0-1.0-9.0-3.0-2.17","18:00:05","3","","","","","","","<div style='text-align: center;'>
                            <span style=""color: red; font-size: 40px""><b>错误！+0 pts</b></span></div>
                            ","","learn","2","2","2","learn","9","9","[0, 1, 2, 3, 4, 5, 6, 7, 8, 9]","17","5","setsize","3S10A","sports","2","0","0","0",""
"null","null","fixation","html-keyboard-response","277","451158","0.0-1.0-9.0-3.0-0.18","18:00:05","3","","","","","","","fixation","","","","","","","","","","","","","","","","","","",""
"799","3","pic_response","html-keyboard-response","278","451958","0.0-1.0-9.0-3.0-1.18","18:00:05","3","","","","","","","<div>
            <img class='stim' src=""pictures/sports/0.jpg""></div><div class=""button_prompt"">
                    <b>请用数字键0-9回答</b>
                    </div>","","","","","","","","","","","","","","","","","","",""
"799","null","sub_response","html-keyboard-response","279","452960","0.0-1.0-9.0-3.0-2.18","18:00:05","3","","","","","","","<div style='text-align: center;'>
                            <span style=""color: green; font-size: 40px""><b>正确！+1 pts</b></span></div>
                            ","","learn","0","0","0","learn","2","2","[0, 1, 2, 3, 4, 5, 6, 7, 8, 9]","18","6","setsize","3S10A","sports","2","1","2","1",""
"null","null","fixation","html-keyboard-response","280","453464","0.0-1.0-9.0-3.0-0.19","18:00:05","3","","","","","","","fixation","","","","","","","","","","","","","","","","","","",""
"792","2","pic_response","html-keyboard-response","281","454257","0.0-1.0-9.0-3.0-1.19","18:00:05","3","","","","","","","<div>
            <img class='stim' src=""pictures/sports/2.jpg""></div><div class=""button_prompt"">
                    <b>请用数字键0-9回答</b>
                    </div>","","","","","","","","","","","","","","","","","","",""
"792","null","sub_response","html-keyboard-response","282","455268","0.0-1.0-9.0-3.0-2.19","18:00:05","3","","","","","","","<div style='text-align: center;'>
                            <span style=""color: red; font-size: 40px""><b>错误！+0 pts</b></span></div>
                            ","","learn","2","2","2","learn","9","9","[0, 1, 2, 3, 4, 5, 6, 7, 8, 9]","19","6","setsize","3S10A","sports","2","0","1","0",""
"null","null","fixation","html-keyboard-response","283","455775","0.0-1.0-9.0-3.0-0.20","18:00:05","3","","","","","","","fixation","","","","","","","","","","","","","","","","","","",""
"743","3","pic_response","html-keyboard-response","284","456518","0.0-1.0-9.0-3.0-1.20","18:00:05","3","","","","","","","<div>
            <img class='stim' src=""pictures/sports/1.jpg""></div><div class=""button_prompt"">
                    <b>请用数字键0-9回答</b>
                    </div>","","","","","","","","","","","","","","","","","","",""
"743","null","sub_response","html-keyboard-response","285","457530","0.0-1.0-9.0-3.0-2.20","18:00:05","3","","","","","","","<div style='text-align: center;'>
                            <span style=""color: red; font-size: 40px""><b>错误！+0 pts</b></span></div>
                            ","","learn","1","1","1","learn","6","6","[0, 1, 2, 3, 4, 5, 6, 7, 8, 9]","20","6","setsize","3S10A","sports","2","0","2","0",""
"null","null","fixation","html-keyboard-response","286","458038","0.0-1.0-9.0-3.0-0.21","18:00:05","3","","","","","","","fixation","","","","","","","","","","","","","","","","","","",""
"715","1","pic_response","html-keyboard-response","287","458754","0.0-1.0-9.0-3.0-1.21","18:00:05","3","","","","","","","<div>
            <img class='stim' src=""pictures/sports/2.jpg""></div><div class=""button_prompt"">
                    <b>请用数字键0-9回答</b>
                    </div>","","","","","","","","","","","","","","","","","","",""
"715","null","sub_response","html-keyboard-response","288","459758","0.0-1.0-9.0-3.0-2.21","18:00:05","3","","","","","","","<div style='text-align: center;'>
                            <span style=""color: red; font-size: 40px""><b>错误！+0 pts</b></span></div>
                            ","","learn","2","2","2","learn","9","9","[0, 1, 2, 3, 4, 5, 6, 7, 8, 9]","21","7","setsize","3S10A","sports","2","0","0","0",""
"null","null","fixation","html-keyboard-response","289","460265","0.0-1.0-9.0-3.0-0.22","18:00:05","3","","","","","","","fixation","","","","","","","","","","","","","","","","","","",""
"624","3","pic_response","html-keyboard-response","290","460890","0.0-1.0-9.0-3.0-1.22","18:00:05","3","","","","","","","<div>
            <img class='stim' src=""pictures/sports/0.jpg""></div><div class=""button_prompt"">
                    <b>请用数字键0-9回答</b>
                    </div>","","","","","","","","","","","","","","","","","","",""
"624","null","sub_response","html-keyboard-response","291","461895","0.0-1.0-9.0-3.0-2.22","18:00:05","3","","","","","","","<div style='text-align: center;'>
                            <span style=""color: green; font-size: 40px""><b>正确！+1 pts</b></span></div>
                            ","","learn","0","0","0","learn","2","2","[0, 1, 2, 3, 4, 5, 6, 7, 8, 9]","22","7","setsize","3S10A","sports","2","1","2","1",""
"null","null","fixation","html-keyboard-response","292","462405","0.0-1.0-9.0-3.0-0.23","18:00:05","3","","","","","","","fixation","","","","","","","","","","","","","","","","","","",""
"839","3","pic_response","html-keyboard-response","293","463245","0.0-1.0-9.0-3.0-1.23","18:00:05","3","","","","","","","<div>
            <img class='stim' src=""pictures/sports/1.jpg""></div><div class=""button_prompt"">
                    <b>请用数字键0-9回答</b>
                    </div>","","","","","","","","","","","","","","","","","","",""
"839","null","sub_response","html-keyboard-response","294","464249","0.0-1.0-9.0-3.0-2.23","18:00:05","3","","","","","","","<div style='text-align: center;'>
                            <span style=""color: red; font-size: 40px""><b>错误！+0 pts</b></span></div>
                            ","","learn","1","1","1","learn","6","6","[0, 1, 2, 3, 4, 5, 6, 7, 8, 9]","23","7","setsize","3S10A","sports","2","0","2","0",""
"null","null","fixation","html-keyboard-response","295","464756","0.0-1.0-9.0-3.0-0.24","18:00:05","3","","","","","","","fixation","","","","","","","","","","","","","","","","","","",""
"1389","2","pic_response","html-keyboard-response","296","466146","0.0-1.0-9.0-3.0-1.24","18:00:05","3","","","","","","","<div>
            <img class='stim' src=""pictures/sports/2.jpg""></div><div class=""button_prompt"">
                    <b>请用数字键0-9回答</b>
                    </div>","","","","","","","","","","","","","","","","","","",""
"1389","null","sub_response","html-keyboard-response","297","467152","0.0-1.0-9.0-3.0-2.24","18:00:05","3","","","","","","","<div style='text-align: center;'>
                            <span style=""color: red; font-size: 40px""><b>错误！+0 pts</b></span></div>
                            ","","learn","2","2","2","learn","9","9","[0, 1, 2, 3, 4, 5, 6, 7, 8, 9]","24","8","setsize","3S10A","sports","2","0","1","0",""
"null","null","fixation","html-keyboard-response","298","467660","0.0-1.0-9.0-3.0-0.25","18:00:05","3","","","","","","","fixation","","","","","","","","","","","","","","","","","","",""
"2495","6","pic_response","html-keyboard-response","299","470156","0.0-1.0-9.0-3.0-1.25","18:00:05","3","","","","","","","<div>
            <img class='stim' src=""pictures/sports/1.jpg""></div><div class=""button_prompt"">
                    <b>请用数字键0-9回答</b>
                    </div>","","","","","","","","","","","","","","","","","","",""
"2495","null","sub_response","html-keyboard-response","300","471163","0.0-1.0-9.0-3.0-2.25","18:00:05","3","","","","","","","<div style='text-align: center;'>
                            <span style=""color: red; font-size: 40px""><b>错误！+0 pts</b></span></div>
                            ","","learn","1","1","1","learn","6","6","[0, 1, 2, 3, 4, 5, 6, 7, 8, 9]","25","8","setsize","3S10A","sports","2","0","5","0",""
"null","null","fixation","html-keyboard-response","301","471672","0.0-1.0-9.0-3.0-0.26","18:00:05","3","","","","","","","fixation","","","","","","","","","","","","","","","","","","",""
"877","3","pic_response","html-keyboard-response","302","472550","0.0-1.0-9.0-3.0-1.26","18:00:05","3","","","","","","","<div>
            <img class='stim' src=""pictures/sports/0.jpg""></div><div class=""button_prompt"">
                    <b>请用数字键0-9回答</b>
                    </div>","","","","","","","","","","","","","","","","","","",""
"877","null","sub_response","html-keyboard-response","303","473563","0.0-1.0-9.0-3.0-2.26","18:00:05","3","","","","","","","<div style='text-align: center;'>
                            <span style=""color: green; font-size: 40px""><b>正确！+1 pts</b></span></div>
                            ","","learn","0","0","0","learn","2","2","[0, 1, 2, 3, 4, 5, 6, 7, 8, 9]","26","8","setsize","3S10A","sports","2","1","2","1",""
"null","null","fixation","html-keyboard-response","304","474072","0.0-1.0-9.0-3.0-0.27","18:00:05","3","","","","","","","fixation","","","","","","","","","","","","","","","","","","",""
"862","4","pic_response","html-keyboard-response","305","474935","0.0-1.0-9.0-3.0-1.27","18:00:05","3","","","","","","","<div>
            <img class='stim' src=""pictures/sports/1.jpg""></div><div class=""button_prompt"">
                    <b>请用数字键0-9回答</b>
                    </div>","","","","","","","","","","","","","","","","","","",""
"862","null","sub_response","html-keyboard-response","306","475937","0.0-1.0-9.0-3.0-2.27","18:00:05","3","","","","","","","<div style='text-align: center;'>
                            <span style=""color: red; font-size: 40px""><b>错误！+0 pts</b></span></div>
                            ","","learn","1","1","1","learn","6","6","[0, 1, 2, 3, 4, 5, 6, 7, 8, 9]","27","9","setsize","3S10A","sports","2","0","3","0",""
"null","null","fixation","html-keyboard-response","307","476452","0.0-1.0-9.0-3.0-0.28","18:00:05","3","","","","","","","fixation","","","","","","","","","","","","","","","","","","",""
"772","3","pic_response","html-keyboard-response","308","477225","0.0-1.0-9.0-3.0-1.28","18:00:05","3","","","","","","","<div>
            <img class='stim' src=""pictures/sports/0.jpg""></div><div class=""button_prompt"">
                    <b>请用数字键0-9回答</b>
                    </div>","","","","","","","","","","","","","","","","","","",""
"772","null","sub_response","html-keyboard-response","309","478228","0.0-1.0-9.0-3.0-2.28","18:00:05","3","","","","","","","<div style='text-align: center;'>
                            <span style=""color: green; font-size: 40px""><b>正确！+1 pts</b></span></div>
                            ","","learn","0","0","0","learn","2","2","[0, 1, 2, 3, 4, 5, 6, 7, 8, 9]","28","9","setsize","3S10A","sports","2","1","2","1",""
"null","null","fixation","html-keyboard-response","310","478742","0.0-1.0-9.0-3.0-0.29","18:00:05","3","","","","","","","fixation","","","","","","","","","","","","","","","","","","",""
"698","9","pic_response","html-keyboard-response","311","479441","0.0-1.0-9.0-3.0-1.29","18:00:05","3","","","","","","","<div>
            <img class='stim' src=""pictures/sports/2.jpg""></div><div class=""button_prompt"">
                    <b>请用数字键0-9回答</b>
                    </div>","","","","","","","","","","","","","","","","","","",""
"698","null","sub_response","html-keyboard-response","312","480442","0.0-1.0-9.0-3.0-2.29","18:00:05","3","","","","","","","<div style='text-align: center;'>
                            <span style=""color: red; font-size: 40px""><b>错误！+0 pts</b></span></div>
                            ","","learn","2","2","2","learn","9","9","[0, 1, 2, 3, 4, 5, 6, 7, 8, 9]","29","9","setsize","3S10A","sports","2","0","8","0",""
"null","null","fixation","html-keyboard-response","313","480951","0.0-1.0-9.0-3.0-0.30","18:00:05","3","","","","","","","fixation","","","","","","","","","","","","","","","","","","",""
"2062","3","pic_response","html-keyboard-response","314","483014","0.0-1.0-9.0-3.0-1.30","18:00:05","3","","","","","","","<div>
            <img class='stim' src=""pictures/sports/1.jpg""></div><div class=""button_prompt"">
                    <b>请用数字键0-9回答</b>
                    </div>","","","","","","","","","","","","","","","","","","",""
"2062","null","sub_response","html-keyboard-response","315","484023","0.0-1.0-9.0-3.0-2.30","18:00:05","3","","","","","","","<div style='text-align: center;'>
                            <span style=""color: red; font-size: 40px""><b>错误！+0 pts</b></span></div>
                            ","","learn","1","1","1","learn","6","6","[0, 1, 2, 3, 4, 5, 6, 7, 8, 9]","30","10","setsize","3S10A","sports","2","0","2","0",""
"null","null","fixation","html-keyboard-response","316","484531","0.0-1.0-9.0-3.0-0.31","18:00:05","3","","","","","","","fixation","","","","","","","","","","","","","","","","","","",""
"887","3","pic_response","html-keyboard-response","317","485420","0.0-1.0-9.0-3.0-1.31","18:00:05","3","","","","","","","<div>
            <img class='stim' src=""pictures/sports/0.jpg""></div><div class=""button_prompt"">
                    <b>请用数字键0-9回答</b>
                    </div>","","","","","","","","","","","","","","","","","","",""
"887","null","sub_response","html-keyboard-response","318","486424","0.0-1.0-9.0-3.0-2.31","18:00:05","3","","","","","","","<div style='text-align: center;'>
                            <span style=""color: green; font-size: 40px""><b>正确！+1 pts</b></span></div>
                            ","","learn","0","0","0","learn","2","2","[0, 1, 2, 3, 4, 5, 6, 7, 8, 9]","31","10","setsize","3S10A","sports","2","1","2","1",""
"null","null","fixation","html-keyboard-response","319","486933","0.0-1.0-9.0-3.0-0.32","18:00:05","3","","","","","","","fixation","","","","","","","","","","","","","","","","","","",""
"727","0","pic_response","html-keyboard-response","320","487661","0.0-1.0-9.0-3.0-1.32","18:00:05","3","","","","","","","<div>
            <img class='stim' src=""pictures/sports/2.jpg""></div><div class=""button_prompt"">
                    <b>请用数字键0-9回答</b>
                    </div>","","","","","","","","","","","","","","","","","","",""
"727","null","sub_response","html-keyboard-response","321","488666","0.0-1.0-9.0-3.0-2.32","18:00:05","3","","","","","","","<div style='text-align: center;'>
