"rt","response","screen_id","trial_type","trial_index","time_elapsed","internal_node_id","start_time","n_Prac","success","timeout","failed_images","failed_audio","failed_video","view_history","stimulus","question_order","stage","s","word","word_id","phase","a_cor","a_real","a_ava","trial","tps","task_type","block_typ","pic_typ","block_id","cum_r","a","r","plugin_name"
"14871","{""sub_id"":""1226"",""task_type"":""task1"",""name"":""圣所"",""gender"":""F""}","basic_info","survey-html-form","0","14878","0.0-0.0","17:58:08","1","","","","","","","","","","","","","","","","","","","","","","","","","",""
"","","","preload","1","17544","0.0-1.0-0.0","17:58:08","1","true","false","[]","[]","[]","","","","","","","","","","","","","","","","","","","","",""
"","","","preload","2","17825","0.0-1.0-1.0","17:58:08","1","true","false","[]","[]","[]","","","","","","","","","","","","","","","","","","","","",""
"","","","fullscreen","3","19568","0.0-1.0-2.0","17:58:08","1","true","","","","","","","","","","","","","","","","","","","","","","","","",""
"12747","","instruct","instructions","4","32317","0.0-1.0-3.0-0.0","17:58:08","1","","","","","","[{""page_index"":0,""viewing_time"":3699},{""page_index"":1,""viewing_time"":3616},{""page_index"":2,""viewing_time"":5432}]","","","","","","","","","","","","","","","","","","","",""
"5152","{""Q0"":"""",""task1"":""<span style='font-size: 24px'>学习图片和数字的对应关系</span>"",""task2"":""<span style='font-size: 24px'> 图片下方标注为可用的数字键（数字键1-3或0-9） </span>"",""task3"":""<span style='font-size: 24px'> 看到图片选出正确对应的数字 </span>""}","question","survey-multi-choice","5","37470","0.0-1.0-3.0-1.0","17:58:08","1","","","","","","","","[0,1,2,3]","","","","","","","","","","","","","","","","","",""
"18128"," ","inst_q","html-keyboard-response","6","55599","0.0-1.0-3.0-2.0","17:58:08","1","","","","","","","inst","","1","","","","","","","","","","","","","","","","",""
"","","","preload","7","57333","0.0-1.0-4.0-0.0","17:58:08","1","true","false","[]","[]","[]","","","","","","","","","","","","","","","","","","","","",""
"1231"," ","","html-keyboard-response","8","58566","0.0-1.0-4.0-1.0","17:58:08","1","","","","","","","<div style='font-size: 32px; text-align: center;'
                    <p>请学习图片和数字之间的对应关系</p>
                    <p>我们将<span style='color: blue'><b> 告诉 </b></span>您选择的对错。请根据反馈学习。</p>
                    <p>请按""空格""继续实验。</p></div>","","","","","","","","","","","","","","","","","","",""
"5370"," ","inst","html-keyboard-response","9","63937","0.0-1.0-4.0-2.0","17:58:08","1","","","","","","","<img class='instruct_stim' src=""instruction/prac3.PNG""></div>","","","","","","","","","","","","","","","","","","",""
"null","null","fixation","html-keyboard-response","10","64439","0.0-1.0-4.0-3.0-0.0","17:58:08","1","","","","","","","fixation","","","","","","","","","","","","","","","","","","",""
"1781","1","pic_response","html-keyboard-response","11","66222","0.0-1.0-4.0-3.0-1.0","17:58:08","1","","","","","","","<div>
            <img class='stim' src=""pictures/prac/0.jpg""></div><div class=""button_prompt"">
                        <b>请用数字键1-3回答</b>
                        </div>","","","","","","","","","","","","","","","","","","",""
"1781","null","sub_response","html-keyboard-response","12","67225","0.0-1.0-4.0-3.0-2.0","17:58:08","1","","","","","","","<div style='text-align: center;'>
                            <span style=""color: green; font-size: 40px""><b>正确！+1 pts</b></span></div>
                            ","","learn","0","0","0","learn","0","0","[0, 1, 2]","0","0","setsize","99","prac","0","1","0","1",""
"null","null","fixation","html-keyboard-response","13","67728","0.0-1.0-4.0-3.0-0.1","17:58:08","1","","","","","","","fixation","","","","","","","","","","","","","","","","","","",""
"663","1","pic_response","html-keyboard-response","14","68391","0.0-1.0-4.0-3.0-1.1","17:58:08","1","","","","","","","<div>
            <img class='stim' src=""pictures/prac/2.jpg""></div><div class=""button_prompt"">
                        <b>请用数字键1-3回答</b>
                        </div>","","","","","","","","","","","","","","","","","","",""
"663","null","sub_response","html-keyboard-response","15","69394","0.0-1.0-4.0-3.0-2.1","17:58:08","1","","","","","","","<div style='text-align: center;'>
                            <span style=""color: red; font-size: 40px""><b>错误！+0 pts</b></span></div>
                            ","","learn","2","2","2","learn","2","2","[0, 1, 2]","1","0","setsize","99","prac","0","0","0","0",""
"null","null","fixation","html-keyboard-response","16","69896","0.0-1.0-4.0-3.0-0.2","17:58:08","1","","","","","","","fixation","","","","","","","","","","","","","","","","","","",""
"492","1","pic_response","html-keyboard-response","17","70390","0.0-1.0-4.0-3.0-1.2","17:58:08","1","","","","","","","<div>
            <img class='stim' src=""pictures/prac/1.jpg""></div><div class=""button_prompt"">
                        <b>请用数字键1-3回答</b>
                        </div>","","","","","","","","","","","","","","","","","","",""
"492","null","sub_response","html-keyboard-response","18","71392","0.0-1.0-4.0-3.0-2.2","17:58:08","1","","","","","","","<div style='text-align: center;'>
                            <span style=""color: green; font-size: 40px""><b>正确！+1 pts</b></span></div>
                            ","","learn","1","1","1","learn","0","0","[0, 1, 2]","2","0","setsize","99","prac","0","1","0","1",""
"null","null","fixation","html-keyboard-response","19","71894","0.0-1.0-4.0-3.0-0.3","17:58:08","1","","","","","","","fixation","","","","","","","","","","","","","","","","","","",""
"566","1","pic_response","html-keyboard-response","20","72461","0.0-1.0-4.0-3.0-1.3","17:58:08","1","","","","","","","<div>
            <img class='stim' src=""pictures/prac/0.jpg""></div><div class=""button_prompt"">
                        <b>请用数字键1-3回答</b>
                        </div>","","","","","","","","","","","","","","","","","","",""
"566","null","sub_response","html-keyboard-response","21","73463","0.0-1.0-4.0-3.0-2.3","17:58:08","1","","","","","","","<div style='text-align: center;'>
                            <span style=""color: green; font-size: 40px""><b>正确！+1 pts</b></span></div>
                            ","","learn","0","0","0","learn","0","0","[0, 1, 2]","3","1","setsize","99","prac","0","2","0","1",""
"null","null","fixation","html-keyboard-response","22","73966","0.0-1.0-4.0-3.0-0.4","17:58:08","1","","","","","","","fixation","","","","","","","","","","","","","","","","","","",""
"679","1","pic_response","html-keyboard-response","23","74646","0.0-1.0-4.0-3.0-1.4","17:58:08","1","","","","","","","<div>
            <img class='stim' src=""pictures/prac/1.jpg""></div><div class=""button_prompt"">
                        <b>请用数字键1-3回答</b>
                        </div>","","","","","","","","","","","","","","","","","","",""
"679","null","sub_response","html-keyboard-response","24","75648","0.0-1.0-4.0-3.0-2.4","17:58:08","1","","","","","","","<div style='text-align: center;'>
                            <span style=""color: green; font-size: 40px""><b>正确！+1 pts</b></span></div>
                            ","","learn","1","1","1","learn","0","0","[0, 1, 2]","4","1","setsize","99","prac","0","3","0","1",""
"null","null","fixation","html-keyboard-response","25","76150","0.0-1.0-4.0-3.0-0.5","17:58:08","1","","","","","","","fixation","","","","","","","","","","","","","","","","","","",""
"639","3","pic_response","html-keyboard-response","26","76790","0.0-1.0-4.0-3.0-1.5","17:58:08","1","","","","","","","<div>
            <img class='stim' src=""pictures/prac/2.jpg""></div><div class=""button_prompt"">
                        <b>请用数字键1-3回答</b>
                        </div>","","","","","","","","","","","","","","","","","","",""
"639","null","sub_response","html-keyboard-response","27","77793","0.0-1.0-4.0-3.0-2.5","17:58:08","1","","","","","","","<div style='text-align: center;'>
                            <span style=""color: green; font-size: 40px""><b>正确！+1 pts</b></span></div>
                            ","","learn","2","2","2","learn","2","2","[0, 1, 2]","5","1","setsize","99","prac","0","4","2","1",""
"20722"," ","","html-keyboard-response","28","98518","0.0-1.0-5.0","17:58:08","1","","","","","","","<div style=""font-size: 25px""><p>距下一个实验开始还有</p><div style=""font-size: 50px; color: blue""><p><span id=""clock"">1:00</span></div></p><p>按""空格""跳过休息</p></div>","","","","","","","","","","","","","","","","","","",""
"711"," ","","html-keyboard-response","29","99229","0.0-1.0-6.0","17:58:08","1","","","","","","","<div style='font-size: 32px; text-align: center;'
                    <p>请按""空格""继续正式实验。</p></div>","","","","","","","","","","","","","","","","","","",""
"","","","preload","30","100128","0.0-1.0-7.0-0.0","17:58:08","1","true","false","[]","[]","[]","","","","","","","","","","","","","","","","","","","","",""
"1173"," ","","html-keyboard-response","31","101302","0.0-1.0-7.0-1.0","17:58:08","1","","","","","","","<div style='font-size: 32px; text-align: center;'
                    <p>请学习图片和数字之间的对应关系</p>
                    <p>我们将<span style='color: blue'><b> 告诉 </b></span>您选择的对错。请根据反馈学习。</p>
                    <p>请按""空格""继续实验。</p></div>","","","","","","","","","","","","","","","","","","",""
"8328"," ","inst","html-keyboard-response","32","109630","0.0-1.0-7.0-2.0","17:58:08","1","","","","","","","<img class='instruct_stim' src=""instruction/animals3.PNG""></div>","","","","","","","","","","","","","","","","","","",""
"null","null","fixation","html-keyboard-response","33","110143","0.0-1.0-7.0-3.0-0.0","17:58:08","1","","","","","","","fixation","","","","","","","","","","","","","","","","","","",""
"1373","1","pic_response","html-keyboard-response","34","111517","0.0-1.0-7.0-3.0-1.0","17:58:08","1","","","","","","","<div>
            <img class='stim' src=""pictures/animals/2.jpg""></div><div class=""button_prompt"">
                    <b>请用数字键0-9回答</b>
                    </div>","","","","","","","","","","","","","","","","","","",""
"1373","null","sub_response","html-keyboard-response","35","112519","0.0-1.0-7.0-3.0-2.0","17:58:08","1","","","","","","","<div style='text-align: center;'>
                            <span style=""color: red; font-size: 40px""><b>错误！+0 pts</b></span></div>
                            ","","learn","2","2","2","learn","9","9","[0, 1, 2, 3, 4, 5, 6, 7, 8, 9]","0","0","setsize","3S10A","animals","1","0","0","0",""
"null","null","fixation","html-keyboard-response","36","113021","0.0-1.0-7.0-3.0-0.1","17:58:08","1","","","","","","","fixation","","","","","","","","","","","","","","","","","","",""
"1335","1","pic_response","html-keyboard-response","37","114359","0.0-1.0-7.0-3.0-1.1","17:58:08","1","","","","","","","<div>
            <img class='stim' src=""pictures/animals/0.jpg""></div><div class=""button_prompt"">
                    <b>请用数字键0-9回答</b>
                    </div>","","","","","","","","","","","","","","","","","","",""
"1335","null","sub_response","html-keyboard-response","38","115362","0.0-1.0-7.0-3.0-2.1","17:58:08","1","","","","","","","<div style='text-align: center;'>
                            <span style=""color: red; font-size: 40px""><b>错误！+0 pts</b></span></div>
                            ","","learn","0","0","0","learn","2","2","[0, 1, 2, 3, 4, 5, 6, 7, 8, 9]","1","0","setsize","3S10A","animals","1","0","0","0",""
"null","null","fixation","html-keyboard-response","39","115864","0.0-1.0-7.0-3.0-0.2","17:58:08","1","","","","","","","fixation","","","","","","","","","","","","","","","","","","",""
"532","1","pic_response","html-keyboard-response","40","116398","0.0-1.0-7.0-3.0-1.2","17:58:08","1","","","","","","","<div>
            <img class='stim' src=""pictures/animals/1.jpg""></div><div class=""button_prompt"">
                    <b>请用数字键0-9回答</b>
                    </div>","","","","","","","","","","","","","","","","","","",""
"532","null","sub_response","html-keyboard-response","41","117400","0.0-1.0-7.0-3.0-2.2","17:58:08","1","","","","","","","<div style='text-align: center;'>
                            <span style=""color: red; font-size: 40px""><b>错误！+0 pts</b></span></div>
                            ","","learn","1","1","1","learn","6","6","[0, 1, 2, 3, 4, 5, 6, 7, 8, 9]","2","0","setsize","3S10A","animals","1","0","0","0",""
"null","null","fixation","html-keyboard-response","42","117901","0.0-1.0-7.0-3.0-0.3","17:58:08","1","","","","","","","fixation","","","","","","","","","","","","","","","","","","",""
"1474","2","pic_response","html-keyboard-response","43","119376","0.0-1.0-7.0-3.0-1.3","17:58:08","1","","","","","","","<div>
            <img class='stim' src=""pictures/animals/2.jpg""></div><div class=""button_prompt"">
                    <b>请用数字键0-9回答</b>
                    </div>","","","","","","","","","","","","","","","","","","",""
"1474","null","sub_response","html-keyboard-response","44","120378","0.0-1.0-7.0-3.0-2.3","17:58:08","1","","","","","","","<div style='text-align: center;'>
                            <span style=""color: red; font-size: 40px""><b>错误！+0 pts</b></span></div>
                            ","","learn","2","2","2","learn","9","9","[0, 1, 2, 3, 4, 5, 6, 7, 8, 9]","3","1","setsize","3S10A","animals","1","0","1","0",""
"null","null","fixation","html-keyboard-response","45","120880","0.0-1.0-7.0-3.0-0.4","17:58:08","1","","","","","","","fixation","","","","","","","","","","","","","","","","","","",""
"462","3","pic_response","html-keyboard-response","46","121342","0.0-1.0-7.0-3.0-1.4","17:58:08","1","","","","","","","<div>
            <img class='stim' src=""pictures/animals/1.jpg""></div><div class=""button_prompt"">
                    <b>请用数字键0-9回答</b>
                    </div>","","","","","","","","","","","","","","","","","","",""
"462","null","sub_response","html-keyboard-response","47","122344","0.0-1.0-7.0-3.0-2.4","17:58:08","1","","","","","","","<div style='text-align: center;'>
                            <span style=""color: red; font-size: 40px""><b>错误！+0 pts</b></span></div>
                            ","","learn","1","1","1","learn","6","6","[0, 1, 2, 3, 4, 5, 6, 7, 8, 9]","4","1","setsize","3S10A","animals","1","0","2","0",""
"null","null","fixation","html-keyboard-response","48","122845","0.0-1.0-7.0-3.0-0.5","17:58:08","1","","","","","","","fixation","","","","","","","","","","","","","","","","","","",""
"811","0","pic_response","html-keyboard-response","49","123657","0.0-1.0-7.0-3.0-1.5","17:58:08","1","","","","","","","<div>
            <img class='stim' src=""pictures/animals/0.jpg""></div><div class=""button_prompt"">
                    <b>请用数字键0-9回答</b>
                    </div>","","","","","","","","","","","","","","","","","","",""
"811","null","sub_response","html-keyboard-response","50","124659","0.0-1.0-7.0-3.0-2.5","17:58:08","1","","","","","","","<div style='text-align: center;'>
                            <span style=""color: red; font-size: 40px""><b>错误！+0 pts</b></span></div>
                            ","","learn","0","0","0","learn","2","2","[0, 1, 2, 3, 4, 5, 6, 7, 8, 9]","5","1","setsize","3S10A","animals","1","0","9","0",""
"null","null","fixation","html-keyboard-response","51","125161","0.0-1.0-7.0-3.0-0.6","17:58:08","1","","","","","","","fixation","","","","","","","","","","","","","","","","","","",""
"636","2","pic_response","html-keyboard-response","52","125798","0.0-1.0-7.0-3.0-1.6","17:58:08","1","","","","","","","<div>
            <img class='stim' src=""pictures/animals/0.jpg""></div><div class=""button_prompt"">
                    <b>请用数字键0-9回答</b>
                    </div>","","","","","","","","","","","","","","","","","","",""
"636","null","sub_response","html-keyboard-response","53","126800","0.0-1.0-7.0-3.0-2.6","17:58:08","1","","","","","","","<div style='text-align: center;'>
                            <span style=""color: red; font-size: 40px""><b>错误！+0 pts</b></span></div>
                            ","","learn","0","0","0","learn","2","2","[0, 1, 2, 3, 4, 5, 6, 7, 8, 9]","6","2","setsize","3S10A","animals","1","0","1","0",""
"null","null","fixation","html-keyboard-response","54","127301","0.0-1.0-7.0-3.0-0.7","17:58:08","1","","","","","","","fixation","","","","","","","","","","","","","","","","","","",""
"2391","7","pic_response","html-keyboard-response","55","129694","0.0-1.0-7.0-3.0-1.7","17:58:08","1","","","","","","","<div>
            <img class='stim' src=""pictures/animals/2.jpg""></div><div class=""button_prompt"">
                    <b>请用数字键0-9回答</b>
                    </div>","","","","","","","","","","","","","","","","","","",""
"2391","null","sub_response","html-keyboard-response","56","130695","0.0-1.0-7.0-3.0-2.7","17:58:08","1","","","","","","","<div style='text-align: center;'>
                            <span style=""color: red; font-size: 40px""><b>错误！+0 pts</b></span></div>
                            ","","learn","2","2","2","learn","9","9","[0, 1, 2, 3, 4, 5, 6, 7, 8, 9]","7","2","setsize","3S10A","animals","1","0","6","0",""
"null","null","fixation","html-keyboard-response","57","131197","0.0-1.0-7.0-3.0-0.8","17:58:08","1","","","","","","","fixation","","","","","","","","","","","","","","","","","","",""
"216","9","pic_response","html-keyboard-response","58","131414","0.0-1.0-7.0-3.0-1.8","17:58:08","1","","","","","","","<div>
            <img class='stim' src=""pictures/animals/1.jpg""></div><div class=""button_prompt"">
                    <b>请用数字键0-9回答</b>
                    </div>","","","","","","","","","","","","","","","","","","",""
"216","null","sub_response","html-keyboard-response","59","132423","0.0-1.0-7.0-3.0-2.8","17:58:08","1","","","","","","","<div style='text-align: center;'>
                            <span style=""color: red; font-size: 40px""><b>错误！+0 pts</b></span></div>
                            ","","learn","1","1","1","learn","6","6","[0, 1, 2, 3, 4, 5, 6, 7, 8, 9]","8","2","setsize","3S10A","animals","1","0","8","0",""
"null","null","fixation","html-keyboard-response","60","132925","0.0-1.0-7.0-3.0-0.9","17:58:08","1","","","","","","","fixation","","","","","","","","","","","","","","","","","","",""
"183","6","pic_response","html-keyboard-response","61","133109","0.0-1.0-7.0-3.0-1.9","17:58:08","1","","","","","","","<div>
            <img class='stim' src=""pictures/animals/2.jpg""></div><div class=""button_prompt"">
                    <b>请用数字键0-9回答</b>
                    </div>","","","","","","","","","","","","","","","","","","",""
"183","null","sub_response","html-keyboard-response","62","134111","0.0-1.0-7.0-3.0-2.9","17:58:08","1","","","","","","","<div style='text-align: center;'>
                            <span style=""color: red; font-size: 40px""><b>错误！+0 pts</b></span></div>
                            ","","learn","2","2","2","learn","9","9","[0, 1, 2, 3, 4, 5, 6, 7, 8, 9]","9","3","setsize","3S10A","animals","1","0","5","0",""
"null","null","fixation","html-keyboard-response","63","134613","0.0-1.0-7.0-3.0-0.10","17:58:08","1","","","","","","","fixation","","","","","","","","","","","","","","","","","","",""
"79","5","pic_response","html-keyboard-response","64","134693","0.0-1.0-7.0-3.0-1.10","17:58:08","1","","","","","","","<div>
            <img class='stim' src=""pictures/animals/0.jpg""></div><div class=""button_prompt"">
                    <b>请用数字键0-9回答</b>
                    </div>","","","","","","","","","","","","","","","","","","",""
"79","null","sub_response","html-keyboard-response","65","135695","0.0-1.0-7.0-3.0-2.10","17:58:08","1","","","","","","","<div style='text-align: center;'>
                            <span style=""color: red; font-size: 40px""><b>错误！+0 pts</b></span></div>
                            ","","learn","0","0","0","learn","2","2","[0, 1, 2, 3, 4, 5, 6, 7, 8, 9]","10","3","setsize","3S10A","animals","1","0","4","0",""
"null","null","fixation","html-keyboard-response","66","136198","0.0-1.0-7.0-3.0-0.11","17:58:08","1","","","","","","","fixation","","","","","","","","","","","","","","","","","","",""
"40","4","pic_response","html-keyboard-response","67","136239","0.0-1.0-7.0-3.0-1.11","17:58:08","1","","","","","","","<div>
            <img class='stim' src=""pictures/animals/1.jpg""></div><div class=""button_prompt"">
                    <b>请用数字键0-9回答</b>
                    </div>","","","","","","","","","","","","","","","","","","",""
"40","null","sub_response","html-keyboard-response","68","137242","0.0-1.0-7.0-3.0-2.11","17:58:08","1","","","","","","","<div style='text-align: center;'>
                            <span style=""color: red; font-size: 40px""><b>错误！+0 pts</b></span></div>
                            ","","learn","1","1","1","learn","6","6","[0, 1, 2, 3, 4, 5, 6, 7, 8, 9]","11","3","setsize","3S10A","animals","1","0","3","0",""
"null","null","fixation","html-keyboard-response","69","137743","0.0-1.0-7.0-3.0-0.12","17:58:08","1","","","","","","","fixation","","","","","","","","","","","","","","","","","","",""
"70","8","pic_response","html-keyboard-response","70","137815","0.0-1.0-7.0-3.0-1.12","17:58:08","1","","","","","","","<div>
            <img class='stim' src=""pictures/animals/1.jpg""></div><div class=""button_prompt"">
                    <b>请用数字键0-9回答</b>
                    </div>","","","","","","","","","","","","","","","","","","",""
"70","null","sub_response","html-keyboard-response","71","138817","0.0-1.0-7.0-3.0-2.12","17:58:08","1","","","","","","","<div style='text-align: center;'>
                            <span style=""color: red; font-size: 40px""><b>错误！+0 pts</b></span></div>
                            ","","learn","1","1","1","learn","6","6","[0, 1, 2, 3, 4, 5, 6, 7, 8, 9]","12","4","setsize","3S10A","animals","1","0","7","0",""
"null","null","fixation","html-keyboard-response","72","139319","0.0-1.0-7.0-3.0-0.13","17:58:08","1","","","","","","","fixation","","","","","","","","","","","","","","","","","","",""
"502","2","pic_response","html-keyboard-response","73","139823","0.0-1.0-7.0-3.0-1.13","17:58:08","1","","","","","","","<div>
            <img class='stim' src=""pictures/animals/2.jpg""></div><div class=""button_prompt"">
                    <b>请用数字键0-9回答</b>
                    </div>","","","","","","","","","","","","","","","","","","",""
"502","null","sub_response","html-keyboard-response","74","140825","0.0-1.0-7.0-3.0-2.13","17:58:08","1","","","","","","","<div style='text-align: center;'>
                            <span style=""color: red; font-size: 40px""><b>错误！+0 pts</b></span></div>
                            ","","learn","2","2","2","learn","9","9","[0, 1, 2, 3, 4, 5, 6, 7, 8, 9]","13","4","setsize","3S10A","animals","1","0","1","0",""
"null","null","fixation","html-keyboard-response","75","141328","0.0-1.0-7.0-3.0-0.14","17:58:08","1","","","","","","","fixation","","","","","","","","","","","","","","","","","","",""
"125","0","pic_response","html-keyboard-response","76","141454","0.0-1.0-7.0-3.0-1.14","17:58:08","1","","","","","","","<div>
            <img class='stim' src=""pictures/animals/0.jpg""></div><div class=""button_prompt"">
                    <b>请用数字键0-9回答</b>
                    </div>","","","","","","","","","","","","","","","","","","",""
"125","null","sub_response","html-keyboard-response","77","142458","0.0-1.0-7.0-3.0-2.14","17:58:08","1","","","","","","","<div style='text-align: center;'>
                            <span style=""color: red; font-size: 40px""><b>错误！+0 pts</b></span></div>
                            ","","learn","0","0","0","learn","2","2","[0, 1, 2, 3, 4, 5, 6, 7, 8, 9]","14","4","setsize","3S10A","animals","1","0","9","0",""
"null","null","fixation","html-keyboard-response","78","142960","0.0-1.0-7.0-3.0-0.15","17:58:08","1","","","","","","","fixation","","","","","","","","","","","","","","","","","","",""
"173","3","pic_response","html-keyboard-response","79","143134","0.0-1.0-7.0-3.0-1.15","17:58:08","1","","","","","","","<div>
            <img class='stim' src=""pictures/animals/2.jpg""></div><div class=""button_prompt"">
                    <b>请用数字键0-9回答</b>
                    </div>","","","","","","","","","","","","","","","","","","",""
"173","null","sub_response","html-keyboard-response","80","144137","0.0-1.0-7.0-3.0-2.15","17:58:08","1","","","","","","","<div style='text-align: center;'>
                            <span style=""color: red; font-size: 40px""><b>错误！+0 pts</b></span></div>
                            ","","learn","2","2","2","learn","9","9","[0, 1, 2, 3, 4, 5, 6, 7, 8, 9]","15","5","setsize","3S10A","animals","1","0","2","0",""
"null","null","fixation","html-keyboard-response","81","144638","0.0-1.0-7.0-3.0-0.16","17:58:08","1","","","","","","","fixation","","","","","","","","","","","","","","","","","","",""
"126","6","pic_response","html-keyboard-response","82","144766","0.0-1.0-7.0-3.0-1.16","17:58:08","1","","","","","","","<div>
            <img class='stim' src=""pictures/animals/0.jpg""></div><div class=""button_prompt"">
                    <b>请用数字键0-9回答</b>
                    </div>","","","","","","","","","","","","","","","","","","",""
"126","null","sub_response","html-keyboard-response","83","145768","0.0-1.0-7.0-3.0-2.16","17:58:08","1","","","","","","","<div style='text-align: center;'>
                            <span style=""color: red; font-size: 40px""><b>错误！+0 pts</b></span></div>
                            ","","learn","0","0","0","learn","2","2","[0, 1, 2, 3, 4, 5, 6, 7, 8, 9]","16","5","setsize","3S10A","animals","1","0","5","0",""
"null","null","fixation","html-keyboard-response","84","146269","0.0-1.0-7.0-3.0-0.17","17:58:08","1","","","","","","","fixation","","","","","","","","","","","","","","","","","","",""
"247","5","pic_response","html-keyboard-response","85","146517","0.0-1.0-7.0-3.0-1.17","17:58:08","1","","","","","","","<div>
            <img class='stim' src=""pictures/animals/1.jpg""></div><div class=""button_prompt"">
                    <b>请用数字键0-9回答</b>
                    </div>","","","","","","","","","","","","","","","","","","",""
"247","null","sub_response","html-keyboard-response","86","147519","0.0-1.0-7.0-3.0-2.17","17:58:08","1","","","","","","","<div style='text-align: center;'>
                            <span style=""color: red; font-size: 40px""><b>错误！+0 pts</b></span></div>
                            ","","learn","1","1","1","learn","6","6","[0, 1, 2, 3, 4, 5, 6, 7, 8, 9]","17","5","setsize","3S10A","animals","1","0","4","0",""
"null","null","fixation","html-keyboard-response","87","148020","0.0-1.0-7.0-3.0-0.18","17:58:08","1","","","","","","","fixation","","","","","","","","","","","","","","","","","","",""
"808","6","pic_response","html-keyboard-response","88","148829","0.0-1.0-7.0-3.0-1.18","17:58:08","1","","","","","","","<div>
            <img class='stim' src=""pictures/animals/0.jpg""></div><div class=""button_prompt"">
                    <b>请用数字键0-9回答</b>
                    </div>","","","","","","","","","","","","","","","","","","",""
"808","null","sub_response","html-keyboard-response","89","149830","0.0-1.0-7.0-3.0-2.18","17:58:08","1","","","","","","","<div style='text-align: center;'>
                            <span style=""color: red; font-size: 40px""><b>错误！+0 pts</b></span></div>
                            ","","learn","0","0","0","learn","2","2","[0, 1, 2, 3, 4, 5, 6, 7, 8, 9]","18","6","setsize","3S10A","animals","1","0","5","0",""
"null","null","fixation","html-keyboard-response","90","150331","0.0-1.0-7.0-3.0-0.19","17:58:08","1","","","","","","","fixation","","","","","","","","","","","","","","","","","","",""
"201","4","pic_response","html-keyboard-response","91","150533","0.0-1.0-7.0-3.0-1.19","17:58:08","1","","","","","","","<div>
            <img class='stim' src=""pictures/animals/1.jpg""></div><div class=""button_prompt"">
                    <b>请用数字键0-9回答</b>
                    </div>","","","","","","","","","","","","","","","","","","",""
"201","null","sub_response","html-keyboard-response","92","151535","0.0-1.0-7.0-3.0-2.19","17:58:08","1","","","","","","","<div style='text-align: center;'>
                            <span style=""color: red; font-size: 40px""><b>错误！+0 pts</b></span></div>
                            ","","learn","1","1","1","learn","6","6","[0, 1, 2, 3, 4, 5, 6, 7, 8, 9]","19","6","setsize","3S10A","animals","1","0","3","0",""
"null","null","fixation","html-keyboard-response","93","152037","0.0-1.0-7.0-3.0-0.20","17:58:08","1","","","","","","","fixation","","","","","","","","","","","","","","","","","","",""
"376","1","pic_response","html-keyboard-response","94","152414","0.0-1.0-7.0-3.0-1.20","17:58:08","1","","","","","","","<div>
            <img class='stim' src=""pictures/animals/2.jpg""></div><div class=""button_prompt"">
                    <b>请用数字键0-9回答</b>
                    </div>","","","","","","","","","","","","","","","","","","",""
"376","null","sub_response","html-keyboard-response","95","153416","0.0-1.0-7.0-3.0-2.20","17:58:08","1","","","","","","","<div style='text-align: center;'>
                            <span style=""color: red; font-size: 40px""><b>错误！+0 pts</b></span></div>
                            ","","learn","2","2","2","learn","9","9","[0, 1, 2, 3, 4, 5, 6, 7, 8, 9]","20","6","setsize","3S10A","animals","1","0","0","0",""
"null","null","fixation","html-keyboard-response","96","153918","0.0-1.0-7.0-3.0-0.21","17:58:08","1","","","","","","","fixation","","","","","","","","","","","","","","","","","","",""
"119","1","pic_response","html-keyboard-response","97","154038","0.0-1.0-7.0-3.0-1.21","17:58:08","1","","","","","","","<div>
            <img class='stim' src=""pictures/animals/1.jpg""></div><div class=""button_prompt"">
                    <b>请用数字键0-9回答</b>
                    </div>","","","","","","","","","","","","","","","","","","",""
"119","null","sub_response","html-keyboard-response","98","155039","0.0-1.0-7.0-3.0-2.21","17:58:08","1","","","","","","","<div style='text-align: center;'>
                            <span style=""color: red; font-size: 40px""><b>错误！+0 pts</b></span></div>
                            ","","learn","1","1","1","learn","6","6","[0, 1, 2, 3, 4, 5, 6, 7, 8, 9]","21","7","setsize","3S10A","animals","1","0","0","0",""
"null","null","fixation","html-keyboard-response","99","155540","0.0-1.0-7.0-3.0-0.22","17:58:08","1","","","","","","","fixation","","","","","","","","","","","","","","","","","","",""
"160","0","pic_response","html-keyboard-response","100","155702","0.0-1.0-7.0-3.0-1.22","17:58:08","1","","","","","","","<div>
            <img class='stim' src=""pictures/animals/0.jpg""></div><div class=""button_prompt"">
                    <b>请用数字键0-9回答</b>
                    </div>","","","","","","","","","","","","","","","","","","",""
"160","null","sub_response","html-keyboard-response","101","156705","0.0-1.0-7.0-3.0-2.22","17:58:08","1","","","","","","","<div style='text-align: center;'>
                            <span style=""color: red; font-size: 40px""><b>错误！+0 pts</b></span></div>
                            ","","learn","0","0","0","learn","2","2","[0, 1, 2, 3, 4, 5, 6, 7, 8, 9]","22","7","setsize","3S10A","animals","1","0","9","0",""
"null","null","fixation","html-keyboard-response","102","157206","0.0-1.0-7.0-3.0-0.23","17:58:08","1","","","","","","","fixation","","","","","","","","","","","","","","","","","","",""
"295","1","pic_response","html-keyboard-response","103","157502","0.0-1.0-7.0-3.0-1.23","17:58:08","1","","","","","","","<div>
            <img class='stim' src=""pictures/animals/2.jpg""></div><div class=""button_prompt"">
                    <b>请用数字键0-9回答</b>
                    </div>","","","","","","","","","","","","","","","","","","",""
"295","null","sub_response","html-keyboard-response","104","158504","0.0-1.0-7.0-3.0-2.23","17:58:08","1","","","","","","","<div style='text-align: center;'>
                            <span style=""color: red; font-size: 40px""><b>错误！+0 pts</b></span></div>
                            ","","learn","2","2","2","learn","9","9","[0, 1, 2, 3, 4, 5, 6, 7, 8, 9]","23","7","setsize","3S10A","animals","1","0","0","0",""
"null","null","fixation","html-keyboard-response","105","159005","0.0-1.0-7.0-3.0-0.24","17:58:08","1","","","","","","","fixation","","","","","","","","","","","","","","","","","","",""
"384","2","pic_response","html-keyboard-response","106","159390","0.0-1.0-7.0-3.0-1.24","17:58:08","1","","","","","","","<div>
            <img class='stim' src=""pictures/animals/1.jpg""></div><div class=""button_prompt"">
                    <b>请用数字键0-9回答</b>
                    </div>","","","","","","","","","","","","","","","","","","",""
"384","null","sub_response","html-keyboard-response","107","160393","0.0-1.0-7.0-3.0-2.24","17:58:08","1","","","","","","","<div style='text-align: center;'>
                            <span style=""color: red; font-size: 40px""><b>错误！+0 pts</b></span></div>
                            ","","learn","1","1","1","learn","6","6","[0, 1, 2, 3, 4, 5, 6, 7, 8, 9]","24","8","setsize","3S10A","animals","1","0","1","0",""
"null","null","fixation","html-keyboard-response","108","160895","0.0-1.0-7.0-3.0-0.25","17:58:08","1","","","","","","","fixation","","","","","","","","","","","","","","","","","","",""
"149","5","pic_response","html-keyboard-response","109","161046","0.0-1.0-7.0-3.0-1.25","17:58:08","1","","","","","","","<div>
            <img class='stim' src=""pictures/animals/2.jpg""></div><div class=""button_prompt"">
                    <b>请用数字键0-9回答</b>
                    </div>","","","","","","","","","","","","","","","","","","",""
"149","null","sub_response","html-keyboard-response","110","162048","0.0-1.0-7.0-3.0-2.25","17:58:08","1","","","","","","","<div style='text-align: center;'>
                            <span style=""color: red; font-size: 40px""><b>错误！+0 pts</b></span></div>
                            ","","learn","2","2","2","learn","9","9","[0, 1, 2, 3, 4, 5, 6, 7, 8, 9]","25","8","setsize","3S10A","animals","1","0","4","0",""
"null","null","fixation","html-keyboard-response","111","162550","0.0-1.0-7.0-3.0-0.26","17:58:08","1","","","","","","","fixation","","","","","","","","","","","","","","","","","","",""
"30","4","pic_response","html-keyboard-response","112","162581","0.0-1.0-7.0-3.0-1.26","17:58:08","1","","","","","","","<div>
            <img class='stim' src=""pictures/animals/0.jpg""></div><div class=""button_prompt"">
                    <b>请用数字键0-9回答</b>
                    </div>","","","","","","","","","","","","","","","","","","",""
"30","null","sub_response","html-keyboard-response","113","163583","0.0-1.0-7.0-3.0-2.26","17:58:08","1","","","","","","","<div style='text-align: center;'>
                            <span style=""color: red; font-size: 40px""><b>错误！+0 pts</b></span></div>
                            ","","learn","0","0","0","learn","2","2","[0, 1, 2, 3, 4, 5, 6, 7, 8, 9]","26","8","setsize","3S10A","animals","1","0","3","0",""
"null","null","fixation","html-keyboard-response","114","164084","0.0-1.0-7.0-3.0-0.27","17:58:08","1","","","","","","","fixation","","","","","","","","","","","","","","","","","","",""
"41","9","pic_response","html-keyboard-response","115","164125","0.0-1.0-7.0-3.0-1.27","17:58:08","1","","","","","","","<div>
            <img class='stim' src=""pictures/animals/1.jpg""></div><div class=""button_prompt"">
                    <b>请用数字键0-9回答</b>
                    </div>","","","","","","","","","","","","","","","","","","",""
"41","null","sub_response","html-keyboard-response","116","165126","0.0-1.0-7.0-3.0-2.27","17:58:08","1","","","","","","","<div style='text-align: center;'>
                            <span style=""color: red; font-size: 40px""><b>错误！+0 pts</b></span></div>
                            ","","learn","1","1","1","learn","6","6","[0, 1, 2, 3, 4, 5, 6, 7, 8, 9]","27","9","setsize","3S10A","animals","1","0","8","0",""
"null","null","fixation","html-keyboard-response","117","165627","0.0-1.0-7.0-3.0-0.28","17:58:08","1","","","","","","","fixation","","","","","","","","","","","","","","","","","","",""
"50","7","pic_response","html-keyboard-response","118","165678","0.0-1.0-7.0-3.0-1.28","17:58:08","1","","","","","","","<div>
            <img class='stim' src=""pictures/animals/2.jpg""></div><div class=""button_prompt"">
                    <b>请用数字键0-9回答</b>
                    </div>","","","","","","","","","","","","","","","","","","",""
"50","null","sub_response","html-keyboard-response","119","166679","0.0-1.0-7.0-3.0-2.28","17:58:08","1","","","","","","","<div style='text-align: center;'>
                            <span style=""color: red; font-size: 40px""><b>错误！+0 pts</b></span></div>
                            ","","learn","2","2","2","learn","9","9","[0, 1, 2, 3, 4, 5, 6, 7, 8, 9]","28","9","setsize","3S10A","animals","1","0","6","0",""
"null","null","fixation","html-keyboard-response","120","167181","0.0-1.0-7.0-3.0-0.29","17:58:08","1","","","","","","","fixation","","","","","","","","","","","","","","","","","","",""
"0","8","pic_response","html-keyboard-response","121","167184","0.0-1.0-7.0-3.0-1.29","17:58:08","1","","","","","","","<div>
            <img class='stim' src=""pictures/animals/0.jpg""></div><div class=""button_prompt"">
                    <b>请用数字键0-9回答</b>
                    </div>","","","","","","","","","","","","","","","","","","",""
"0","null","sub_response","html-keyboard-response","122","168186","0.0-1.0-7.0-3.0-2.29","17:58:08","1","","","","","","","<div style='text-align: center;'>
                            <span style=""color: red; font-size: 40px""><b>错误！+0 pts</b></span></div>
                            ","","learn","0","0","0","learn","2","2","[0, 1, 2, 3, 4, 5, 6, 7, 8, 9]","29","9","setsize","3S10A","animals","1","0","7","0",""
"null","null","fixation","html-keyboard-response","123","168687","0.0-1.0-7.0-3.0-0.30","17:58:08","1","","","","","","","fixation","","","","","","","","","","","","","","","","","","",""
"391","6","pic_response","html-keyboard-response","124","169080","0.0-1.0-7.0-3.0-1.30","17:58:08","1","","","","","","","<div>
            <img class='stim' src=""pictures/animals/0.jpg""></div><div class=""button_prompt"">
                    <b>请用数字键0-9回答</b>
                    </div>","","","","","","","","","","","","","","","","","","",""
"391","null","sub_response","html-keyboard-response","125","170082","0.0-1.0-7.0-3.0-2.30","17:58:08","1","","","","","","","<div style='text-align: center;'>
                            <span style=""color: red; font-size: 40px""><b>错误！+0 pts</b></span></div>
                            ","","learn","0","0","0","learn","2","2","[0, 1, 2, 3, 4, 5, 6, 7, 8, 9]","30","10","setsize","3S10A","animals","1","0","5","0",""
"null","null","fixation","html-keyboard-response","126","170584","0.0-1.0-7.0-3.0-0.31","17:58:08","1","","","","","","","fixation","","","","","","","","","","","","","","","","","","",""
"414","2","pic_response","html-keyboard-response","127","170999","0.0-1.0-7.0-3.0-1.31","17:58:08","1","","","","","","","<div>
            <img class='stim' src=""pictures/animals/2.jpg""></div><div class=""button_prompt"">
                    <b>请用数字键0-9回答</b>
                    </div>","","","","","","","","","","","","","","","","","","",""
"414","null","sub_response","html-keyboard-response","128","172001","0.0-1.0-7.0-3.0-2.31","17:58:08","1","","","","","","","<div style='text-align: center;'>
                            <span style=""color: red; font-size: 40px""><b>错误！+0 pts</b></span></div>
                            ","","learn","2","2","2","learn","9","9","[0, 1, 2, 3, 4, 5, 6, 7, 8, 9]","31","10","setsize","3S10A","animals","1","0","1","0",""
"null","null","fixation","html-keyboard-response","129","172502","0.0-1.0-7.0-3.0-0.32","17:58:08","1","","","","","","","fixation","","","","","","","","","","","","","","","","","","",""
"135","3","pic_response","html-keyboard-response","130","172638","0.0-1.0-7.0-3.0-1.32","17:58:08","1","","","","","","","<div>
            <img class='stim' src=""pictures/animals/1.jpg""></div><div class=""button_prompt"">
                    <b>请用数字键0-9回答</b>
                    </div>","","","","","","","","","","","","","","","","","","",""
"135","null","sub_response","html-keyboard-response","131","173639","0.0-1.0-7.0-3.0-2.32","17:58:08","1","","","","","","","<div style='text-align: center;'>
                            <span style=""color: red; font-size: 40px""><b>错误！+0 pts</b></span></div>
                            ","","learn","1","1","1","learn","6","6","[0, 1, 2, 3, 4, 5, 6, 7, 8, 9]","32","10","setsize","3S10A","animals","1","0","2","0",""
"null","null","fixation","html-keyboard-response","132","174141","0.0-1.0-7.0-3.0-0.33","17:58:08","1","","","","","","","fixation","","","","","","","","","","","","","","","","","","",""
"47","4","pic_response","html-keyboard-response","133","174189","0.0-1.0-7.0-3.0-1.33","17:58:08","1","","","","","","","<div>
            <img class='stim' src=""pictures/animals/2.jpg""></div><div class=""button_prompt"">
                    <b>请用数字键0-9回答</b>
                    </div>","","","","","","","","","","","","","","","","","","",""
"47","null","sub_response","html-keyboard-response","134","175194","0.0-1.0-7.0-3.0-2.33","17:58:08","1","","","","","","","<div style='text-align: center;'>
                            <span style=""color: red; font-size: 40px""><b>错误！+0 pts</b></span></div>
                            ","","learn","2","2","2","learn","9","9","[0, 1, 2, 3, 4, 5, 6, 7, 8, 9]","33","11","setsize","3S10A","animals","1","0","3","0",""
"null","null","fixation","html-keyboard-response","135","175695","0.0-1.0-7.0-3.0-0.34","17:58:08","1","","","","","","","fixation","","","","","","","","","","","","","","","","","","",""
"5","5","pic_response","html-keyboard-response","136","175702","0.0-1.0-7.0-3.0-1.34","17:58:08","1","","","","","","","<div>
            <img class='stim' src=""pictures/animals/0.jpg""></div><div class=""button_prompt"">
                    <b>请用数字键0-9回答</b>
                    </div>","","","","","","","","","","","","","","","","","","",""
"5","null","sub_response","html-keyboard-response","137","176703","0.0-1.0-7.0-3.0-2.34","17:58:08","1","","","","","","","<div style='text-align: center;'>
                            <span style=""color: red; font-size: 40px""><b>错误！+0 pts</b></span></div>
                            ","","learn","0","0","0","learn","2","2","[0, 1, 2, 3, 4, 5, 6, 7, 8, 9]","34","11","setsize","3S10A","animals","1","0","4","0",""
"null","null","fixation","html-keyboard-response","138","177205","0.0-1.0-7.0-3.0-0.35","17:58:08","1","","","","","","","fixation","","","","","","","","","","","","","","","","","","",""
"159","6","pic_response","html-keyboard-response","139","177366","0.0-1.0-7.0-3.0-1.35","17:58:08","1","","","","","","","<div>
            <img class='stim' src=""pictures/animals/1.jpg""></div><div class=""button_prompt"">
                    <b>请用数字键0-9回答</b>
                    </div>","","","","","","","","","","","","","","","","","","",""
"159","null","sub_response","html-keyboard-response","140","178368","0.0-1.0-7.0-3.0-2.35","17:58:08","1","","","","","","","<div style='text-align: center;'>
                            <span style=""color: red; font-size: 40px""><b>错误！+0 pts</b></span></div>
                            ","","learn","1","1","1","learn","6","6","[0, 1, 2, 3, 4, 5, 6, 7, 8, 9]","35","11","setsize","3S10A","animals","1","0","5","0",""
"null","null","fixation","html-keyboard-response","141","178873","0.0-1.0-7.0-3.0-0.36","17:58:08","1","","","","","","","fixation","","","","","","","","","","","","","","","","","","",""
"307","6","pic_response","html-keyboard-response","142","179182","0.0-1.0-7.0-3.0-1.36","17:58:08","1","","","","","","","<div>
            <img class='stim' src=""pictures/animals/2.jpg""></div><div class=""button_prompt"">
                    <b>请用数字键0-9回答</b>
                    </div>","","","","","","","","","","","","","","","","","","",""
"307","null","sub_response","html-keyboard-response","143","180184","0.0-1.0-7.0-3.0-2.36","17:58:08","1","","","","","","","<div style='text-align: center;'>
                            <span style=""color: red; font-size: 40px""><b>错误！+0 pts</b></span></div>
                            ","","learn","2","2","2","learn","9","9","[0, 1, 2, 3, 4, 5, 6, 7, 8, 9]","36","12","setsize","3S10A","animals","1","0","5","0",""
"null","null","fixation","html-keyboard-response","144","180685","0.0-1.0-7.0-3.0-0.37","17:58:08","1","","","","","","","fixation","","","","","","","","","","","","","","","","","","",""
"120","5","pic_response","html-keyboard-response","145","180806","0.0-1.0-7.0-3.0-1.37","17:58:08","1","","","","","","","<div>
            <img class='stim' src=""pictures/animals/0.jpg""></div><div class=""button_prompt"">
                    <b>请用数字键0-9回答</b>
                    </div>","","","","","","","","","","","","","","","","","","",""
"120","null","sub_response","html-keyboard-response","146","181809","0.0-1.0-7.0-3.0-2.37","17:58:08","1","","","","","","","<div style='text-align: center;'>
                            <span style=""color: red; font-size: 40px""><b>错误！+0 pts</b></span></div>
                            ","","learn","0","0","0","learn","2","2","[0, 1, 2, 3, 4, 5, 6, 7, 8, 9]","37","12","setsize","3S10A","animals","1","0","4","0",""
"null","null","fixation","html-keyboard-response","147","182311","0.0-1.0-7.0-3.0-0.38","17:58:08","1","","","","","","","fixation","","","","","","","","","","","","","","","","","","",""
"1845","2","pic_response","html-keyboard-response","148","184159","0.0-1.0-7.0-3.0-1.38","17:58:08","1","","","","","","","<div>
            <img class='stim' src=""pictures/animals/1.jpg""></div><div class=""button_prompt"">
                    <b>请用数字键0-9回答</b>
                    </div>","","","","","","","","","","","","","","","","","","",""
"1845","null","sub_response","html-keyboard-response","149","185160","0.0-1.0-7.0-3.0-2.38","17:58:08","1","","","","","","","<div style='text-align: center;'>
                            <span style=""color: red; font-size: 40px""><b>错误！+0 pts</b></span></div>
                            ","","learn","1","1","1","learn","6","6","[0, 1, 2, 3, 4, 5, 6, 7, 8, 9]","38","12","setsize","3S10A","animals","1","0","1","0",""
"null","null","fixation","html-keyboard-response","150","185662","0.0-1.0-7.0-3.0-0.39","17:58:08","1","","","","","","","fixation","","","","","","","","","","","","","","","","","","",""
"503","2","pic_response","html-keyboard-response","151","186166","0.0-1.0-7.0-3.0-1.39","17:58:08","1","","","","","","","<div>
            <img class='stim' src=""pictures/animals/0.jpg""></div><div class=""button_prompt"">
                    <b>请用数字键0-9回答</b>
                    </div>","","","","","","","","","","","","","","","","","","",""
"503","null","sub_response","html-keyboard-response","152","187167","0.0-1.0-7.0-3.0-2.39","17:58:08","1","","","","","","","<div style='text-align: center;'>
                            <span style=""color: red; font-size: 40px""><b>错误！+0 pts</b></span></div>
                            ","","learn","0","0","0","learn","2","2","[0, 1, 2, 3, 4, 5, 6, 7, 8, 9]","39","13","setsize","3S10A","animals","1","0","1","0",""
"null","null","fixation","html-keyboard-response","153","187668","0.0-1.0-7.0-3.0-0.40","17:58:08","1","","","","","","","fixation","","","","","","","","","","","","","","","","","","",""
"282","2","pic_response","html-keyboard-response","154","187952","0.0-1.0-7.0-3.0-1.40","17:58:08","1","","","","","","","<div>
            <img class='stim' src=""pictures/animals/2.jpg""></div><div class=""button_prompt"">
                    <b>请用数字键0-9回答</b>
                    </div>","","","","","","","","","","","","","","","","","","",""
"282","null","sub_response","html-keyboard-response","155","188954","0.0-1.0-7.0-3.0-2.40","17:58:08","1","","","","","","","<div style='text-align: center;'>
                            <span style=""color: red; font-size: 40px""><b>错误！+0 pts</b></span></div>
                            ","","learn","2","2","2","learn","9","9","[0, 1, 2, 3, 4, 5, 6, 7, 8, 9]","40","13","setsize","3S10A","animals","1","0","1","0",""
"null","null","fixation","html-keyboard-response","156","189456","0.0-1.0-7.0-3.0-0.41","17:58:08","1","","","","","","","fixation","","","","","","","","","","","","","","","","","","",""
"284","3","pic_response","html-keyboard-response","157","189741","0.0-1.0-7.0-3.0-1.41","17:58:08","1","","","","","","","<div>
            <img class='stim' src=""pictures/animals/1.jpg""></div><div class=""button_prompt"">
                    <b>请用数字键0-9回答</b>
                    </div>","","","","","","","","","","","","","","","","","","",""
"284","null","sub_response","html-keyboard-response","158","190742","0.0-1.0-7.0-3.0-2.41","17:58:08","1","","","","","","","<div style='text-align: center;'>
                            <span style=""color: red; font-size: 40px""><b>错误！+0 pts</b></span></div>
                            ","","learn","1","1","1","learn","6","6","[0, 1, 2, 3, 4, 5, 6, 7, 8, 9]","41","13","setsize","3S10A","animals","1","0","2","0",""
"null","null","fixation","html-keyboard-response","159","191243","0.0-1.0-7.0-3.0-0.42","17:58:08","1","","","","","","","fixation","","","","","","","","","","","","","","","","","","",""
"257","3","pic_response","html-keyboard-response","160","191501","0.0-1.0-7.0-3.0-1.42","17:58:08","1","","","","","","","<div>
            <img class='stim' src=""pictures/animals/2.jpg""></div><div class=""button_prompt"">
                    <b>请用数字键0-9回答</b>
                    </div>","","","","","","","","","","","","","","","","","","",""
"257","null","sub_response","html-keyboard-response","161","192502","0.0-1.0-7.0-3.0-2.42","17:58:08","1","","","","","","","<div style='text-align: center;'>
                            <span style=""color: red; font-size: 40px""><b>错误！+0 pts</b></span></div>
                            ","","learn","2","2","2","learn","9","9","[0, 1, 2, 3, 4, 5, 6, 7, 8, 9]","42","14","setsize","3S10A","animals","1","0","2","0",""
"null","null","fixation","html-keyboard-response","162","193004","0.0-1.0-7.0-3.0-0.43","17:58:08","1","","","","","","","fixation","","","","","","","","","","","","","","","","","","",""
"297","3","pic_response","html-keyboard-response","163","193302","0.0-1.0-7.0-3.0-1.43","17:58:08","1","","","","","","","<div>
            <img class='stim' src=""pictures/animals/0.jpg""></div><div class=""button_prompt"">
                    <b>请用数字键0-9回答</b>
                    </div>","","","","","","","","","","","","","","","","","","",""
"297","null","sub_response","html-keyboard-response","164","194304","0.0-1.0-7.0-3.0-2.43","17:58:08","1","","","","","","","<div style='text-align: center;'>
                            <span style=""color: green; font-size: 40px""><b>正确！+1 pts</b></span></div>
                            ","","learn","0","0","0","learn","2","2","[0, 1, 2, 3, 4, 5, 6, 7, 8, 9]","43","14","setsize","3S10A","animals","1","1","2","1",""
"null","null","fixation","html-keyboard-response","165","194806","0.0-1.0-7.0-3.0-0.44","17:58:08","1","","","","","","","fixation","","","","","","","","","","","","","","","","","","",""
"1518","4","pic_response","html-keyboard-response","166","196326","0.0-1.0-7.0-3.0-1.44","17:58:08","1","","","","","","","<div>
            <img class='stim' src=""pictures/animals/1.jpg""></div><div class=""button_prompt"">
                    <b>请用数字键0-9回答</b>
                    </div>","","","","","","","","","","","","","","","","","","",""
"1518","null","sub_response","html-keyboard-response","167","197329","0.0-1.0-7.0-3.0-2.44","17:58:08","1","","","","","","","<div style='text-align: center;'>
                            <span style=""color: red; font-size: 40px""><b>错误！+0 pts</b></span></div>
                            ","","learn","1","1","1","learn","6","6","[0, 1, 2, 3, 4, 5, 6, 7, 8, 9]","44","14","setsize","3S10A","animals","1","0","3","0",""
"null","null","fixation","html-keyboard-response","168","197832","0.0-1.0-7.0-3.0-0.45","17:58:08","1","","","","","","","fixation","","","","","","","","","","","","","","","","","","",""
"253","4","pic_response","html-keyboard-response","169","198086","0.0-1.0-7.0-3.0-1.45","17:58:08","1","","","","","","","<div>
            <img class='stim' src=""pictures/animals/1.jpg""></div><div class=""button_prompt"">
                    <b>请用数字键0-9回答</b>
                    </div>","","","","","","","","","","","","","","","","","","",""
"253","null","sub_response","html-keyboard-response","170","199087","0.0-1.0-7.0-3.0-2.45","17:58:08","1","","","","","","","<div style='text-align: center;'>
                            <span style=""color: red; font-size: 40px""><b>错误！+0 pts</b></span></div>
                            ","","learn","1","1","1","learn","6","6","[0, 1, 2, 3, 4, 5, 6, 7, 8, 9]","45","15","setsize","3S10A","animals","1","0","3","0",""
"null","null","fixation","html-keyboard-response","171","199588","0.0-1.0-7.0-3.0-0.46","17:58:08","1","","","","","","","fixation","","","","","","","","","","","","","","","","","","",""
"1082","4","pic_response","html-keyboard-response","172","200672","0.0-1.0-7.0-3.0-1.46","17:58:08","1","","","","","","","<div>
            <img class='stim' src=""pictures/animals/2.jpg""></div><div class=""button_prompt"">
                    <b>请用数字键0-9回答</b>
                    </div>","","","","","","","","","","","","","","","","","","",""
"1082","null","sub_response","html-keyboard-response","173","201673","0.0-1.0-7.0-3.0-2.46","17:58:08","1","","","","","","","<div style='text-align: center;'>
                            <span style=""color: red; font-size: 40px""><b>错误！+0 pts</b></span></div>
                            ","","learn","2","2","2","learn","9","9","[0, 1, 2, 3, 4, 5, 6, 7, 8, 9]","46","15","setsize","3S10A","animals","1","0","3","0",""
"null","null","fixation","html-keyboard-response","174","202175","0.0-1.0-7.0-3.0-0.47","17:58:08","1","","","","","","","fixation","","","","","","","","","","","","","","","","","","",""
"349","3","pic_response","html-keyboard-response","175","202526","0.0-1.0-7.0-3.0-1.47","17:58:08","1","","","","","","","<div>
            <img class='stim' src=""pictures/animals/0.jpg""></div><div class=""button_prompt"">
                    <b>请用数字键0-9回答</b>
                    </div>","","","","","","","","","","","","","","","","","","",""
"349","null","sub_response","html-keyboard-response","176","203527","0.0-1.0-7.0-3.0-2.47","17:58:08","1","","","","","","","<div style='text-align: center;'>
                            <span style=""color: green; font-size: 40px""><b>正确！+1 pts</b></span></div>
                            ","","learn","0","0","0","learn","2","2","[0, 1, 2, 3, 4, 5, 6, 7, 8, 9]","47","15","setsize","3S10A","animals","1","1","2","1",""
"null","null","fixation","html-keyboard-response","177","204030","0.0-1.0-7.0-3.0-0.48","17:58:08","1","","","","","","","fixation","","","","","","","","","","","","","","","","","","",""
"207","5","pic_response","html-keyboard-response","178","204238","0.0-1.0-7.0-3.0-1.48","17:58:08","1","","","","","","","<div>
            <img class='stim' src=""pictures/animals/0.jpg""></div><div class=""button_prompt"">
                    <b>请用数字键0-9回答</b>
                    </div>","","","","","","","","","","","","","","","","","","",""
"207","null","sub_response","html-keyboard-response","179","205241","0.0-1.0-7.0-3.0-2.48","17:58:08","1","","","","","","","<div style='text-align: center;'>
                            <span style=""color: red; font-size: 40px""><b>错误！+0 pts</b></span></div>
                            ","","learn","0","0","0","learn","2","2","[0, 1, 2, 3, 4, 5, 6, 7, 8, 9]","48","16","setsize","3S10A","animals","1","0","4","0",""
"null","null","fixation","html-keyboard-response","180","205743","0.0-1.0-7.0-3.0-0.49","17:58:08","1","","","","","","","fixation","","","","","","","","","","","","","","","","","","",""
"573","5","pic_response","html-keyboard-response","181","206317","0.0-1.0-7.0-3.0-1.49","17:58:08","1","","","","","","","<div>
            <img class='stim' src=""pictures/animals/1.jpg""></div><div class=""button_prompt"">
                    <b>请用数字键0-9回答</b>
                    </div>","","","","","","","","","","","","","","","","","","",""
"573","null","sub_response","html-keyboard-response","182","207319","0.0-1.0-7.0-3.0-2.49","17:58:08","1","","","","","","","<div style='text-align: center;'>
                            <span style=""color: red; font-size: 40px""><b>错误！+0 pts</b></span></div>
                            ","","learn","1","1","1","learn","6","6","[0, 1, 2, 3, 4, 5, 6, 7, 8, 9]","49","16","setsize","3S10A","animals","1","0","4","0",""
"null","null","fixation","html-keyboard-response","183","207821","0.0-1.0-7.0-3.0-0.50","17:58:08","1","","","","","","","fixation","","","","","","","","","","","","","","","","","","",""
"1073","5","pic_response","html-keyboard-response","184","208895","0.0-1.0-7.0-3.0-1.50","17:58:08","1","","","","","","","<div>
            <img class='stim' src=""pictures/animals/2.jpg""></div><div class=""button_prompt"">
                    <b>请用数字键0-9回答</b>
                    </div>","","","","","","","","","","","","","","","","","","",""
"1073","null","sub_response","html-keyboard-response","185","209897","0.0-1.0-7.0-3.0-2.50","17:58:08","1","","","","","","","<div style='text-align: center;'>
                            <span style=""color: red; font-size: 40px""><b>错误！+0 pts</b></span></div>
                            ","","learn","2","2","2","learn","9","9","[0, 1, 2, 3, 4, 5, 6, 7, 8, 9]","50","16","setsize","3S10A","animals","1","0","4","0",""
"null","null","fixation","html-keyboard-response","186","210399","0.0-1.0-7.0-3.0-0.51","17:58:08","1","","","","","","","fixation","","","","","","","","","","","","","","","","","","",""
"1008","6","pic_response","html-keyboard-response","187","211409","0.0-1.0-7.0-3.0-1.51","17:58:08","1","","","","","","","<div>
            <img class='stim' src=""pictures/animals/2.jpg""></div><div class=""button_prompt"">
                    <b>请用数字键0-9回答</b>
                    </div>","","","","","","","","","","","","","","","","","","",""
"1008","null","sub_response","html-keyboard-response","188","212410","0.0-1.0-7.0-3.0-2.51","17:58:08","1","","","","","","","<div style='text-align: center;'>
                            <span style=""color: red; font-size: 40px""><b>错误！+0 pts</b></span></div>
                            ","","learn","2","2","2","learn","9","9","[0, 1, 2, 3, 4, 5, 6, 7, 8, 9]","51","17","setsize","3S10A","animals","1","0","5","0",""
"null","null","fixation","html-keyboard-response","189","212912","0.0-1.0-7.0-3.0-0.52","17:58:08","1","","","","","","","fixation","","","","","","","","","","","","","","","","","","",""
"565","3","pic_response","html-keyboard-response","190","213479","0.0-1.0-7.0-3.0-1.52","17:58:08","1","","","","","","","<div>
            <img class='stim' src=""pictures/animals/0.jpg""></div><div class=""button_prompt"">
                    <b>请用数字键0-9回答</b>
                    </div>","","","","","","","","","","","","","","","","","","",""
"565","null","sub_response","html-keyboard-response","191","214480","0.0-1.0-7.0-3.0-2.52","17:58:08","1","","","","","","","<div style='text-align: center;'>
                            <span style=""color: green; font-size: 40px""><b>正确！+1 pts</b></span></div>
                            ","","learn","0","0","0","learn","2","2","[0, 1, 2, 3, 4, 5, 6, 7, 8, 9]","52","17","setsize","3S10A","animals","1","1","2","1",""
"null","null","fixation","html-keyboard-response","192","214982","0.0-1.0-7.0-3.0-0.53","17:58:08","1","","","","","","","fixation","","","","","","","","","","","","","","","","","","",""
"880","6","pic_response","html-keyboard-response","193","215862","0.0-1.0-7.0-3.0-1.53","17:58:08","1","","","","","","","<div>
            <img class='stim' src=""pictures/animals/1.jpg""></div><div class=""button_prompt"">
                    <b>请用数字键0-9回答</b>
                    </div>","","","","","","","","","","","","","","","","","","",""
"880","null","sub_response","html-keyboard-response","194","216864","0.0-1.0-7.0-3.0-2.53","17:58:08","1","","","","","","","<div style='text-align: center;'>
                            <span style=""color: red; font-size: 40px""><b>错误！+0 pts</b></span></div>
                            ","","learn","1","1","1","learn","6","6","[0, 1, 2, 3, 4, 5, 6, 7, 8, 9]","53","17","setsize","3S10A","animals","1","0","5","0",""
"null","null","fixation","html-keyboard-response","195","217366","0.0-1.0-7.0-3.0-0.54","17:58:08","1","","","","","","","fixation","","","","","","","","","","","","","","","","","","",""
"391","3","pic_response","html-keyboard-response","196","217758","0.0-1.0-7.0-3.0-1.54","17:58:08","1","","","","","","","<div>
            <img class='stim' src=""pictures/animals/0.jpg""></div><div class=""button_prompt"">
                    <b>请用数字键0-9回答</b>
                    </div>","","","","","","","","","","","","","","","","","","",""
"391","null","sub_response","html-keyboard-response","197","218760","0.0-1.0-7.0-3.0-2.54","17:58:08","1","","","","","","","<div style='text-align: center;'>
                            <span style=""color: green; font-size: 40px""><b>正确！+1 pts</b></span></div>
                            ","","learn","0","0","0","learn","2","2","[0, 1, 2, 3, 4, 5, 6, 7, 8, 9]","54","18","setsize","3S10A","animals","1","1","2","1",""
"null","null","fixation","html-keyboard-response","198","219262","0.0-1.0-7.0-3.0-0.55","17:58:08","1","","","","","","","fixation","","","","","","","","","","","","","","","","","","",""
"80","7","pic_response","html-keyboard-response","199","219343","0.0-1.0-7.0-3.0-1.55","17:58:08","1","","","","","","","<div>
            <img class='stim' src=""pictures/animals/1.jpg""></div><div class=""button_prompt"">
                    <b>请用数字键0-9回答</b>
                    </div>","","","","","","","","","","","","","","","","","","",""
"80","null","sub_response","html-keyboard-response","200","220344","0.0-1.0-7.0-3.0-2.55","17:58:08","1","","","","","","","<div style='text-align: center;'>
                            <span style=""color: green; font-size: 40px""><b>正确！+1 pts</b></span></div>
                            ","","learn","1","1","1","learn","6","6","[0, 1, 2, 3, 4, 5, 6, 7, 8, 9]","55","18","setsize","3S10A","animals","1","2","6","1",""
"null","null","fixation","html-keyboard-response","201","220845","0.0-1.0-7.0-3.0-0.56","17:58:08","1","","","","","","","fixation","","","","","","","","","","","","","","","","","","",""
"2752","7","pic_response","html-keyboard-response","202","223598","0.0-1.0-7.0-3.0-1.56","17:58:08","1","","","","","","","<div>
            <img class='stim' src=""pictures/animals/2.jpg""></div><div class=""button_prompt"">
                    <b>请用数字键0-9回答</b>
                    </div>","","","","","","","","","","","","","","","","","","",""
"2752","null","sub_response","html-keyboard-response","203","224600","0.0-1.0-7.0-3.0-2.56","17:58:08","1","","","","","","","<div style='text-align: center;'>
                            <span style=""color: red; font-size: 40px""><b>错误！+0 pts</b></span></div>
                            ","","learn","2","2","2","learn","9","9","[0, 1, 2, 3, 4, 5, 6, 7, 8, 9]","56","18","setsize","3S10A","animals","1","0","6","0",""
"null","null","fixation","html-keyboard-response","204","225102","0.0-1.0-7.0-3.0-0.57","17:58:08","1","","","","","","","fixation","","","","","","","","","","","","","","","","","","",""
"848","8","pic_response","html-keyboard-response","205","225951","0.0-1.0-7.0-3.0-1.57","17:58:08","1","","","","","","","<div>
            <img class='stim' src=""pictures/animals/2.jpg""></div><div class=""button_prompt"">
                    <b>请用数字键0-9回答</b>
                    </div>","","","","","","","","","","","","","","","","","","",""
"848","null","sub_response","html-keyboard-response","206","226954","0.0-1.0-7.0-3.0-2.57","17:58:08","1","","","","","","","<div style='text-align: center;'>
                            <span style=""color: red; font-size: 40px""><b>错误！+0 pts</b></span></div>
                            ","","learn","2","2","2","learn","9","9","[0, 1, 2, 3, 4, 5, 6, 7, 8, 9]","57","19","setsize","3S10A","animals","1","0","7","0",""
"null","null","fixation","html-keyboard-response","207","227456","0.0-1.0-7.0-3.0-0.58","17:58:08","1","","","","","","","fixation","","","","","","","","","","","","","","","","","","",""
"420","3","pic_response","html-keyboard-response","208","227878","0.0-1.0-7.0-3.0-1.58","17:58:08","1","","","","","","","<div>
            <img class='stim' src=""pictures/animals/0.jpg""></div><div class=""button_prompt"">
                    <b>请用数字键0-9回答</b>
                    </div>","","","","","","","","","","","","","","","","","","",""
"420","null","sub_response","html-keyboard-response","209","228880","0.0-1.0-7.0-3.0-2.58","17:58:08","1","","","","","","","<div style='text-align: center;'>
                            <span style=""color: green; font-size: 40px""><b>正确！+1 pts</b></span></div>
                            ","","learn","0","0","0","learn","2","2","[0, 1, 2, 3, 4, 5, 6, 7, 8, 9]","58","19","setsize","3S10A","animals","1","1","2","1",""
"null","null","fixation","html-keyboard-response","210","229382","0.0-1.0-7.0-3.0-0.59","17:58:08","1","","","","","","","fixation","","","","","","","","","","","","","","","","","","",""
"471","7","pic_response","html-keyboard-response","211","229854","0.0-1.0-7.0-3.0-1.59","17:58:08","1","","","","","","","<div>
            <img class='stim' src=""pictures/animals/1.jpg""></div><div class=""button_prompt"">
                    <b>请用数字键0-9回答</b>
                    </div>","","","","","","","","","","","","","","","","","","",""
"471","null","sub_response","html-keyboard-response","212","230857","0.0-1.0-7.0-3.0-2.59","17:58:08","1","","","","","","","<div style='text-align: center;'>
                            <span style=""color: green; font-size: 40px""><b>正确！+1 pts</b></span></div>
                            ","","learn","1","1","1","learn","6","6","[0, 1, 2, 3, 4, 5, 6, 7, 8, 9]","59","19","setsize","3S10A","animals","1","2","6","1",""
"null","null","fixation","html-keyboard-response","213","231359","0.0-1.0-7.0-3.0-0.60","17:58:08","1","","","","","","","fixation","","","","","","","","","","","","","","","","","","",""
"279","9","pic_response","html-keyboard-response","214","231639","0.0-1.0-7.0-3.0-1.60","17:58:08","1","","","","","","","<div>
            <img class='stim' src=""pictures/animals/0.jpg""></div><div class=""button_prompt"">
                    <b>请用数字键0-9回答</b>
                    </div>","","","","","","","","","","","","","","","","","","",""
"279","null","sub_response","html-keyboard-response","215","232642","0.0-1.0-7.0-3.0-2.60","17:58:08","1","","","","","","","<div style='text-align: center;'>
                            <span style=""color: red; font-size: 40px""><b>错误！+0 pts</b></span></div>
                            ","","learn","0","0","0","learn","2","2","[0, 1, 2, 3, 4, 5, 6, 7, 8, 9]","60","20","setsize","3S10A","animals","1","0","8","0",""
"null","null","fixation","html-keyboard-response","216","233144","0.0-1.0-7.0-3.0-0.61","17:58:08","1","","","","","","","fixation","","","","","","","","","","","","","","","","","","",""
"893","7","pic_response","html-keyboard-response","217","234038","0.0-1.0-7.0-3.0-1.61","17:58:08","1","","","","","","","<div>
            <img class='stim' src=""pictures/animals/1.jpg""></div><div class=""button_prompt"">
                    <b>请用数字键0-9回答</b>
                    </div>","","","","","","","","","","","","","","","","","","",""
"893","null","sub_response","html-keyboard-response","218","235041","0.0-1.0-7.0-3.0-2.61","17:58:08","1","","","","","","","<div style='text-align: center;'>
                            <span style=""color: green; font-size: 40px""><b>正确！+1 pts</b></span></div>
                            ","","learn","1","1","1","learn","6","6","[0, 1, 2, 3, 4, 5, 6, 7, 8, 9]","61","20","setsize","3S10A","animals","1","1","6","1",""
"null","null","fixation","html-keyboard-response","219","235543","0.0-1.0-7.0-3.0-0.62","17:58:08","1","","","","","","","fixation","","","","","","","","","","","","","","","","","","",""
"1111","0","pic_response","html-keyboard-response","220","236655","0.0-1.0-7.0-3.0-1.62","17:58:08","1","","","","","","","<div>
            <img class='stim' src=""pictures/animals/2.jpg""></div><div class=""button_prompt"">
                    <b>请用数字键0-9回答</b>
                    </div>","","","","","","","","","","","","","","","","","","",""
"1111","null","sub_response","html-keyboard-response","221","237657","0.0-1.0-7.0-3.0-2.62","17:58:08","1","","","","","","","<div style='text-align: center;'>
                            <span style=""color: green; font-size: 40px""><b>正确！+1 pts</b></span></div>
                            ","","learn","2","2","2","learn","9","9","[0, 1, 2, 3, 4, 5, 6, 7, 8, 9]","62","20","setsize","3S10A","animals","1","2","9","1",""
"null","null","fixation","html-keyboard-response","222","238159","0.0-1.0-7.0-3.0-0.63","17:58:08","1","","","","","","","fixation","","","","","","","","","","","","","","","","","","",""
"542","3","pic_response","html-keyboard-response","223","238702","0.0-1.0-7.0-3.0-1.63","17:58:08","1","","","","","","","<div>
            <img class='stim' src=""pictures/animals/0.jpg""></div><div class=""button_prompt"">
                    <b>请用数字键0-9回答</b>
                    </div>","","","","","","","","","","","","","","","","","","",""
"542","null","sub_response","html-keyboard-response","224","239705","0.0-1.0-7.0-3.0-2.63","17:58:08","1","","","","","","","<div style='text-align: center;'>
                            <span style=""color: green; font-size: 40px""><b>正确！+1 pts</b></span></div>
                            ","","learn","0","0","0","learn","2","2","[0, 1, 2, 3, 4, 5, 6, 7, 8, 9]","63","21","setsize","3S10A","animals","1","3","2","1",""
"null","null","fixation","html-keyboard-response","225","240207","0.0-1.0-7.0-3.0-0.64","17:58:08","1","","","","","","","fixation","","","","","","","","","","","","","","","","","","",""
"861","7","pic_response","html-keyboard-response","226","241070","0.0-1.0-7.0-3.0-1.64","17:58:08","1","","","","","","","<div>
            <img class='stim' src=""pictures/animals/1.jpg""></div><div class=""button_prompt"">
                    <b>请用数字键0-9回答</b>
                    </div>","","","","","","","","","","","","","","","","","","",""
"861","null","sub_response","html-keyboard-response","227","242073","0.0-1.0-7.0-3.0-2.64","17:58:08","1","","","","","","","<div style='text-align: center;'>
                            <span style=""color: green; font-size: 40px""><b>正确！+1 pts</b></span></div>
                            ","","learn","1","1","1","learn","6","6","[0, 1, 2, 3, 4, 5, 6, 7, 8, 9]","64","21","setsize","3S10A","animals","1","4","6","1",""
"null","null","fixation","html-keyboard-response","228","242575","0.0-1.0-7.0-3.0-0.65","17:58:08","1","","","","","","","fixation","","","","","","","","","","","","","","","","","","",""
"757","0","pic_response","html-keyboard-response","229","243334","0.0-1.0-7.0-3.0-1.65","17:58:08","1","","","","","","","<div>
            <img class='stim' src=""pictures/animals/2.jpg""></div><div class=""button_prompt"">
                    <b>请用数字键0-9回答</b>
                    </div>","","","","","","","","","","","","","","","","","","",""
"757","null","sub_response","html-keyboard-response","230","244337","0.0-1.0-7.0-3.0-2.65","17:58:08","1","","","","","","","<div style='text-align: center;'>
                            <span style=""color: green; font-size: 40px""><b>正确！+1 pts</b></span></div>
                            ","","learn","2","2","2","learn","9","9","[0, 1, 2, 3, 4, 5, 6, 7, 8, 9]","65","21","setsize","3S10A","animals","1","5","9","1",""
"null","null","fixation","html-keyboard-response","231","244840","0.0-1.0-7.0-3.0-0.66","17:58:08","1","","","","","","","fixation","","","","","","","","","","","","","","","","","","",""
"588","0","pic_response","html-keyboard-response","232","245430","0.0-1.0-7.0-3.0-1.66","17:58:08","1","","","","","","","<div>
            <img class='stim' src=""pictures/animals/2.jpg""></div><div class=""button_prompt"">
                    <b>请用数字键0-9回答</b>
                    </div>","","","","","","","","","","","","","","","","","","",""
"588","null","sub_response","html-keyboard-response","233","246431","0.0-1.0-7.0-3.0-2.66","17:58:08","1","","","","","","","<div style='text-align: center;'>
                            <span style=""color: green; font-size: 40px""><b>正确！+1 pts</b></span></div>
                            ","","learn","2","2","2","learn","9","9","[0, 1, 2, 3, 4, 5, 6, 7, 8, 9]","66","22","setsize","3S10A","animals","1","6","9","1",""
"null","null","fixation","html-keyboard-response","234","246932","0.0-1.0-7.0-3.0-0.67","17:58:08","1","","","","","","","fixation","","","","","","","","","","","","","","","","","","",""
"487","3","pic_response","html-keyboard-response","235","247422","0.0-1.0-7.0-3.0-1.67","17:58:08","1","","","","","","","<div>
            <img class='stim' src=""pictures/animals/0.jpg""></div><div class=""button_prompt"">
                    <b>请用数字键0-9回答</b>
                    </div>","","","","","","","","","","","","","","","","","","",""
"487","null","sub_response","html-keyboard-response","236","248425","0.0-1.0-7.0-3.0-2.67","17:58:08","1","","","","","","","<div style='text-align: center;'>
                            <span style=""color: green; font-size: 40px""><b>正确！+1 pts</b></span></div>
                            ","","learn","0","0","0","learn","2","2","[0, 1, 2, 3, 4, 5, 6, 7, 8, 9]","67","22","setsize","3S10A","animals","1","7","2","1",""
"1715"," ","","html-keyboard-response","237","250142","0.0-1.0-8.0","17:58:08","1","","","","","","","<div style=""font-size: 25px""><p>距下一个实验开始还有</p><div style=""font-size: 50px; color: blue""><p><span id=""clock"">1:00</span></div></p><p>按""空格""跳过休息</p></div>","","","","","","","","","","","","","","","","","","",""
"","","","preload","238","251285","0.0-1.0-9.0-0.0","17:58:08","1","true","false","[]","[]","[]","","","","","","","","","","","","","","","","","","","","",""
"2840"," ","","html-keyboard-response","239","254126","0.0-1.0-9.0-1.0","17:58:08","1","","","","","","","<div style='font-size: 32px; text-align: center;'
                    <p>请学习图片和数字之间的对应关系</p>
                    <p>我们将<span style='color: blue'><b> 告诉 </b></span>您选择的对错。请根据反馈学习。</p>
                    <p>请按""空格""继续实验。</p></div>","","","","","","","","","","","","","","","","","","",""
"2727"," ","inst","html-keyboard-response","240","256854","0.0-1.0-9.0-2.0","17:58:08","1","","","","","","","<img class='instruct_stim' src=""instruction/furniture3.PNG""></div>","","","","","","","","","","","","","","","","","","",""
"null","null","fixation","html-keyboard-response","241","257356","0.0-1.0-9.0-3.0-0.0","17:58:08","1","","","","","","","fixation","","","","","","","","","","","","","","","","","","",""
"1034","3","pic_response","html-keyboard-response","242","258391","0.0-1.0-9.0-3.0-1.0","17:58:08","1","","","","","","","<div>
            <img class='stim' src=""pictures/furniture/0.jpg""></div><div class=""button_prompt"">
                        <b>请用数字键1-3回答</b>
                        </div>","","","","","","","","","","","","","","","","","","",""
"1034","null","sub_response","html-keyboard-response","243","259393","0.0-1.0-9.0-3.0-2.0","17:58:08","1","","","","","","","<div style='text-align: center;'>
                            <span style=""color: red; font-size: 40px""><b>错误！+0 pts</b></span></div>
                            ","","learn","0","0","0","learn","0","0","[0, 1, 2]","0","0","setsize","3S3A","furniture","2","0","2","0",""
"null","null","fixation","html-keyboard-response","244","259894","0.0-1.0-9.0-3.0-0.1","17:58:08","1","","","","","","","fixation","","","","","","","","","","","","","","","","","","",""
"1870","1","pic_response","html-keyboard-response","245","261766","0.0-1.0-9.0-3.0-1.1","17:58:08","1","","","","","","","<div>
            <img class='stim' src=""pictures/furniture/1.jpg""></div><div class=""button_prompt"">
                        <b>请用数字键1-3回答</b>
                        </div>","","","","","","","","","","","","","","","","","","",""
"1870","null","sub_response","html-keyboard-response","246","262767","0.0-1.0-9.0-3.0-2.1","17:58:08","1","","","","","","","<div style='text-align: center;'>
                            <span style=""color: green; font-size: 40px""><b>正确！+1 pts</b></span></div>
                            ","","learn","1","1","1","learn","0","0","[0, 1, 2]","1","0","setsize","3S3A","furniture","2","1","0","1",""
"null","null","fixation","html-keyboard-response","247","263269","0.0-1.0-9.0-3.0-0.2","17:58:08","1","","","","","","","fixation","","","","","","","","","","","","","","","","","","",""
"2504","2","pic_response","html-keyboard-response","248","265774","0.0-1.0-9.0-3.0-1.2","17:58:08","1","","","","","","","<div>
            <img class='stim' src=""pictures/furniture/2.jpg""></div><div class=""button_prompt"">
                        <b>请用数字键1-3回答</b>
                        </div>","","","","","","","","","","","","","","","","","","",""
"2504","null","sub_response","html-keyboard-response","249","266777","0.0-1.0-9.0-3.0-2.2","17:58:08","1","","","","","","","<div style='text-align: center;'>
                            <span style=""color: red; font-size: 40px""><b>错误！+0 pts</b></span></div>
                            ","","learn","2","2","2","learn","2","2","[0, 1, 2]","2","0","setsize","3S3A","furniture","2","0","1","0",""
"null","null","fixation","html-keyboard-response","250","267279","0.0-1.0-9.0-3.0-0.3","17:58:08","1","","","","","","","fixation","","","","","","","","","","","","","","","","","","",""
"1110","1","pic_response","html-keyboard-response","251","268390","0.0-1.0-9.0-3.0-1.3","17:58:08","1","","","","","","","<div>
            <img class='stim' src=""pictures/furniture/2.jpg""></div><div class=""button_prompt"">
                        <b>请用数字键1-3回答</b>
                        </div>","","","","","","","","","","","","","","","","","","",""
"1110","null","sub_response","html-keyboard-response","252","269392","0.0-1.0-9.0-3.0-2.3","17:58:08","1","","","","","","","<div style='text-align: center;'>
                            <span style=""color: red; font-size: 40px""><b>错误！+0 pts</b></span></div>
                            ","","learn","2","2","2","learn","2","2","[0, 1, 2]","3","1","setsize","3S3A","furniture","2","0","0","0",""
"null","null","fixation","html-keyboard-response","253","269894","0.0-1.0-9.0-3.0-0.4","17:58:08","1","","","","","","","fixation","","","","","","","","","","","","","","","","","","",""
"671","1","pic_response","html-keyboard-response","254","270566","0.0-1.0-9.0-3.0-1.4","17:58:08","1","","","","","","","<div>
            <img class='stim' src=""pictures/furniture/1.jpg""></div><div class=""button_prompt"">
                        <b>请用数字键1-3回答</b>
                        </div>","","","","","","","","","","","","","","","","","","",""
"671","null","sub_response","html-keyboard-response","255","271568","0.0-1.0-9.0-3.0-2.4","17:58:08","1","","","","","","","<div style='text-align: center;'>
                            <span style=""color: green; font-size: 40px""><b>正确！+1 pts</b></span></div>
                            ","","learn","1","1","1","learn","0","0","[0, 1, 2]","4","1","setsize","3S3A","furniture","2","1","0","1",""
"null","null","fixation","html-keyboard-response","256","272070","0.0-1.0-9.0-3.0-0.5","17:58:08","1","","","","","","","fixation","","","","","","","","","","","","","","","","","","",""
"1087","1","pic_response","html-keyboard-response","257","273158","0.0-1.0-9.0-3.0-1.5","17:58:08","1","","","","","","","<div>
            <img class='stim' src=""pictures/furniture/0.jpg""></div><div class=""button_prompt"">
                        <b>请用数字键1-3回答</b>
                        </div>","","","","","","","","","","","","","","","","","","",""
"1087","null","sub_response","html-keyboard-response","258","274160","0.0-1.0-9.0-3.0-2.5","17:58:08","1","","","","","","","<div style='text-align: center;'>
                            <span style=""color: green; font-size: 40px""><b>正确！+1 pts</b></span></div>
                            ","","learn","0","0","0","learn","0","0","[0, 1, 2]","5","1","setsize","3S3A","furniture","2","2","0","1",""
"null","null","fixation","html-keyboard-response","259","274661","0.0-1.0-9.0-3.0-0.6","17:58:08","1","","","","","","","fixation","","","","","","","","","","","","","","","","","","",""
"1088","1","pic_response","html-keyboard-response","260","275750","0.0-1.0-9.0-3.0-1.6","17:58:08","1","","","","","","","<div>
            <img class='stim' src=""pictures/furniture/1.jpg""></div><div class=""button_prompt"">
                        <b>请用数字键1-3回答</b>
                        </div>","","","","","","","","","","","","","","","","","","",""
"1088","null","sub_response","html-keyboard-response","261","276751","0.0-1.0-9.0-3.0-2.6","17:58:08","1","","","","","","","<div style='text-align: center;'>
                            <span style=""color: green; font-size: 40px""><b>正确！+1 pts</b></span></div>
                            ","","learn","1","1","1","learn","0","0","[0, 1, 2]","6","2","setsize","3S3A","furniture","2","3","0","1",""
"null","null","fixation","html-keyboard-response","262","277253","0.0-1.0-9.0-3.0-0.7","17:58:08","1","","","","","","","fixation","","","","","","","","","","","","","","","","","","",""
"2007","3","pic_response","html-keyboard-response","263","279261","0.0-1.0-9.0-3.0-1.7","17:58:08","1","","","","","","","<div>
            <img class='stim' src=""pictures/furniture/0.jpg""></div><div class=""button_prompt"">
                        <b>请用数字键1-3回答</b>
                        </div>","","","","","","","","","","","","","","","","","","",""
"2007","null","sub_response","html-keyboard-response","264","280263","0.0-1.0-9.0-3.0-2.7","17:58:08","1","","","","","","","<div style='text-align: center;'>
                            <span style=""color: red; font-size: 40px""><b>错误！+0 pts</b></span></div>
                            ","","learn","0","0","0","learn","0","0","[0, 1, 2]","7","2","setsize","3S3A","furniture","2","0","2","0",""
"null","null","fixation","html-keyboard-response","265","280765","0.0-1.0-9.0-3.0-0.8","17:58:08","1","","","","","","","fixation","","","","","","","","","","","","","","","","","","",""
"1024","3","pic_response","html-keyboard-response","266","281790","0.0-1.0-9.0-3.0-1.8","17:58:08","1","","","","","","","<div>
            <img class='stim' src=""pictures/furniture/2.jpg""></div><div class=""button_prompt"">
                        <b>请用数字键1-3回答</b>
                        </div>","","","","","","","","","","","","","","","","","","",""
"1024","null","sub_response","html-keyboard-response","267","282791","0.0-1.0-9.0-3.0-2.8","17:58:08","1","","","","","","","<div style='text-align: center;'>
                            <span style=""color: green; font-size: 40px""><b>正确！+1 pts</b></span></div>
                            ","","learn","2","2","2","learn","2","2","[0, 1, 2]","8","2","setsize","3S3A","furniture","2","1","2","1",""
"null","null","fixation","html-keyboard-response","268","283293","0.0-1.0-9.0-3.0-0.9","17:58:08","1","","","","","","","fixation","","","","","","","","","","","","","","","","","","",""
"656","1","pic_response","html-keyboard-response","269","283950","0.0-1.0-9.0-3.0-1.9","17:58:08","1","","","","","","","<div>
            <img class='stim' src=""pictures/furniture/0.jpg""></div><div class=""button_prompt"">
                        <b>请用数字键1-3回答</b>
                        </div>","","","","","","","","","","","","","","","","","","",""
"656","null","sub_response","html-keyboard-response","270","284951","0.0-1.0-9.0-3.0-2.9","17:58:08","1","","","","","","","<div style='text-align: center;'>
                            <span style=""color: green; font-size: 40px""><b>正确！+1 pts</b></span></div>
                            ","","learn","0","0","0","learn","0","0","[0, 1, 2]","9","3","setsize","3S3A","furniture","2","2","0","1",""
"null","null","fixation","html-keyboard-response","271","285453","0.0-1.0-9.0-3.0-0.10","17:58:08","1","","","","","","","fixation","","","","","","","","","","","","","","","","","","",""
"591","1","pic_response","html-keyboard-response","272","286045","0.0-1.0-9.0-3.0-1.10","17:58:08","1","","","","","","","<div>
            <img class='stim' src=""pictures/furniture/2.jpg""></div><div class=""button_prompt"">
                        <b>请用数字键1-3回答</b>
                        </div>","","","","","","","","","","","","","","","","","","",""
"591","null","sub_response","html-keyboard-response","273","287047","0.0-1.0-9.0-3.0-2.10","17:58:08","1","","","","","","","<div style='text-align: center;'>
                            <span style=""color: red; font-size: 40px""><b>错误！+0 pts</b></span></div>
                            ","","learn","2","2","2","learn","2","2","[0, 1, 2]","10","3","setsize","3S3A","furniture","2","0","0","0",""
"null","null","fixation","html-keyboard-response","274","287549","0.0-1.0-9.0-3.0-0.11","17:58:08","1","","","","","","","fixation","","","","","","","","","","","","","","","","","","",""
"408","1","pic_response","html-keyboard-response","275","287958","0.0-1.0-9.0-3.0-1.11","17:58:08","1","","","","","","","<div>
            <img class='stim' src=""pictures/furniture/1.jpg""></div><div class=""button_prompt"">
                        <b>请用数字键1-3回答</b>
                        </div>","","","","","","","","","","","","","","","","","","",""
"408","null","sub_response","html-keyboard-response","276","288960","0.0-1.0-9.0-3.0-2.11","17:58:08","1","","","","","","","<div style='text-align: center;'>
                            <span style=""color: green; font-size: 40px""><b>正确！+1 pts</b></span></div>
                            ","","learn","1","1","1","learn","0","0","[0, 1, 2]","11","3","setsize","3S3A","furniture","2","1","0","1",""
"null","null","fixation","html-keyboard-response","277","289461","0.0-1.0-9.0-3.0-0.12","17:58:08","1","","","","","","","fixation","","","","","","","","","","","","","","","","","","",""
"624","1","pic_response","html-keyboard-response","278","290087","0.0-1.0-9.0-3.0-1.12","17:58:08","1","","","","","","","<div>
            <img class='stim' src=""pictures/furniture/1.jpg""></div><div class=""button_prompt"">
                        <b>请用数字键1-3回答</b>
                        </div>","","","","","","","","","","","","","","","","","","",""
"624","null","sub_response","html-keyboard-response","279","291089","0.0-1.0-9.0-3.0-2.12","17:58:08","1","","","","","","","<div style='text-align: center;'>
                            <span style=""color: green; font-size: 40px""><b>正确！+1 pts</b></span></div>
                            ","","learn","1","1","1","learn","0","0","[0, 1, 2]","12","4","setsize","3S3A","furniture","2","2","0","1",""
"null","null","fixation","html-keyboard-response","280","291592","0.0-1.0-9.0-3.0-0.13","17:58:08","1","","","","","","","fixation","","","","","","","","","","","","","","","","","","",""
"1437","1","pic_response","html-keyboard-response","281","293030","0.0-1.0-9.0-3.0-1.13","17:58:08","1","","","","","","","<div>
            <img class='stim' src=""pictures/furniture/0.jpg""></div><div class=""button_prompt"">
                        <b>请用数字键1-3回答</b>
                        </div>","","","","","","","","","","","","","","","","","","",""
"1437","null","sub_response","html-keyboard-response","282","294031","0.0-1.0-9.0-3.0-2.13","17:58:08","1","","","","","","","<div style='text-align: center;'>
                            <span style=""color: green; font-size: 40px""><b>正确！+1 pts</b></span></div>
                            ","","learn","0","0","0","learn","0","0","[0, 1, 2]","13","4","setsize","3S3A","furniture","2","3","0","1",""
"null","null","fixation","html-keyboard-response","283","294532","0.0-1.0-9.0-3.0-0.14","17:58:08","1","","","","","","","fixation","","","","","","","","","","","","","","","","","","",""
"312","3","pic_response","html-keyboard-response","284","294846","0.0-1.0-9.0-3.0-1.14","17:58:08","1","","","","","","","<div>
            <img class='stim' src=""pictures/furniture/2.jpg""></div><div class=""button_prompt"">
                        <b>请用数字键1-3回答</b>
                        </div>","","","","","","","","","","","","","","","","","","",""
"312","null","sub_response","html-keyboard-response","285","295848","0.0-1.0-9.0-3.0-2.14","17:58:08","1","","","","","","","<div style='text-align: center;'>
                            <span style=""color: green; font-size: 40px""><b>正确！+1 pts</b></span></div>
                            ","","learn","2","2","2","learn","2","2","[0, 1, 2]","14","4","setsize","3S3A","furniture","2","4","2","1",""
"null","null","fixation","html-keyboard-response","286","296350","0.0-1.0-9.0-3.0-0.15","17:58:08","1","","","","","","","fixation","","","","","","","","","","","","","","","","","","",""
"599","3","pic_response","html-keyboard-response","287","296950","0.0-1.0-9.0-3.0-1.15","17:58:08","1","","","","","","","<div>
            <img class='stim' src=""pictures/furniture/2.jpg""></div><div class=""button_prompt"">
                        <b>请用数字键1-3回答</b>
                        </div>","","","","","","","","","","","","","","","","","","",""
"599","null","sub_response","html-keyboard-response","288","297952","0.0-1.0-9.0-3.0-2.15","17:58:08","1","","","","","","","<div style='text-align: center;'>
                            <span style=""color: green; font-size: 40px""><b>正确！+1 pts</b></span></div>
                            ","","learn","2","2","2","learn","2","2","[0, 1, 2]","15","5","setsize","3S3A","furniture","2","5","2","1",""
"null","null","fixation","html-keyboard-response","289","298454","0.0-1.0-9.0-3.0-0.16","17:58:08","1","","","","","","","fixation","","","","","","","","","","","","","","","","","","",""
"519","1","pic_response","html-keyboard-response","290","298974","0.0-1.0-9.0-3.0-1.16","17:58:08","1","","","","","","","<div>
            <img class='stim' src=""pictures/furniture/0.jpg""></div><div class=""button_prompt"">
                        <b>请用数字键1-3回答</b>
                        </div>","","","","","","","","","","","","","","","","","","",""
"519","null","sub_response","html-keyboard-response","291","299976","0.0-1.0-9.0-3.0-2.16","17:58:08","1","","","","","","","<div style='text-align: center;'>
                            <span style=""color: green; font-size: 40px""><b>正确！+1 pts</b></span></div>
                            ","","learn","0","0","0","learn","0","0","[0, 1, 2]","16","5","setsize","3S3A","furniture","2","6","0","1",""
"null","null","fixation","html-keyboard-response","292","300479","0.0-1.0-9.0-3.0-0.17","17:58:08","1","","","","","","","fixation","","","","","","","","","","","","","","","","","","",""
"374","1","pic_response","html-keyboard-response","293","300854","0.0-1.0-9.0-3.0-1.17","17:58:08","1","","","","","","","<div>
            <img class='stim' src=""pictures/furniture/1.jpg""></div><div class=""button_prompt"">
                        <b>请用数字键1-3回答</b>
                        </div>","","","","","","","","","","","","","","","","","","",""
"374","null","sub_response","html-keyboard-response","294","301855","0.0-1.0-9.0-3.0-2.17","17:58:08","1","","","","","","","<div style='text-align: center;'>
                            <span style=""color: green; font-size: 40px""><b>正确！+1 pts</b></span></div>
                            ","","learn","1","1","1","learn","0","0","[0, 1, 2]","17","5","setsize","3S3A","furniture","2","7","0","1",""
"null","null","fixation","html-keyboard-response","295","302356","0.0-1.0-9.0-3.0-0.18","17:58:08","1","","","","","","","fixation","","","","","","","","","","","","","","","","","","",""
"496","1","pic_response","html-keyboard-response","296","302854","0.0-1.0-9.0-3.0-1.18","17:58:08","1","","","","","","","<div>
            <img class='stim' src=""pictures/furniture/1.jpg""></div><div class=""button_prompt"">
                        <b>请用数字键1-3回答</b>
                        </div>","","","","","","","","","","","","","","","","","","",""
"496","null","sub_response","html-keyboard-response","297","303855","0.0-1.0-9.0-3.0-2.18","17:58:08","1","","","","","","","<div style='text-align: center;'>
                            <span style=""color: green; font-size: 40px""><b>正确！+1 pts</b></span></div>
                            ","","learn","1","1","1","learn","0","0","[0, 1, 2]","18","6","setsize","3S3A","furniture","2","8","0","1",""
"null","null","fixation","html-keyboard-response","298","304357","0.0-1.0-9.0-3.0-0.19","17:58:08","1","","","","","","","fixation","","","","","","","","","","","","","","","","","","",""
"494","1","pic_response","html-keyboard-response","299","304854","0.0-1.0-9.0-3.0-1.19","17:58:08","1","","","","","","","<div>
            <img class='stim' src=""pictures/furniture/0.jpg""></div><div class=""button_prompt"">
                        <b>请用数字键1-3回答</b>
                        </div>","","","","","","","","","","","","","","","","","","",""
"494","null","sub_response","html-keyboard-response","300","305857","0.0-1.0-9.0-3.0-2.19","17:58:08","1","","","","","","","<div style='text-align: center;'>
                            <span style=""color: green; font-size: 40px""><b>正确！+1 pts</b></span></div>
                            ","","learn","0","0","0","learn","0","0","[0, 1, 2]","19","6","setsize","3S3A","furniture","2","9","0","1",""
"null","null","fixation","html-keyboard-response","301","306360","0.0-1.0-9.0-3.0-0.20","17:58:08","1","","","","","","","fixation","","","","","","","","","","","","","","","","","","",""
"436","3","pic_response","html-keyboard-response","302","306798","0.0-1.0-9.0-3.0-1.20","17:58:08","1","","","","","","","<div>
            <img class='stim' src=""pictures/furniture/2.jpg""></div><div class=""button_prompt"">
                        <b>请用数字键1-3回答</b>
                        </div>","","","","","","","","","","","","","","","","","","",""
"436","null","sub_response","html-keyboard-response","303","307799","0.0-1.0-9.0-3.0-2.20","17:58:08","1","","","","","","","<div style='text-align: center;'>
                            <span style=""color: green; font-size: 40px""><b>正确！+1 pts</b></span></div>
                            ","","learn","2","2","2","learn","2","2","[0, 1, 2]","20","6","setsize","3S3A","furniture","2","10","2","1",""
"null","null","fixation","html-keyboard-response","304","308300","0.0-1.0-9.0-3.0-0.21","17:58:08","1","","","","","","","fixation","","","","","","","","","","","","","","","","","","",""
"840","1","pic_response","html-keyboard-response","305","309142","0.0-1.0-9.0-3.0-1.21","17:58:08","1","","","","","","","<div>
            <img class='stim' src=""pictures/furniture/0.jpg""></div><div class=""button_prompt"">
                        <b>请用数字键1-3回答</b>
                        </div>","","","","","","","","","","","","","","","","","","",""
"840","null","sub_response","html-keyboard-response","306","310144","0.0-1.0-9.0-3.0-2.21","17:58:08","1","","","","","","","<div style='text-align: center;'>
                            <span style=""color: green; font-size: 40px""><b>正确！+1 pts</b></span></div>
                            ","","learn","0","0","0","learn","0","0","[0, 1, 2]","21","7","setsize","3S3A","furniture","2","11","0","1",""
"null","null","fixation","html-keyboard-response","307","310645","0.0-1.0-9.0-3.0-0.22","17:58:08","1","","","","","","","fixation","","","","","","","","","","","","","","","","","","",""
"551","1","pic_response","html-keyboard-response","308","311199","0.0-1.0-9.0-3.0-1.22","17:58:08","1","","","","","","","<div>
            <img class='stim' src=""pictures/furniture/1.jpg""></div><div class=""button_prompt"">
                        <b>请用数字键1-3回答</b>
                        </div>","","","","","","","","","","","","","","","","","","",""
"551","null","sub_response","html-keyboard-response","309","312202","0.0-1.0-9.0-3.0-2.22","17:58:08","1","","","","","","","<div style='text-align: center;'>
                            <span style=""color: green; font-size: 40px""><b>正确！+1 pts</b></span></div>
                            ","","learn","1","1","1","learn","0","0","[0, 1, 2]","22","7","setsize","3S3A","furniture","2","12","0","1",""
"null","null","fixation","html-keyboard-response","310","312704","0.0-1.0-9.0-3.0-0.23","17:58:08","1","","","","","","","fixation","","","","","","","","","","","","","","","","","","",""
"581","3","pic_response","html-keyboard-response","311","313286","0.0-1.0-9.0-3.0-1.23","17:58:08","1","","","","","","","<div>
            <img class='stim' src=""pictures/furniture/2.jpg""></div><div class=""button_prompt"">
                        <b>请用数字键1-3回答</b>
                        </div>","","","","","","","","","","","","","","","","","","",""
"581","null","sub_response","html-keyboard-response","312","314288","0.0-1.0-9.0-3.0-2.23","17:58:08","1","","","","","","","<div style='text-align: center;'>
                            <span style=""color: green; font-size: 40px""><b>正确！+1 pts</b></span></div>
                            ","","learn","2","2","2","learn","2","2","[0, 1, 2]","23","7","setsize","3S3A","furniture","2","13","2","1",""
"null","null","fixation","html-keyboard-response","313","314790","0.0-1.0-9.0-3.0-0.24","17:58:08","1","","","","","","","fixation","","","","","","","","","","","","","","","","","","",""
"558","1","pic_response","html-keyboard-response","314","315350","0.0-1.0-9.0-3.0-1.24","17:58:08","1","","","","","","","<div>
            <img class='stim' src=""pictures/furniture/1.jpg""></div><div class=""button_prompt"">
                        <b>请用数字键1-3回答</b>
                        </div>","","","","","","","","","","","","","","","","","","",""
"558","null","sub_response","html-keyboard-response","315","316351","0.0-1.0-9.0-3.0-2.24","17:58:08","1","","","","","","","<div style='text-align: center;'>
                            <span style=""color: green; font-size: 40px""><b>正确！+1 pts</b></span></div>
                            ","","learn","1","1","1","learn","0","0","[0, 1, 2]","24","8","setsize","3S3A","furniture","2","14","0","1",""
"null","null","fixation","html-keyboard-response","316","316853","0.0-1.0-9.0-3.0-0.25","17:58:08","1","","","","","","","fixation","","","","","","","","","","","","","","","","","","",""
"1847","3","pic_response","html-keyboard-response","317","318702","0.0-1.0-9.0-3.0-1.25","17:58:08","1","","","","","","","<div>
