"rt","response","screen_id","trial_type","trial_index","time_elapsed","internal_node_id","start_time","n_Prac","success","timeout","failed_images","failed_audio","failed_video","view_history","stimulus","question_order","stage","s","word","word_id","phase","a_cor","a_real","a_ava","trial","tps","task_type","block_typ","pic_typ","block_id","cum_r","a","r","plugin_name"
"33884","{""sub_id"":""018"",""task_type"":""task1"",""name"":""邓烨敏"",""gender"":""F""}","basic_info","survey-html-form","0","33890","0.0-0.0","11:00:07","2","","","","","","","","","","","","","","","","","","","","","","","","","",""
"","","","preload","1","36199","0.0-1.0-0.0","11:00:07","2","true","false","[]","[]","[]","","","","","","","","","","","","","","","","","","","","",""
"","","","preload","2","36567","0.0-1.0-1.0","11:00:07","2","true","false","[]","[]","[]","","","","","","","","","","","","","","","","","","","","",""
"","","","fullscreen","3","61912","0.0-1.0-2.0","11:00:07","2","true","","","","","","","","","","","","","","","","","","","","","","","","",""
"29994","","instruct","instructions","4","91908","0.0-1.0-3.0-0.0","11:00:07","2","","","","","","[{""page_index"":0,""viewing_time"":9076},{""page_index"":1,""viewing_time"":15830},{""page_index"":2,""viewing_time"":5087}]","","","","","","","","","","","","","","","","","","","",""
"37247","{""Q0"":"""",""task1"":""<span style='font-size: 24px'>学习图片和数字的对应关系</span>"",""task2"":""<span style='font-size: 24px'> 图片下方标注为可用的数字键（数字键1-3或0-9） </span>"",""task3"":""<span style='font-size: 24px'> 看到图片选出正确对应的数字 </span>""}","question","survey-multi-choice","5","129157","0.0-1.0-3.0-1.0","11:00:07","2","","","","","","","","[0,1,2,3]","","","","","","","","","","","","","","","","","",""
"1910"," ","inst_q","html-keyboard-response","6","131073","0.0-1.0-3.0-2.0","11:00:07","2","","","","","","","inst","","1","","","","","","","","","","","","","","","","",""
"","","","preload","7","131534","0.0-1.0-4.0-0.0","11:00:07","2","true","false","[]","[]","[]","","","","","","","","","","","","","","","","","","","","",""
"2681"," ","","html-keyboard-response","8","134216","0.0-1.0-4.0-1.0","11:00:07","2","","","","","","","<div style='font-size: 32px; text-align: center;'
                    <p>请学习图片和数字之间的对应关系</p>
                    <p>我们将<span style='color: blue'><b> 告诉 </b></span>您选择的对错。请根据反馈学习。</p>
                    <p>请按""空格""继续实验。</p></div>","","","","","","","","","","","","","","","","","","",""
"13336"," ","inst","html-keyboard-response","9","147552","0.0-1.0-4.0-2.0","11:00:07","2","","","","","","","<img class='instruct_stim' src=""instruction/prac3.PNG""></div>","","","","","","","","","","","","","","","","","","",""
"null","null","fixation","html-keyboard-response","10","148058","0.0-1.0-4.0-3.0-0.0","11:00:07","2","","","","","","","fixation","","","","","","","","","","","","","","","","","","",""
"1244","1","pic_response","html-keyboard-response","11","149304","0.0-1.0-4.0-3.0-1.0","11:00:07","2","","","","","","","<div>
            <img class='stim' src=""pictures/prac/0.jpg""></div><div class=""button_prompt"">
                        <b>请用数字键1-3回答</b>
                        </div>","","","","","","","","","","","","","","","","","","",""
"1244","null","sub_response","html-keyboard-response","12","150306","0.0-1.0-4.0-3.0-2.0","11:00:07","2","","","","","","","<div style='text-align: center;'>
                            <span style=""color: green; font-size: 40px""><b>正确！+1 pts</b></span></div>
                            ","","learn","0","0","0","learn","0","0","[0, 1, 2]","0","0","setsize","99","prac","0","1","0","1",""
"null","null","fixation","html-keyboard-response","13","150815","0.0-1.0-4.0-3.0-0.1","11:00:07","2","","","","","","","fixation","","","","","","","","","","","","","","","","","","",""
"888","1","pic_response","html-keyboard-response","14","151704","0.0-1.0-4.0-3.0-1.1","11:00:07","2","","","","","","","<div>
            <img class='stim' src=""pictures/prac/2.jpg""></div><div class=""button_prompt"">
                        <b>请用数字键1-3回答</b>
                        </div>","","","","","","","","","","","","","","","","","","",""
"888","null","sub_response","html-keyboard-response","15","152705","0.0-1.0-4.0-3.0-2.1","11:00:07","2","","","","","","","<div style='text-align: center;'>
                            <span style=""color: red; font-size: 40px""><b>错误！+0 pts</b></span></div>
                            ","","learn","2","2","2","learn","2","2","[0, 1, 2]","1","0","setsize","99","prac","0","0","0","0",""
"null","null","fixation","html-keyboard-response","16","153209","0.0-1.0-4.0-3.0-0.2","11:00:07","2","","","","","","","fixation","","","","","","","","","","","","","","","","","","",""
"870","1","pic_response","html-keyboard-response","17","154080","0.0-1.0-4.0-3.0-1.2","11:00:07","2","","","","","","","<div>
            <img class='stim' src=""pictures/prac/1.jpg""></div><div class=""button_prompt"">
                        <b>请用数字键1-3回答</b>
                        </div>","","","","","","","","","","","","","","","","","","",""
"870","null","sub_response","html-keyboard-response","18","155085","0.0-1.0-4.0-3.0-2.2","11:00:07","2","","","","","","","<div style='text-align: center;'>
                            <span style=""color: green; font-size: 40px""><b>正确！+1 pts</b></span></div>
                            ","","learn","1","1","1","learn","0","0","[0, 1, 2]","2","0","setsize","99","prac","0","1","0","1",""
"null","null","fixation","html-keyboard-response","19","155590","0.0-1.0-4.0-3.0-0.3","11:00:07","2","","","","","","","fixation","","","","","","","","","","","","","","","","","","",""
"745","2","pic_response","html-keyboard-response","20","156336","0.0-1.0-4.0-3.0-1.3","11:00:07","2","","","","","","","<div>
            <img class='stim' src=""pictures/prac/2.jpg""></div><div class=""button_prompt"">
                        <b>请用数字键1-3回答</b>
                        </div>","","","","","","","","","","","","","","","","","","",""
"745","null","sub_response","html-keyboard-response","21","157338","0.0-1.0-4.0-3.0-2.3","11:00:07","2","","","","","","","<div style='text-align: center;'>
                            <span style=""color: red; font-size: 40px""><b>错误！+0 pts</b></span></div>
                            ","","learn","2","2","2","learn","2","2","[0, 1, 2]","3","1","setsize","99","prac","0","0","1","0",""
"null","null","fixation","html-keyboard-response","22","157842","0.0-1.0-4.0-3.0-0.4","11:00:07","2","","","","","","","fixation","","","","","","","","","","","","","","","","","","",""
"805","1","pic_response","html-keyboard-response","23","158648","0.0-1.0-4.0-3.0-1.4","11:00:07","2","","","","","","","<div>
            <img class='stim' src=""pictures/prac/0.jpg""></div><div class=""button_prompt"">
                        <b>请用数字键1-3回答</b>
                        </div>","","","","","","","","","","","","","","","","","","",""
"805","null","sub_response","html-keyboard-response","24","159661","0.0-1.0-4.0-3.0-2.4","11:00:07","2","","","","","","","<div style='text-align: center;'>
                            <span style=""color: green; font-size: 40px""><b>正确！+1 pts</b></span></div>
                            ","","learn","0","0","0","learn","0","0","[0, 1, 2]","4","1","setsize","99","prac","0","1","0","1",""
"null","null","fixation","html-keyboard-response","25","160163","0.0-1.0-4.0-3.0-0.5","11:00:07","2","","","","","","","fixation","","","","","","","","","","","","","","","","","","",""
"595","1","pic_response","html-keyboard-response","26","160760","0.0-1.0-4.0-3.0-1.5","11:00:07","2","","","","","","","<div>
            <img class='stim' src=""pictures/prac/1.jpg""></div><div class=""button_prompt"">
                        <b>请用数字键1-3回答</b>
                        </div>","","","","","","","","","","","","","","","","","","",""
"595","null","sub_response","html-keyboard-response","27","161762","0.0-1.0-4.0-3.0-2.5","11:00:07","2","","","","","","","<div style='text-align: center;'>
                            <span style=""color: green; font-size: 40px""><b>正确！+1 pts</b></span></div>
                            ","","learn","1","1","1","learn","0","0","[0, 1, 2]","5","1","setsize","99","prac","0","2","0","1",""
"","","","preload","28","161768","0.0-1.0-4.1-0.1","11:00:07","2","true","false","[]","[]","[]","","","","","","","","","","","","","","","","","","","","",""
"2032"," ","","html-keyboard-response","29","163800","0.0-1.0-4.1-1.1","11:00:07","2","","","","","","","<div style='font-size: 32px; text-align: center;'
                    <p>请学习图片和数字之间的对应关系</p>
                    <p>我们将<span style='color: blue'><b> 告诉 </b></span>您选择的对错。请根据反馈学习。</p>
                    <p>请按""空格""继续实验。</p></div>","","","","","","","","","","","","","","","","","","",""
"3527"," ","inst","html-keyboard-response","30","167328","0.0-1.0-4.1-2.1","11:00:07","2","","","","","","","<img class='instruct_stim' src=""instruction/prac3.PNG""></div>","","","","","","","","","","","","","","","","","","",""
"null","null","fixation","html-keyboard-response","31","167833","0.0-1.0-4.1-3.1-0.6","11:00:07","2","","","","","","","fixation","","","","","","","","","","","","","","","","","","",""
"1686","1","pic_response","html-keyboard-response","32","169520","0.0-1.0-4.1-3.1-1.6","11:00:07","2","","","","","","","<div>
            <img class='stim' src=""pictures/prac/0.jpg""></div><div class=""button_prompt"">
                        <b>请用数字键1-3回答</b>
                        </div>","","","","","","","","","","","","","","","","","","",""
"1686","null","sub_response","html-keyboard-response","33","170522","0.0-1.0-4.1-3.1-2.6","11:00:07","2","","","","","","","<div style='text-align: center;'>
                            <span style=""color: green; font-size: 40px""><b>正确！+1 pts</b></span></div>
                            ","","learn","0","0","0","learn","0","0","[0, 1, 2]","0","0","setsize","99","prac","0","3","0","1",""
"null","null","fixation","html-keyboard-response","34","171026","0.0-1.0-4.1-3.1-0.7","11:00:07","2","","","","","","","fixation","","","","","","","","","","","","","","","","","","",""
"964","2","pic_response","html-keyboard-response","35","171990","0.0-1.0-4.1-3.1-1.7","11:00:07","2","","","","","","","<div>
            <img class='stim' src=""pictures/prac/2.jpg""></div><div class=""button_prompt"">
                        <b>请用数字键1-3回答</b>
                        </div>","","","","","","","","","","","","","","","","","","",""
"964","null","sub_response","html-keyboard-response","36","172995","0.0-1.0-4.1-3.1-2.7","11:00:07","2","","","","","","","<div style='text-align: center;'>
                            <span style=""color: red; font-size: 40px""><b>错误！+0 pts</b></span></div>
                            ","","learn","2","2","2","learn","2","2","[0, 1, 2]","1","0","setsize","99","prac","0","0","1","0",""
"null","null","fixation","html-keyboard-response","37","173506","0.0-1.0-4.1-3.1-0.8","11:00:07","2","","","","","","","fixation","","","","","","","","","","","","","","","","","","",""
"941","1","pic_response","html-keyboard-response","38","174448","0.0-1.0-4.1-3.1-1.8","11:00:07","2","","","","","","","<div>
            <img class='stim' src=""pictures/prac/1.jpg""></div><div class=""button_prompt"">
                        <b>请用数字键1-3回答</b>
                        </div>","","","","","","","","","","","","","","","","","","",""
"941","null","sub_response","html-keyboard-response","39","175461","0.0-1.0-4.1-3.1-2.8","11:00:07","2","","","","","","","<div style='text-align: center;'>
                            <span style=""color: green; font-size: 40px""><b>正确！+1 pts</b></span></div>
                            ","","learn","1","1","1","learn","0","0","[0, 1, 2]","2","0","setsize","99","prac","0","1","0","1",""
"null","null","fixation","html-keyboard-response","40","175966","0.0-1.0-4.1-3.1-0.9","11:00:07","2","","","","","","","fixation","","","","","","","","","","","","","","","","","","",""
"497","3","pic_response","html-keyboard-response","41","176464","0.0-1.0-4.1-3.1-1.9","11:00:07","2","","","","","","","<div>
            <img class='stim' src=""pictures/prac/2.jpg""></div><div class=""button_prompt"">
                        <b>请用数字键1-3回答</b>
                        </div>","","","","","","","","","","","","","","","","","","",""
"497","null","sub_response","html-keyboard-response","42","177467","0.0-1.0-4.1-3.1-2.9","11:00:07","2","","","","","","","<div style='text-align: center;'>
                            <span style=""color: green; font-size: 40px""><b>正确！+1 pts</b></span></div>
                            ","","learn","2","2","2","learn","2","2","[0, 1, 2]","3","1","setsize","99","prac","0","2","2","1",""
"null","null","fixation","html-keyboard-response","43","177971","0.0-1.0-4.1-3.1-0.10","11:00:07","2","","","","","","","fixation","","","","","","","","","","","","","","","","","","",""
"476","1","pic_response","html-keyboard-response","44","178448","0.0-1.0-4.1-3.1-1.10","11:00:07","2","","","","","","","<div>
            <img class='stim' src=""pictures/prac/0.jpg""></div><div class=""button_prompt"">
                        <b>请用数字键1-3回答</b>
                        </div>","","","","","","","","","","","","","","","","","","",""
"476","null","sub_response","html-keyboard-response","45","179450","0.0-1.0-4.1-3.1-2.10","11:00:07","2","","","","","","","<div style='text-align: center;'>
                            <span style=""color: green; font-size: 40px""><b>正确！+1 pts</b></span></div>
                            ","","learn","0","0","0","learn","0","0","[0, 1, 2]","4","1","setsize","99","prac","0","3","0","1",""
"null","null","fixation","html-keyboard-response","46","179955","0.0-1.0-4.1-3.1-0.11","11:00:07","2","","","","","","","fixation","","","","","","","","","","","","","","","","","","",""
"547","1","pic_response","html-keyboard-response","47","180504","0.0-1.0-4.1-3.1-1.11","11:00:07","2","","","","","","","<div>
            <img class='stim' src=""pictures/prac/1.jpg""></div><div class=""button_prompt"">
                        <b>请用数字键1-3回答</b>
                        </div>","","","","","","","","","","","","","","","","","","",""
"547","null","sub_response","html-keyboard-response","48","181508","0.0-1.0-4.1-3.1-2.11","11:00:07","2","","","","","","","<div style='text-align: center;'>
                            <span style=""color: green; font-size: 40px""><b>正确！+1 pts</b></span></div>
                            ","","learn","1","1","1","learn","0","0","[0, 1, 2]","5","1","setsize","99","prac","0","4","0","1",""
"35511"," ","","html-keyboard-response","49","217018","0.0-1.0-5.0","11:00:07","2","","","","","","","<div style=""font-size: 25px""><p>距下一个实验开始还有</p><div style=""font-size: 50px; color: blue""><p><span id=""clock"">1:00</span></div></p><p>按""空格""跳过休息</p></div>","","","","","","","","","","","","","","","","","","",""
"1034"," ","","html-keyboard-response","50","218054","0.0-1.0-6.0","11:00:07","2","","","","","","","<div style='font-size: 32px; text-align: center;'
                    <p>请按""空格""继续正式实验。</p></div>","","","","","","","","","","","","","","","","","","",""
"","","","preload","51","218761","0.0-1.0-7.0-0.0","11:00:07","2","true","false","[]","[]","[]","","","","","","","","","","","","","","","","","","","","",""
"1318"," ","","html-keyboard-response","52","220080","0.0-1.0-7.0-1.0","11:00:07","2","","","","","","","<div style='font-size: 32px; text-align: center;'
                    <p>请学习图片和数字之间的对应关系</p>
                    <p>我们将<span style='color: blue'><b> 告诉 </b></span>您选择的对错。请根据反馈学习。</p>
                    <p>请按""空格""继续实验。</p></div>","","","","","","","","","","","","","","","","","","",""
"1791"," ","inst","html-keyboard-response","53","221872","0.0-1.0-7.0-2.0","11:00:07","2","","","","","","","<img class='instruct_stim' src=""instruction/sports3.PNG""></div>","","","","","","","","","","","","","","","","","","",""
"null","null","fixation","html-keyboard-response","54","222376","0.0-1.0-7.0-3.0-0.0","11:00:07","2","","","","","","","fixation","","","","","","","","","","","","","","","","","","",""
"1702","0","pic_response","html-keyboard-response","55","224078","0.0-1.0-7.0-3.0-1.0","11:00:07","2","","","","","","","<div>
            <img class='stim' src=""pictures/sports/1.jpg""></div><div class=""button_prompt"">
                    <b>请用数字键0-9回答</b>
                    </div>","","","","","","","","","","","","","","","","","","",""
"1702","null","sub_response","html-keyboard-response","56","225082","0.0-1.0-7.0-3.0-2.0","11:00:07","2","","","","","","","<div style='text-align: center;'>
                            <span style=""color: red; font-size: 40px""><b>错误！+0 pts</b></span></div>
                            ","","learn","1","1","1","learn","6","6","[0, 1, 2, 3, 4, 5, 6, 7, 8, 9]","0","0","setsize","3S10A","sports","1","0","9","0",""
"null","null","fixation","html-keyboard-response","57","225586","0.0-1.0-7.0-3.0-0.1","11:00:07","2","","","","","","","fixation","","","","","","","","","","","","","","","","","","",""
"1414","0","pic_response","html-keyboard-response","58","227001","0.0-1.0-7.0-3.0-1.1","11:00:07","2","","","","","","","<div>
            <img class='stim' src=""pictures/sports/2.jpg""></div><div class=""button_prompt"">
                    <b>请用数字键0-9回答</b>
                    </div>","","","","","","","","","","","","","","","","","","",""
"1414","null","sub_response","html-keyboard-response","59","228006","0.0-1.0-7.0-3.0-2.1","11:00:07","2","","","","","","","<div style='text-align: center;'>
                            <span style=""color: green; font-size: 40px""><b>正确！+1 pts</b></span></div>
                            ","","learn","2","2","2","learn","9","9","[0, 1, 2, 3, 4, 5, 6, 7, 8, 9]","1","0","setsize","3S10A","sports","1","1","9","1",""
"null","null","fixation","html-keyboard-response","60","228509","0.0-1.0-7.0-3.0-0.2","11:00:07","2","","","","","","","fixation","","","","","","","","","","","","","","","","","","",""
"1016","0","pic_response","html-keyboard-response","61","229526","0.0-1.0-7.0-3.0-1.2","11:00:07","2","","","","","","","<div>
            <img class='stim' src=""pictures/sports/0.jpg""></div><div class=""button_prompt"">
                    <b>请用数字键0-9回答</b>
                    </div>","","","","","","","","","","","","","","","","","","",""
"1016","null","sub_response","html-keyboard-response","62","230529","0.0-1.0-7.0-3.0-2.2","11:00:07","2","","","","","","","<div style='text-align: center;'>
                            <span style=""color: red; font-size: 40px""><b>错误！+0 pts</b></span></div>
                            ","","learn","0","0","0","learn","2","2","[0, 1, 2, 3, 4, 5, 6, 7, 8, 9]","2","0","setsize","3S10A","sports","1","0","9","0",""
"null","null","fixation","html-keyboard-response","63","231033","0.0-1.0-7.0-3.0-0.3","11:00:07","2","","","","","","","fixation","","","","","","","","","","","","","","","","","","",""
"580","1","pic_response","html-keyboard-response","64","231614","0.0-1.0-7.0-3.0-1.3","11:00:07","2","","","","","","","<div>
            <img class='stim' src=""pictures/sports/1.jpg""></div><div class=""button_prompt"">
                    <b>请用数字键0-9回答</b>
                    </div>","","","","","","","","","","","","","","","","","","",""
"580","null","sub_response","html-keyboard-response","65","232615","0.0-1.0-7.0-3.0-2.3","11:00:07","2","","","","","","","<div style='text-align: center;'>
                            <span style=""color: red; font-size: 40px""><b>错误！+0 pts</b></span></div>
                            ","","learn","1","1","1","learn","6","6","[0, 1, 2, 3, 4, 5, 6, 7, 8, 9]","3","1","setsize","3S10A","sports","1","0","0","0",""
"null","null","fixation","html-keyboard-response","66","233117","0.0-1.0-7.0-3.0-0.4","11:00:07","2","","","","","","","fixation","","","","","","","","","","","","","","","","","","",""
"1001","0","pic_response","html-keyboard-response","67","234119","0.0-1.0-7.0-3.0-1.4","11:00:07","2","","","","","","","<div>
            <img class='stim' src=""pictures/sports/2.jpg""></div><div class=""button_prompt"">
                    <b>请用数字键0-9回答</b>
                    </div>","","","","","","","","","","","","","","","","","","",""
"1001","null","sub_response","html-keyboard-response","68","235122","0.0-1.0-7.0-3.0-2.4","11:00:07","2","","","","","","","<div style='text-align: center;'>
                            <span style=""color: green; font-size: 40px""><b>正确！+1 pts</b></span></div>
                            ","","learn","2","2","2","learn","9","9","[0, 1, 2, 3, 4, 5, 6, 7, 8, 9]","4","1","setsize","3S10A","sports","1","1","9","1",""
"null","null","fixation","html-keyboard-response","69","235627","0.0-1.0-7.0-3.0-0.5","11:00:07","2","","","","","","","fixation","","","","","","","","","","","","","","","","","","",""
"786","2","pic_response","html-keyboard-response","70","236414","0.0-1.0-7.0-3.0-1.5","11:00:07","2","","","","","","","<div>
            <img class='stim' src=""pictures/sports/0.jpg""></div><div class=""button_prompt"">
                    <b>请用数字键0-9回答</b>
                    </div>","","","","","","","","","","","","","","","","","","",""
"786","null","sub_response","html-keyboard-response","71","237416","0.0-1.0-7.0-3.0-2.5","11:00:07","2","","","","","","","<div style='text-align: center;'>
                            <span style=""color: red; font-size: 40px""><b>错误！+0 pts</b></span></div>
                            ","","learn","0","0","0","learn","2","2","[0, 1, 2, 3, 4, 5, 6, 7, 8, 9]","5","1","setsize","3S10A","sports","1","0","1","0",""
"null","null","fixation","html-keyboard-response","72","237933","0.0-1.0-7.0-3.0-0.6","11:00:07","2","","","","","","","fixation","","","","","","","","","","","","","","","","","","",""
"866","0","pic_response","html-keyboard-response","73","238800","0.0-1.0-7.0-3.0-1.6","11:00:07","2","","","","","","","<div>
            <img class='stim' src=""pictures/sports/2.jpg""></div><div class=""button_prompt"">
                    <b>请用数字键0-9回答</b>
                    </div>","","","","","","","","","","","","","","","","","","",""
"866","null","sub_response","html-keyboard-response","74","239815","0.0-1.0-7.0-3.0-2.6","11:00:07","2","","","","","","","<div style='text-align: center;'>
                            <span style=""color: green; font-size: 40px""><b>正确！+1 pts</b></span></div>
                            ","","learn","2","2","2","learn","9","9","[0, 1, 2, 3, 4, 5, 6, 7, 8, 9]","6","2","setsize","3S10A","sports","1","1","9","1",""
"null","null","fixation","html-keyboard-response","75","240318","0.0-1.0-7.0-3.0-0.7","11:00:07","2","","","","","","","fixation","","","","","","","","","","","","","","","","","","",""
"601","3","pic_response","html-keyboard-response","76","240920","0.0-1.0-7.0-3.0-1.7","11:00:07","2","","","","","","","<div>
            <img class='stim' src=""pictures/sports/0.jpg""></div><div class=""button_prompt"">
                    <b>请用数字键0-9回答</b>
                    </div>","","","","","","","","","","","","","","","","","","",""
"601","null","sub_response","html-keyboard-response","77","241921","0.0-1.0-7.0-3.0-2.7","11:00:07","2","","","","","","","<div style='text-align: center;'>
                            <span style=""color: green; font-size: 40px""><b>正确！+1 pts</b></span></div>
                            ","","learn","0","0","0","learn","2","2","[0, 1, 2, 3, 4, 5, 6, 7, 8, 9]","7","2","setsize","3S10A","sports","1","2","2","1",""
"null","null","fixation","html-keyboard-response","78","242423","0.0-1.0-7.0-3.0-0.8","11:00:07","2","","","","","","","fixation","","","","","","","","","","","","","","","","","","",""
"1950","3","pic_response","html-keyboard-response","79","244374","0.0-1.0-7.0-3.0-1.8","11:00:07","2","","","","","","","<div>
            <img class='stim' src=""pictures/sports/1.jpg""></div><div class=""button_prompt"">
                    <b>请用数字键0-9回答</b>
                    </div>","","","","","","","","","","","","","","","","","","",""
"1950","null","sub_response","html-keyboard-response","80","245379","0.0-1.0-7.0-3.0-2.8","11:00:07","2","","","","","","","<div style='text-align: center;'>
                            <span style=""color: red; font-size: 40px""><b>错误！+0 pts</b></span></div>
                            ","","learn","1","1","1","learn","6","6","[0, 1, 2, 3, 4, 5, 6, 7, 8, 9]","8","2","setsize","3S10A","sports","1","0","2","0",""
"null","null","fixation","html-keyboard-response","81","245883","0.0-1.0-7.0-3.0-0.9","11:00:07","2","","","","","","","fixation","","","","","","","","","","","","","","","","","","",""
"842","4","pic_response","html-keyboard-response","82","246726","0.0-1.0-7.0-3.0-1.9","11:00:07","2","","","","","","","<div>
            <img class='stim' src=""pictures/sports/1.jpg""></div><div class=""button_prompt"">
                    <b>请用数字键0-9回答</b>
                    </div>","","","","","","","","","","","","","","","","","","",""
"842","null","sub_response","html-keyboard-response","83","247740","0.0-1.0-7.0-3.0-2.9","11:00:07","2","","","","","","","<div style='text-align: center;'>
                            <span style=""color: red; font-size: 40px""><b>错误！+0 pts</b></span></div>
                            ","","learn","1","1","1","learn","6","6","[0, 1, 2, 3, 4, 5, 6, 7, 8, 9]","9","3","setsize","3S10A","sports","1","0","3","0",""
"null","null","fixation","html-keyboard-response","84","248250","0.0-1.0-7.0-3.0-0.10","11:00:07","2","","","","","","","fixation","","","","","","","","","","","","","","","","","","",""
"573","0","pic_response","html-keyboard-response","85","248824","0.0-1.0-7.0-3.0-1.10","11:00:07","2","","","","","","","<div>
            <img class='stim' src=""pictures/sports/2.jpg""></div><div class=""button_prompt"">
                    <b>请用数字键0-9回答</b>
                    </div>","","","","","","","","","","","","","","","","","","",""
"573","null","sub_response","html-keyboard-response","86","249832","0.0-1.0-7.0-3.0-2.10","11:00:07","2","","","","","","","<div style='text-align: center;'>
                            <span style=""color: green; font-size: 40px""><b>正确！+1 pts</b></span></div>
                            ","","learn","2","2","2","learn","9","9","[0, 1, 2, 3, 4, 5, 6, 7, 8, 9]","10","3","setsize","3S10A","sports","1","1","9","1",""
"null","null","fixation","html-keyboard-response","87","250340","0.0-1.0-7.0-3.0-0.11","11:00:07","2","","","","","","","fixation","","","","","","","","","","","","","","","","","","",""
"667","3","pic_response","html-keyboard-response","88","251008","0.0-1.0-7.0-3.0-1.11","11:00:07","2","","","","","","","<div>
            <img class='stim' src=""pictures/sports/0.jpg""></div><div class=""button_prompt"">
                    <b>请用数字键0-9回答</b>
                    </div>","","","","","","","","","","","","","","","","","","",""
"667","null","sub_response","html-keyboard-response","89","252011","0.0-1.0-7.0-3.0-2.11","11:00:07","2","","","","","","","<div style='text-align: center;'>
                            <span style=""color: green; font-size: 40px""><b>正确！+1 pts</b></span></div>
                            ","","learn","0","0","0","learn","2","2","[0, 1, 2, 3, 4, 5, 6, 7, 8, 9]","11","3","setsize","3S10A","sports","1","2","2","1",""
"null","null","fixation","html-keyboard-response","90","252517","0.0-1.0-7.0-3.0-0.12","11:00:07","2","","","","","","","fixation","","","","","","","","","","","","","","","","","","",""
"617","3","pic_response","html-keyboard-response","91","253136","0.0-1.0-7.0-3.0-1.12","11:00:07","2","","","","","","","<div>
            <img class='stim' src=""pictures/sports/0.jpg""></div><div class=""button_prompt"">
                    <b>请用数字键0-9回答</b>
                    </div>","","","","","","","","","","","","","","","","","","",""
"617","null","sub_response","html-keyboard-response","92","254149","0.0-1.0-7.0-3.0-2.12","11:00:07","2","","","","","","","<div style='text-align: center;'>
                            <span style=""color: green; font-size: 40px""><b>正确！+1 pts</b></span></div>
                            ","","learn","0","0","0","learn","2","2","[0, 1, 2, 3, 4, 5, 6, 7, 8, 9]","12","4","setsize","3S10A","sports","1","3","2","1",""
"null","null","fixation","html-keyboard-response","93","254655","0.0-1.0-7.0-3.0-0.13","11:00:07","2","","","","","","","fixation","","","","","","","","","","","","","","","","","","",""
"800","5","pic_response","html-keyboard-response","94","255456","0.0-1.0-7.0-3.0-1.13","11:00:07","2","","","","","","","<div>
            <img class='stim' src=""pictures/sports/1.jpg""></div><div class=""button_prompt"">
                    <b>请用数字键0-9回答</b>
                    </div>","","","","","","","","","","","","","","","","","","",""
"800","null","sub_response","html-keyboard-response","95","256469","0.0-1.0-7.0-3.0-2.13","11:00:07","2","","","","","","","<div style='text-align: center;'>
                            <span style=""color: red; font-size: 40px""><b>错误！+0 pts</b></span></div>
                            ","","learn","1","1","1","learn","6","6","[0, 1, 2, 3, 4, 5, 6, 7, 8, 9]","13","4","setsize","3S10A","sports","1","0","4","0",""
"null","null","fixation","html-keyboard-response","96","256973","0.0-1.0-7.0-3.0-0.14","11:00:07","2","","","","","","","fixation","","","","","","","","","","","","","","","","","","",""
"634","0","pic_response","html-keyboard-response","97","257609","0.0-1.0-7.0-3.0-1.14","11:00:07","2","","","","","","","<div>
            <img class='stim' src=""pictures/sports/2.jpg""></div><div class=""button_prompt"">
                    <b>请用数字键0-9回答</b>
                    </div>","","","","","","","","","","","","","","","","","","",""
"634","null","sub_response","html-keyboard-response","98","258617","0.0-1.0-7.0-3.0-2.14","11:00:07","2","","","","","","","<div style='text-align: center;'>
                            <span style=""color: green; font-size: 40px""><b>正确！+1 pts</b></span></div>
                            ","","learn","2","2","2","learn","9","9","[0, 1, 2, 3, 4, 5, 6, 7, 8, 9]","14","4","setsize","3S10A","sports","1","1","9","1",""
"null","null","fixation","html-keyboard-response","99","259122","0.0-1.0-7.0-3.0-0.15","11:00:07","2","","","","","","","fixation","","","","","","","","","","","","","","","","","","",""
"1045","6","pic_response","html-keyboard-response","100","260168","0.0-1.0-7.0-3.0-1.15","11:00:07","2","","","","","","","<div>
            <img class='stim' src=""pictures/sports/1.jpg""></div><div class=""button_prompt"">
                    <b>请用数字键0-9回答</b>
                    </div>","","","","","","","","","","","","","","","","","","",""
"1045","null","sub_response","html-keyboard-response","101","261182","0.0-1.0-7.0-3.0-2.15","11:00:07","2","","","","","","","<div style='text-align: center;'>
                            <span style=""color: red; font-size: 40px""><b>错误！+0 pts</b></span></div>
                            ","","learn","1","1","1","learn","6","6","[0, 1, 2, 3, 4, 5, 6, 7, 8, 9]","15","5","setsize","3S10A","sports","1","0","5","0",""
"null","null","fixation","html-keyboard-response","102","261687","0.0-1.0-7.0-3.0-0.16","11:00:07","2","","","","","","","fixation","","","","","","","","","","","","","","","","","","",""
"664","3","pic_response","html-keyboard-response","103","262352","0.0-1.0-7.0-3.0-1.16","11:00:07","2","","","","","","","<div>
            <img class='stim' src=""pictures/sports/0.jpg""></div><div class=""button_prompt"">
                    <b>请用数字键0-9回答</b>
                    </div>","","","","","","","","","","","","","","","","","","",""
"664","null","sub_response","html-keyboard-response","104","263365","0.0-1.0-7.0-3.0-2.16","11:00:07","2","","","","","","","<div style='text-align: center;'>
                            <span style=""color: green; font-size: 40px""><b>正确！+1 pts</b></span></div>
                            ","","learn","0","0","0","learn","2","2","[0, 1, 2, 3, 4, 5, 6, 7, 8, 9]","16","5","setsize","3S10A","sports","1","1","2","1",""
"null","null","fixation","html-keyboard-response","105","263869","0.0-1.0-7.0-3.0-0.17","11:00:07","2","","","","","","","fixation","","","","","","","","","","","","","","","","","","",""
"609","0","pic_response","html-keyboard-response","106","264480","0.0-1.0-7.0-3.0-1.17","11:00:07","2","","","","","","","<div>
            <img class='stim' src=""pictures/sports/2.jpg""></div><div class=""button_prompt"">
                    <b>请用数字键0-9回答</b>
                    </div>","","","","","","","","","","","","","","","","","","",""
"609","null","sub_response","html-keyboard-response","107","265481","0.0-1.0-7.0-3.0-2.17","11:00:07","2","","","","","","","<div style='text-align: center;'>
                            <span style=""color: green; font-size: 40px""><b>正确！+1 pts</b></span></div>
                            ","","learn","2","2","2","learn","9","9","[0, 1, 2, 3, 4, 5, 6, 7, 8, 9]","17","5","setsize","3S10A","sports","1","2","9","1",""
"null","null","fixation","html-keyboard-response","108","265985","0.0-1.0-7.0-3.0-0.18","11:00:07","2","","","","","","","fixation","","","","","","","","","","","","","","","","","","",""
"1062","3","pic_response","html-keyboard-response","109","267048","0.0-1.0-7.0-3.0-1.18","11:00:07","2","","","","","","","<div>
            <img class='stim' src=""pictures/sports/0.jpg""></div><div class=""button_prompt"">
                    <b>请用数字键0-9回答</b>
                    </div>","","","","","","","","","","","","","","","","","","",""
"1062","null","sub_response","html-keyboard-response","110","268062","0.0-1.0-7.0-3.0-2.18","11:00:07","2","","","","","","","<div style='text-align: center;'>
                            <span style=""color: green; font-size: 40px""><b>正确！+1 pts</b></span></div>
                            ","","learn","0","0","0","learn","2","2","[0, 1, 2, 3, 4, 5, 6, 7, 8, 9]","18","6","setsize","3S10A","sports","1","3","2","1",""
"null","null","fixation","html-keyboard-response","111","268565","0.0-1.0-7.0-3.0-0.19","11:00:07","2","","","","","","","fixation","","","","","","","","","","","","","","","","","","",""
"753","8","pic_response","html-keyboard-response","112","269320","0.0-1.0-7.0-3.0-1.19","11:00:07","2","","","","","","","<div>
            <img class='stim' src=""pictures/sports/1.jpg""></div><div class=""button_prompt"">
                    <b>请用数字键0-9回答</b>
                    </div>","","","","","","","","","","","","","","","","","","",""
"753","null","sub_response","html-keyboard-response","113","270322","0.0-1.0-7.0-3.0-2.19","11:00:07","2","","","","","","","<div style='text-align: center;'>
                            <span style=""color: red; font-size: 40px""><b>错误！+0 pts</b></span></div>
                            ","","learn","1","1","1","learn","6","6","[0, 1, 2, 3, 4, 5, 6, 7, 8, 9]","19","6","setsize","3S10A","sports","1","0","7","0",""
"null","null","fixation","html-keyboard-response","114","270826","0.0-1.0-7.0-3.0-0.20","11:00:07","2","","","","","","","fixation","","","","","","","","","","","","","","","","","","",""
"693","0","pic_response","html-keyboard-response","115","271520","0.0-1.0-7.0-3.0-1.20","11:00:07","2","","","","","","","<div>
            <img class='stim' src=""pictures/sports/2.jpg""></div><div class=""button_prompt"">
                    <b>请用数字键0-9回答</b>
                    </div>","","","","","","","","","","","","","","","","","","",""
"693","null","sub_response","html-keyboard-response","116","272525","0.0-1.0-7.0-3.0-2.20","11:00:07","2","","","","","","","<div style='text-align: center;'>
                            <span style=""color: green; font-size: 40px""><b>正确！+1 pts</b></span></div>
                            ","","learn","2","2","2","learn","9","9","[0, 1, 2, 3, 4, 5, 6, 7, 8, 9]","20","6","setsize","3S10A","sports","1","1","9","1",""
"null","null","fixation","html-keyboard-response","117","273030","0.0-1.0-7.0-3.0-0.21","11:00:07","2","","","","","","","fixation","","","","","","","","","","","","","","","","","","",""
"649","3","pic_response","html-keyboard-response","118","273680","0.0-1.0-7.0-3.0-1.21","11:00:07","2","","","","","","","<div>
            <img class='stim' src=""pictures/sports/2.jpg""></div><div class=""button_prompt"">
                    <b>请用数字键0-9回答</b>
                    </div>","","","","","","","","","","","","","","","","","","",""
"649","null","sub_response","html-keyboard-response","119","274682","0.0-1.0-7.0-3.0-2.21","11:00:07","2","","","","","","","<div style='text-align: center;'>
                            <span style=""color: red; font-size: 40px""><b>错误！+0 pts</b></span></div>
                            ","","learn","2","2","2","learn","9","9","[0, 1, 2, 3, 4, 5, 6, 7, 8, 9]","21","7","setsize","3S10A","sports","1","0","2","0",""
"null","null","fixation","html-keyboard-response","120","275187","0.0-1.0-7.0-3.0-0.22","11:00:07","2","","","","","","","fixation","","","","","","","","","","","","","","","","","","",""
"726","7","pic_response","html-keyboard-response","121","275914","0.0-1.0-7.0-3.0-1.22","11:00:07","2","","","","","","","<div>
            <img class='stim' src=""pictures/sports/1.jpg""></div><div class=""button_prompt"">
                    <b>请用数字键0-9回答</b>
                    </div>","","","","","","","","","","","","","","","","","","",""
"726","null","sub_response","html-keyboard-response","122","276915","0.0-1.0-7.0-3.0-2.22","11:00:07","2","","","","","","","<div style='text-align: center;'>
                            <span style=""color: green; font-size: 40px""><b>正确！+1 pts</b></span></div>
                            ","","learn","1","1","1","learn","6","6","[0, 1, 2, 3, 4, 5, 6, 7, 8, 9]","22","7","setsize","3S10A","sports","1","1","6","1",""
"null","null","fixation","html-keyboard-response","123","277430","0.0-1.0-7.0-3.0-0.23","11:00:07","2","","","","","","","fixation","","","","","","","","","","","","","","","","","","",""
"658","3","pic_response","html-keyboard-response","124","278089","0.0-1.0-7.0-3.0-1.23","11:00:07","2","","","","","","","<div>
            <img class='stim' src=""pictures/sports/0.jpg""></div><div class=""button_prompt"">
                    <b>请用数字键0-9回答</b>
                    </div>","","","","","","","","","","","","","","","","","","",""
"658","null","sub_response","html-keyboard-response","125","279093","0.0-1.0-7.0-3.0-2.23","11:00:07","2","","","","","","","<div style='text-align: center;'>
                            <span style=""color: green; font-size: 40px""><b>正确！+1 pts</b></span></div>
                            ","","learn","0","0","0","learn","2","2","[0, 1, 2, 3, 4, 5, 6, 7, 8, 9]","23","7","setsize","3S10A","sports","1","2","2","1",""
"null","null","fixation","html-keyboard-response","126","279601","0.0-1.0-7.0-3.0-0.24","11:00:07","2","","","","","","","fixation","","","","","","","","","","","","","","","","","","",""
"710","7","pic_response","html-keyboard-response","127","280312","0.0-1.0-7.0-3.0-1.24","11:00:07","2","","","","","","","<div>
            <img class='stim' src=""pictures/sports/1.jpg""></div><div class=""button_prompt"">
                    <b>请用数字键0-9回答</b>
                    </div>","","","","","","","","","","","","","","","","","","",""
"710","null","sub_response","html-keyboard-response","128","281317","0.0-1.0-7.0-3.0-2.24","11:00:07","2","","","","","","","<div style='text-align: center;'>
                            <span style=""color: green; font-size: 40px""><b>正确！+1 pts</b></span></div>
                            ","","learn","1","1","1","learn","6","6","[0, 1, 2, 3, 4, 5, 6, 7, 8, 9]","24","8","setsize","3S10A","sports","1","3","6","1",""
"null","null","fixation","html-keyboard-response","129","281821","0.0-1.0-7.0-3.0-0.25","11:00:07","2","","","","","","","fixation","","","","","","","","","","","","","","","","","","",""
"554","0","pic_response","html-keyboard-response","130","282376","0.0-1.0-7.0-3.0-1.25","11:00:07","2","","","","","","","<div>
            <img class='stim' src=""pictures/sports/2.jpg""></div><div class=""button_prompt"">
                    <b>请用数字键0-9回答</b>
                    </div>","","","","","","","","","","","","","","","","","","",""
"554","null","sub_response","html-keyboard-response","131","283378","0.0-1.0-7.0-3.0-2.25","11:00:07","2","","","","","","","<div style='text-align: center;'>
                            <span style=""color: green; font-size: 40px""><b>正确！+1 pts</b></span></div>
                            ","","learn","2","2","2","learn","9","9","[0, 1, 2, 3, 4, 5, 6, 7, 8, 9]","25","8","setsize","3S10A","sports","1","4","9","1",""
"null","null","fixation","html-keyboard-response","132","283880","0.0-1.0-7.0-3.0-0.26","11:00:07","2","","","","","","","fixation","","","","","","","","","","","","","","","","","","",""
"623","3","pic_response","html-keyboard-response","133","284504","0.0-1.0-7.0-3.0-1.26","11:00:07","2","","","","","","","<div>
            <img class='stim' src=""pictures/sports/0.jpg""></div><div class=""button_prompt"">
                    <b>请用数字键0-9回答</b>
                    </div>","","","","","","","","","","","","","","","","","","",""
"623","null","sub_response","html-keyboard-response","134","285508","0.0-1.0-7.0-3.0-2.26","11:00:07","2","","","","","","","<div style='text-align: center;'>
                            <span style=""color: green; font-size: 40px""><b>正确！+1 pts</b></span></div>
                            ","","learn","0","0","0","learn","2","2","[0, 1, 2, 3, 4, 5, 6, 7, 8, 9]","26","8","setsize","3S10A","sports","1","5","2","1",""
"null","null","fixation","html-keyboard-response","135","286017","0.0-1.0-7.0-3.0-0.27","11:00:07","2","","","","","","","fixation","","","","","","","","","","","","","","","","","","",""
"910","3","pic_response","html-keyboard-response","136","286928","0.0-1.0-7.0-3.0-1.27","11:00:07","2","","","","","","","<div>
            <img class='stim' src=""pictures/sports/0.jpg""></div><div class=""button_prompt"">
                    <b>请用数字键0-9回答</b>
                    </div>","","","","","","","","","","","","","","","","","","",""
"910","null","sub_response","html-keyboard-response","137","287932","0.0-1.0-7.0-3.0-2.27","11:00:07","2","","","","","","","<div style='text-align: center;'>
                            <span style=""color: green; font-size: 40px""><b>正确！+1 pts</b></span></div>
                            ","","learn","0","0","0","learn","2","2","[0, 1, 2, 3, 4, 5, 6, 7, 8, 9]","27","9","setsize","3S10A","sports","1","6","2","1",""
"null","null","fixation","html-keyboard-response","138","288434","0.0-1.0-7.0-3.0-0.28","11:00:07","2","","","","","","","fixation","","","","","","","","","","","","","","","","","","",""
"692","0","pic_response","html-keyboard-response","139","289128","0.0-1.0-7.0-3.0-1.28","11:00:07","2","","","","","","","<div>
            <img class='stim' src=""pictures/sports/2.jpg""></div><div class=""button_prompt"">
                    <b>请用数字键0-9回答</b>
                    </div>","","","","","","","","","","","","","","","","","","",""
"692","null","sub_response","html-keyboard-response","140","290130","0.0-1.0-7.0-3.0-2.28","11:00:07","2","","","","","","","<div style='text-align: center;'>
                            <span style=""color: green; font-size: 40px""><b>正确！+1 pts</b></span></div>
                            ","","learn","2","2","2","learn","9","9","[0, 1, 2, 3, 4, 5, 6, 7, 8, 9]","28","9","setsize","3S10A","sports","1","7","9","1",""
"null","null","fixation","html-keyboard-response","141","290634","0.0-1.0-7.0-3.0-0.29","11:00:07","2","","","","","","","fixation","","","","","","","","","","","","","","","","","","",""
"662","7","pic_response","html-keyboard-response","142","291297","0.0-1.0-7.0-3.0-1.29","11:00:07","2","","","","","","","<div>
            <img class='stim' src=""pictures/sports/1.jpg""></div><div class=""button_prompt"">
                    <b>请用数字键0-9回答</b>
                    </div>","","","","","","","","","","","","","","","","","","",""
"662","null","sub_response","html-keyboard-response","143","292300","0.0-1.0-7.0-3.0-2.29","11:00:07","2","","","","","","","<div style='text-align: center;'>
                            <span style=""color: green; font-size: 40px""><b>正确！+1 pts</b></span></div>
                            ","","learn","1","1","1","learn","6","6","[0, 1, 2, 3, 4, 5, 6, 7, 8, 9]","29","9","setsize","3S10A","sports","1","8","6","1",""
"null","null","fixation","html-keyboard-response","144","292804","0.0-1.0-7.0-3.0-0.30","11:00:07","2","","","","","","","fixation","","","","","","","","","","","","","","","","","","",""
"603","3","pic_response","html-keyboard-response","145","293408","0.0-1.0-7.0-3.0-1.30","11:00:07","2","","","","","","","<div>
            <img class='stim' src=""pictures/sports/0.jpg""></div><div class=""button_prompt"">
                    <b>请用数字键0-9回答</b>
                    </div>","","","","","","","","","","","","","","","","","","",""
"603","null","sub_response","html-keyboard-response","146","294410","0.0-1.0-7.0-3.0-2.30","11:00:07","2","","","","","","","<div style='text-align: center;'>
                            <span style=""color: green; font-size: 40px""><b>正确！+1 pts</b></span></div>
                            ","","learn","0","0","0","learn","2","2","[0, 1, 2, 3, 4, 5, 6, 7, 8, 9]","30","10","setsize","3S10A","sports","1","9","2","1",""
"null","null","fixation","html-keyboard-response","147","294920","0.0-1.0-7.0-3.0-0.31","11:00:07","2","","","","","","","fixation","","","","","","","","","","","","","","","","","","",""
"1326","0","pic_response","html-keyboard-response","148","296248","0.0-1.0-7.0-3.0-1.31","11:00:07","2","","","","","","","<div>
            <img class='stim' src=""pictures/sports/2.jpg""></div><div class=""button_prompt"">
                    <b>请用数字键0-9回答</b>
                    </div>","","","","","","","","","","","","","","","","","","",""
"1326","null","sub_response","html-keyboard-response","149","297251","0.0-1.0-7.0-3.0-2.31","11:00:07","2","","","","","","","<div style='text-align: center;'>
                            <span style=""color: green; font-size: 40px""><b>正确！+1 pts</b></span></div>
                            ","","learn","2","2","2","learn","9","9","[0, 1, 2, 3, 4, 5, 6, 7, 8, 9]","31","10","setsize","3S10A","sports","1","10","9","1",""
"null","null","fixation","html-keyboard-response","150","297765","0.0-1.0-7.0-3.0-0.32","11:00:07","2","","","","","","","fixation","","","","","","","","","","","","","","","","","","",""
"733","7","pic_response","html-keyboard-response","151","298498","0.0-1.0-7.0-3.0-1.32","11:00:07","2","","","","","","","<div>
            <img class='stim' src=""pictures/sports/1.jpg""></div><div class=""button_prompt"">
                    <b>请用数字键0-9回答</b>
                    </div>","","","","","","","","","","","","","","","","","","",""
"733","null","sub_response","html-keyboard-response","152","299500","0.0-1.0-7.0-3.0-2.32","11:00:07","2","","","","","","","<div style='text-align: center;'>
                            <span style=""color: green; font-size: 40px""><b>正确！+1 pts</b></span></div>
                            ","","learn","1","1","1","learn","6","6","[0, 1, 2, 3, 4, 5, 6, 7, 8, 9]","32","10","setsize","3S10A","sports","1","11","6","1",""
"null","null","fixation","html-keyboard-response","153","300009","0.0-1.0-7.0-3.0-0.33","11:00:07","2","","","","","","","fixation","","","","","","","","","","","","","","","","","","",""
"1326","0","pic_response","html-keyboard-response","154","301336","0.0-1.0-7.0-3.0-1.33","11:00:07","2","","","","","","","<div>
            <img class='stim' src=""pictures/sports/2.jpg""></div><div class=""button_prompt"">
                    <b>请用数字键0-9回答</b>
                    </div>","","","","","","","","","","","","","","","","","","",""
"1326","null","sub_response","html-keyboard-response","155","302341","0.0-1.0-7.0-3.0-2.33","11:00:07","2","","","","","","","<div style='text-align: center;'>
                            <span style=""color: green; font-size: 40px""><b>正确！+1 pts</b></span></div>
                            ","","learn","2","2","2","learn","9","9","[0, 1, 2, 3, 4, 5, 6, 7, 8, 9]","33","11","setsize","3S10A","sports","1","12","9","1",""
"null","null","fixation","html-keyboard-response","156","302845","0.0-1.0-7.0-3.0-0.34","11:00:07","2","","","","","","","fixation","","","","","","","","","","","","","","","","","","",""
"554","3","pic_response","html-keyboard-response","157","303400","0.0-1.0-7.0-3.0-1.34","11:00:07","2","","","","","","","<div>
            <img class='stim' src=""pictures/sports/0.jpg""></div><div class=""button_prompt"">
                    <b>请用数字键0-9回答</b>
                    </div>","","","","","","","","","","","","","","","","","","",""
"554","null","sub_response","html-keyboard-response","158","304404","0.0-1.0-7.0-3.0-2.34","11:00:07","2","","","","","","","<div style='text-align: center;'>
                            <span style=""color: green; font-size: 40px""><b>正确！+1 pts</b></span></div>
                            ","","learn","0","0","0","learn","2","2","[0, 1, 2, 3, 4, 5, 6, 7, 8, 9]","34","11","setsize","3S10A","sports","1","13","2","1",""
"null","null","fixation","html-keyboard-response","159","304917","0.0-1.0-7.0-3.0-0.35","11:00:07","2","","","","","","","fixation","","","","","","","","","","","","","","","","","","",""
"2010","7","pic_response","html-keyboard-response","160","306928","0.0-1.0-7.0-3.0-1.35","11:00:07","2","","","","","","","<div>
            <img class='stim' src=""pictures/sports/1.jpg""></div><div class=""button_prompt"">
                    <b>请用数字键0-9回答</b>
                    </div>","","","","","","","","","","","","","","","","","","",""
"2010","null","sub_response","html-keyboard-response","161","307933","0.0-1.0-7.0-3.0-2.35","11:00:07","2","","","","","","","<div style='text-align: center;'>
                            <span style=""color: green; font-size: 40px""><b>正确！+1 pts</b></span></div>
                            ","","learn","1","1","1","learn","6","6","[0, 1, 2, 3, 4, 5, 6, 7, 8, 9]","35","11","setsize","3S10A","sports","1","14","6","1",""
"null","null","fixation","html-keyboard-response","162","308435","0.0-1.0-7.0-3.0-0.36","11:00:07","2","","","","","","","fixation","","","","","","","","","","","","","","","","","","",""
"635","3","pic_response","html-keyboard-response","163","309071","0.0-1.0-7.0-3.0-1.36","11:00:07","2","","","","","","","<div>
            <img class='stim' src=""pictures/sports/0.jpg""></div><div class=""button_prompt"">
                    <b>请用数字键0-9回答</b>
                    </div>","","","","","","","","","","","","","","","","","","",""
"635","null","sub_response","html-keyboard-response","164","310073","0.0-1.0-7.0-3.0-2.36","11:00:07","2","","","","","","","<div style='text-align: center;'>
                            <span style=""color: green; font-size: 40px""><b>正确！+1 pts</b></span></div>
                            ","","learn","0","0","0","learn","2","2","[0, 1, 2, 3, 4, 5, 6, 7, 8, 9]","36","12","setsize","3S10A","sports","1","15","2","1",""
"null","null","fixation","html-keyboard-response","165","310575","0.0-1.0-7.0-3.0-0.37","11:00:07","2","","","","","","","fixation","","","","","","","","","","","","","","","","","","",""
"2039","7","pic_response","html-keyboard-response","166","312615","0.0-1.0-7.0-3.0-1.37","11:00:07","2","","","","","","","<div>
            <img class='stim' src=""pictures/sports/1.jpg""></div><div class=""button_prompt"">
                    <b>请用数字键0-9回答</b>
                    </div>","","","","","","","","","","","","","","","","","","",""
"2039","null","sub_response","html-keyboard-response","167","313621","0.0-1.0-7.0-3.0-2.37","11:00:07","2","","","","","","","<div style='text-align: center;'>
                            <span style=""color: green; font-size: 40px""><b>正确！+1 pts</b></span></div>
                            ","","learn","1","1","1","learn","6","6","[0, 1, 2, 3, 4, 5, 6, 7, 8, 9]","37","12","setsize","3S10A","sports","1","16","6","1",""
"null","null","fixation","html-keyboard-response","168","314126","0.0-1.0-7.0-3.0-0.38","11:00:07","2","","","","","","","fixation","","","","","","","","","","","","","","","","","","",""
"1353","0","pic_response","html-keyboard-response","169","315480","0.0-1.0-7.0-3.0-1.38","11:00:07","2","","","","","","","<div>
            <img class='stim' src=""pictures/sports/2.jpg""></div><div class=""button_prompt"">
                    <b>请用数字键0-9回答</b>
                    </div>","","","","","","","","","","","","","","","","","","",""
"1353","null","sub_response","html-keyboard-response","170","316485","0.0-1.0-7.0-3.0-2.38","11:00:07","2","","","","","","","<div style='text-align: center;'>
                            <span style=""color: green; font-size: 40px""><b>正确！+1 pts</b></span></div>
                            ","","learn","2","2","2","learn","9","9","[0, 1, 2, 3, 4, 5, 6, 7, 8, 9]","38","12","setsize","3S10A","sports","1","17","9","1",""
"null","null","fixation","html-keyboard-response","171","316988","0.0-1.0-7.0-3.0-0.39","11:00:07","2","","","","","","","fixation","","","","","","","","","","","","","","","","","","",""
"1770","0","pic_response","html-keyboard-response","172","318759","0.0-1.0-7.0-3.0-1.39","11:00:07","2","","","","","","","<div>
            <img class='stim' src=""pictures/sports/2.jpg""></div><div class=""button_prompt"">
                    <b>请用数字键0-9回答</b>
                    </div>","","","","","","","","","","","","","","","","","","",""
"1770","null","sub_response","html-keyboard-response","173","319765","0.0-1.0-7.0-3.0-2.39","11:00:07","2","","","","","","","<div style='text-align: center;'>
                            <span style=""color: green; font-size: 40px""><b>正确！+1 pts</b></span></div>
                            ","","learn","2","2","2","learn","9","9","[0, 1, 2, 3, 4, 5, 6, 7, 8, 9]","39","13","setsize","3S10A","sports","1","18","9","1",""
"null","null","fixation","html-keyboard-response","174","320278","0.0-1.0-7.0-3.0-0.40","11:00:07","2","","","","","","","fixation","","","","","","","","","","","","","","","","","","",""
"906","7","pic_response","html-keyboard-response","175","321186","0.0-1.0-7.0-3.0-1.40","11:00:07","2","","","","","","","<div>
            <img class='stim' src=""pictures/sports/1.jpg""></div><div class=""button_prompt"">
                    <b>请用数字键0-9回答</b>
                    </div>","","","","","","","","","","","","","","","","","","",""
"906","null","sub_response","html-keyboard-response","176","322201","0.0-1.0-7.0-3.0-2.40","11:00:07","2","","","","","","","<div style='text-align: center;'>
                            <span style=""color: green; font-size: 40px""><b>正确！+1 pts</b></span></div>
                            ","","learn","1","1","1","learn","6","6","[0, 1, 2, 3, 4, 5, 6, 7, 8, 9]","40","13","setsize","3S10A","sports","1","19","6","1",""
"null","null","fixation","html-keyboard-response","177","322707","0.0-1.0-7.0-3.0-0.41","11:00:07","2","","","","","","","fixation","","","","","","","","","","","","","","","","","","",""
"691","3","pic_response","html-keyboard-response","178","323399","0.0-1.0-7.0-3.0-1.41","11:00:07","2","","","","","","","<div>
            <img class='stim' src=""pictures/sports/0.jpg""></div><div class=""button_prompt"">
                    <b>请用数字键0-9回答</b>
                    </div>","","","","","","","","","","","","","","","","","","",""
"691","null","sub_response","html-keyboard-response","179","324403","0.0-1.0-7.0-3.0-2.41","11:00:07","2","","","","","","","<div style='text-align: center;'>
                            <span style=""color: green; font-size: 40px""><b>正确！+1 pts</b></span></div>
                            ","","learn","0","0","0","learn","2","2","[0, 1, 2, 3, 4, 5, 6, 7, 8, 9]","41","13","setsize","3S10A","sports","1","20","2","1",""
"null","null","fixation","html-keyboard-response","180","324908","0.0-1.0-7.0-3.0-0.42","11:00:07","2","","","","","","","fixation","","","","","","","","","","","","","","","","","","",""
"674","0","pic_response","html-keyboard-response","181","325583","0.0-1.0-7.0-3.0-1.42","11:00:07","2","","","","","","","<div>
            <img class='stim' src=""pictures/sports/2.jpg""></div><div class=""button_prompt"">
                    <b>请用数字键0-9回答</b>
                    </div>","","","","","","","","","","","","","","","","","","",""
"674","null","sub_response","html-keyboard-response","182","326586","0.0-1.0-7.0-3.0-2.42","11:00:07","2","","","","","","","<div style='text-align: center;'>
                            <span style=""color: green; font-size: 40px""><b>正确！+1 pts</b></span></div>
                            ","","learn","2","2","2","learn","9","9","[0, 1, 2, 3, 4, 5, 6, 7, 8, 9]","42","14","setsize","3S10A","sports","1","21","9","1",""
"null","null","fixation","html-keyboard-response","183","327095","0.0-1.0-7.0-3.0-0.43","11:00:07","2","","","","","","","fixation","","","","","","","","","","","","","","","","","","",""
"487","3","pic_response","html-keyboard-response","184","327583","0.0-1.0-7.0-3.0-1.43","11:00:07","2","","","","","","","<div>
            <img class='stim' src=""pictures/sports/0.jpg""></div><div class=""button_prompt"">
                    <b>请用数字键0-9回答</b>
                    </div>","","","","","","","","","","","","","","","","","","",""
"487","null","sub_response","html-keyboard-response","185","328584","0.0-1.0-7.0-3.0-2.43","11:00:07","2","","","","","","","<div style='text-align: center;'>
                            <span style=""color: green; font-size: 40px""><b>正确！+1 pts</b></span></div>
                            ","","learn","0","0","0","learn","2","2","[0, 1, 2, 3, 4, 5, 6, 7, 8, 9]","43","14","setsize","3S10A","sports","1","22","2","1",""
"null","null","fixation","html-keyboard-response","186","329087","0.0-1.0-7.0-3.0-0.44","11:00:07","2","","","","","","","fixation","","","","","","","","","","","","","","","","","","",""
"630","7","pic_response","html-keyboard-response","187","329719","0.0-1.0-7.0-3.0-1.44","11:00:07","2","","","","","","","<div>
            <img class='stim' src=""pictures/sports/1.jpg""></div><div class=""button_prompt"">
                    <b>请用数字键0-9回答</b>
                    </div>","","","","","","","","","","","","","","","","","","",""
"630","null","sub_response","html-keyboard-response","188","330728","0.0-1.0-7.0-3.0-2.44","11:00:07","2","","","","","","","<div style='text-align: center;'>
                            <span style=""color: green; font-size: 40px""><b>正确！+1 pts</b></span></div>
                            ","","learn","1","1","1","learn","6","6","[0, 1, 2, 3, 4, 5, 6, 7, 8, 9]","44","14","setsize","3S10A","sports","1","23","6","1",""
"null","null","fixation","html-keyboard-response","189","331231","0.0-1.0-7.0-3.0-0.45","11:00:07","2","","","","","","","fixation","","","","","","","","","","","","","","","","","","",""
"680","0","pic_response","html-keyboard-response","190","331912","0.0-1.0-7.0-3.0-1.45","11:00:07","2","","","","","","","<div>
            <img class='stim' src=""pictures/sports/2.jpg""></div><div class=""button_prompt"">
                    <b>请用数字键0-9回答</b>
                    </div>","","","","","","","","","","","","","","","","","","",""
"680","null","sub_response","html-keyboard-response","191","332916","0.0-1.0-7.0-3.0-2.45","11:00:07","2","","","","","","","<div style='text-align: center;'>
                            <span style=""color: green; font-size: 40px""><b>正确！+1 pts</b></span></div>
                            ","","learn","2","2","2","learn","9","9","[0, 1, 2, 3, 4, 5, 6, 7, 8, 9]","45","15","setsize","3S10A","sports","1","24","9","1",""
"2067"," ","","html-keyboard-response","192","334985","0.0-1.0-8.0","11:00:07","2","","","","","","","<div style=""font-size: 25px""><p>距下一个实验开始还有</p><div style=""font-size: 50px; color: blue""><p><span id=""clock"">1:00</span></div></p><p>按""空格""跳过休息</p></div>","","","","","","","","","","","","","","","","","","",""
"","","","preload","193","335907","0.0-1.0-9.0-0.0","11:00:07","2","true","false","[]","[]","[]","","","","","","","","","","","","","","","","","","","","",""
"828"," ","","html-keyboard-response","194","336736","0.0-1.0-9.0-1.0","11:00:07","2","","","","","","","<div style='font-size: 32px; text-align: center;'
                    <p>请学习图片和数字之间的对应关系</p>
                    <p>我们将<span style='color: blue'><b> 告诉 </b></span>您选择的对错。请根据反馈学习。</p>
                    <p>请按""空格""继续实验。</p></div>","","","","","","","","","","","","","","","","","","",""
"25239"," ","inst","html-keyboard-response","195","361976","0.0-1.0-9.0-2.0","11:00:07","2","","","","","","","<img class='instruct_stim' src=""instruction/animals10.PNG""></div>","","","","","","","","","","","","","","","","","","",""
"null","null","fixation","html-keyboard-response","196","362491","0.0-1.0-9.0-3.0-0.0","11:00:07","2","","","","","","","fixation","","","","","","","","","","","","","","","","","","",""
"2348","1","pic_response","html-keyboard-response","197","364839","0.0-1.0-9.0-3.0-1.0","11:00:07","2","","","","","","","<div>
            <img class='stim' src=""pictures/animals/6.jpg""></div><div class=""button_prompt"">
                        <b>请用数字键1-3回答</b>
                        </div>","","","","","","","","","","","","","","","","","","",""
"2348","null","sub_response","html-keyboard-response","198","365849","0.0-1.0-9.0-3.0-2.0","11:00:07","2","","","","","","","<div style='text-align: center;'>
                            <span style=""color: red; font-size: 40px""><b>错误！+0 pts</b></span></div>
                            ","","learn","6","6","6","learn","2","2","[0, 1, 2]","0","0","setsize","10S3A","animals","2","0","0","0",""
"null","null","fixation","html-keyboard-response","199","366352","0.0-1.0-9.0-3.0-0.1","11:00:07","2","","","","","","","fixation","","","","","","","","","","","","","","","","","","",""
"816","1","pic_response","html-keyboard-response","200","367170","0.0-1.0-9.0-3.0-1.1","11:00:07","2","","","","","","","<div>
            <img class='stim' src=""pictures/animals/1.jpg""></div><div class=""button_prompt"">
                        <b>请用数字键1-3回答</b>
                        </div>","","","","","","","","","","","","","","","","","","",""
"816","null","sub_response","html-keyboard-response","201","368172","0.0-1.0-9.0-3.0-2.1","11:00:07","2","","","","","","","<div style='text-align: center;'>
                            <span style=""color: green; font-size: 40px""><b>正确！+1 pts</b></span></div>
                            ","","learn","1","1","1","learn","0","0","[0, 1, 2]","1","0","setsize","10S3A","animals","2","1","0","1",""
"null","null","fixation","html-keyboard-response","202","368685","0.0-1.0-9.0-3.0-0.2","11:00:07","2","","","","","","","fixation","","","","","","","","","","","","","","","","","","",""
"1234","1","pic_response","html-keyboard-response","203","369920","0.0-1.0-9.0-3.0-1.2","11:00:07","2","","","","","","","<div>
            <img class='stim' src=""pictures/animals/5.jpg""></div><div class=""button_prompt"">
                        <b>请用数字键1-3回答</b>
                        </div>","","","","","","","","","","","","","","","","","","",""
"1234","null","sub_response","html-keyboard-response","204","370925","0.0-1.0-9.0-3.0-2.2","11:00:07","2","","","","","","","<div style='text-align: center;'>
                            <span style=""color: red; font-size: 40px""><b>错误！+0 pts</b></span></div>
                            ","","learn","5","5","5","learn","1","1","[0, 1, 2]","2","0","setsize","10S3A","animals","2","0","0","0",""
"null","null","fixation","html-keyboard-response","205","371426","0.0-1.0-9.0-3.0-0.3","11:00:07","2","","","","","","","fixation","","","","","","","","","","","","","","","","","","",""
"1133","1","pic_response","html-keyboard-response","206","372560","0.0-1.0-9.0-3.0-1.3","11:00:07","2","","","","","","","<div>
            <img class='stim' src=""pictures/animals/8.jpg""></div><div class=""button_prompt"">
                        <b>请用数字键1-3回答</b>
                        </div>","","","","","","","","","","","","","","","","","","",""
"1133","null","sub_response","html-keyboard-response","207","373565","0.0-1.0-9.0-3.0-2.3","11:00:07","2","","","","","","","<div style='text-align: center;'>
                            <span style=""color: red; font-size: 40px""><b>错误！+0 pts</b></span></div>
                            ","","learn","8","8","8","learn","2","2","[0, 1, 2]","3","0","setsize","10S3A","animals","2","0","0","0",""
"null","null","fixation","html-keyboard-response","208","374073","0.0-1.0-9.0-3.0-0.4","11:00:07","2","","","","","","","fixation","","","","","","","","","","","","","","","","","","",""
"925","1","pic_response","html-keyboard-response","209","375000","0.0-1.0-9.0-3.0-1.4","11:00:07","2","","","","","","","<div>
            <img class='stim' src=""pictures/animals/4.jpg""></div><div class=""button_prompt"">
                        <b>请用数字键1-3回答</b>
                        </div>","","","","","","","","","","","","","","","","","","",""
"925","null","sub_response","html-keyboard-response","210","376003","0.0-1.0-9.0-3.0-2.4","11:00:07","2","","","","","","","<div style='text-align: center;'>
                            <span style=""color: red; font-size: 40px""><b>错误！+0 pts</b></span></div>
                            ","","learn","4","4","4","learn","1","1","[0, 1, 2]","4","0","setsize","10S3A","animals","2","0","0","0",""
"null","null","fixation","html-keyboard-response","211","376511","0.0-1.0-9.0-3.0-0.5","11:00:07","2","","","","","","","fixation","","","","","","","","","","","","","","","","","","",""
"1056","2","pic_response","html-keyboard-response","212","377568","0.0-1.0-9.0-3.0-1.5","11:00:07","2","","","","","","","<div>
            <img class='stim' src=""pictures/animals/9.jpg""></div><div class=""button_prompt"">
                        <b>请用数字键1-3回答</b>
                        </div>","","","","","","","","","","","","","","","","","","",""
"1056","null","sub_response","html-keyboard-response","213","378573","0.0-1.0-9.0-3.0-2.5","11:00:07","2","","","","","","","<div style='text-align: center;'>
                            <span style=""color: red; font-size: 40px""><b>错误！+0 pts</b></span></div>
                            ","","learn","9","9","9","learn","2","2","[0, 1, 2]","5","0","setsize","10S3A","animals","2","0","1","0",""
"null","null","fixation","html-keyboard-response","214","379078","0.0-1.0-9.0-3.0-0.6","11:00:07","2","","","","","","","fixation","","","","","","","","","","","","","","","","","","",""
"808","1","pic_response","html-keyboard-response","215","379887","0.0-1.0-9.0-3.0-1.6","11:00:07","2","","","","","","","<div>
            <img class='stim' src=""pictures/animals/2.jpg""></div><div class=""button_prompt"">
                        <b>请用数字键1-3回答</b>
                        </div>","","","","","","","","","","","","","","","","","","",""
"808","null","sub_response","html-keyboard-response","216","380891","0.0-1.0-9.0-3.0-2.6","11:00:07","2","","","","","","","<div style='text-align: center;'>
                            <span style=""color: green; font-size: 40px""><b>正确！+1 pts</b></span></div>
                            ","","learn","2","2","2","learn","0","0","[0, 1, 2]","6","0","setsize","10S3A","animals","2","1","0","1",""
"null","null","fixation","html-keyboard-response","217","381395","0.0-1.0-9.0-3.0-0.7","11:00:07","2","","","","","","","fixation","","","","","","","","","","","","","","","","","","",""
"860","1","pic_response","html-keyboard-response","218","382256","0.0-1.0-9.0-3.0-1.7","11:00:07","2","","","","","","","<div>
            <img class='stim' src=""pictures/animals/3.jpg""></div><div class=""button_prompt"">
                        <b>请用数字键1-3回答</b>
                        </div>","","","","","","","","","","","","","","","","","","",""
"860","null","sub_response","html-keyboard-response","219","383261","0.0-1.0-9.0-3.0-2.7","11:00:07","2","","","","","","","<div style='text-align: center;'>
                            <span style=""color: red; font-size: 40px""><b>错误！+0 pts</b></span></div>
                            ","","learn","3","3","3","learn","1","1","[0, 1, 2]","7","0","setsize","10S3A","animals","2","0","0","0",""
"null","null","fixation","html-keyboard-response","220","383775","0.0-1.0-9.0-3.0-0.8","11:00:07","2","","","","","","","fixation","","","","","","","","","","","","","","","","","","",""
"752","1","pic_response","html-keyboard-response","221","384528","0.0-1.0-9.0-3.0-1.8","11:00:07","2","","","","","","","<div>
            <img class='stim' src=""pictures/animals/0.jpg""></div><div class=""button_prompt"">
                        <b>请用数字键1-3回答</b>
                        </div>","","","","","","","","","","","","","","","","","","",""
"752","null","sub_response","html-keyboard-response","222","385531","0.0-1.0-9.0-3.0-2.8","11:00:07","2","","","","","","","<div style='text-align: center;'>
                            <span style=""color: green; font-size: 40px""><b>正确！+1 pts</b></span></div>
                            ","","learn","0","0","0","learn","0","0","[0, 1, 2]","8","0","setsize","10S3A","animals","2","1","0","1",""
"null","null","fixation","html-keyboard-response","223","386035","0.0-1.0-9.0-3.0-0.9","11:00:07","2","","","","","","","fixation","","","","","","","","","","","","","","","","","","",""
"1532","1","pic_response","html-keyboard-response","224","387568","0.0-1.0-9.0-3.0-1.9","11:00:07","2","","","","","","","<div>
            <img class='stim' src=""pictures/animals/7.jpg""></div><div class=""button_prompt"">
                        <b>请用数字键1-3回答</b>
                        </div>","","","","","","","","","","","","","","","","","","",""
"1532","null","sub_response","html-keyboard-response","225","388583","0.0-1.0-9.0-3.0-2.9","11:00:07","2","","","","","","","<div style='text-align: center;'>
                            <span style=""color: red; font-size: 40px""><b>错误！+0 pts</b></span></div>
                            ","","learn","7","7","7","learn","2","2","[0, 1, 2]","9","0","setsize","10S3A","animals","2","0","0","0",""
"null","null","fixation","html-keyboard-response","226","389088","0.0-1.0-9.0-3.0-0.10","11:00:07","2","","","","","","","fixation","","","","","","","","","","","","","","","","","","",""
"1015","1","pic_response","html-keyboard-response","227","390104","0.0-1.0-9.0-3.0-1.10","11:00:07","2","","","","","","","<div>
            <img class='stim' src=""pictures/animals/9.jpg""></div><div class=""button_prompt"">
                        <b>请用数字键1-3回答</b>
                        </div>","","","","","","","","","","","","","","","","","","",""
"1015","null","sub_response","html-keyboard-response","228","391110","0.0-1.0-9.0-3.0-2.10","11:00:07","2","","","","","","","<div style='text-align: center;'>
                            <span style=""color: red; font-size: 40px""><b>错误！+0 pts</b></span></div>
                            ","","learn","9","9","9","learn","2","2","[0, 1, 2]","10","1","setsize","10S3A","animals","2","0","0","0",""
"null","null","fixation","html-keyboard-response","229","391616","0.0-1.0-9.0-3.0-0.11","11:00:07","2","","","","","","","fixation","","","","","","","","","","","","","","","","","","",""
"719","2","pic_response","html-keyboard-response","230","392336","0.0-1.0-9.0-3.0-1.11","11:00:07","2","","","","","","","<div>
            <img class='stim' src=""pictures/animals/3.jpg""></div><div class=""button_prompt"">
                        <b>请用数字键1-3回答</b>
                        </div>","","","","","","","","","","","","","","","","","","",""
"719","null","sub_response","html-keyboard-response","231","393339","0.0-1.0-9.0-3.0-2.11","11:00:07","2","","","","","","","<div style='text-align: center;'>
                            <span style=""color: green; font-size: 40px""><b>正确！+1 pts</b></span></div>
                            ","","learn","3","3","3","learn","1","1","[0, 1, 2]","11","1","setsize","10S3A","animals","2","1","1","1",""
"null","null","fixation","html-keyboard-response","232","393843","0.0-1.0-9.0-3.0-0.12","11:00:07","2","","","","","","","fixation","","","","","","","","","","","","","","","","","","",""
"685","1","pic_response","html-keyboard-response","233","394529","0.0-1.0-9.0-3.0-1.12","11:00:07","2","","","","","","","<div>
            <img class='stim' src=""pictures/animals/1.jpg""></div><div class=""button_prompt"">
                        <b>请用数字键1-3回答</b>
                        </div>","","","","","","","","","","","","","","","","","","",""
"685","null","sub_response","html-keyboard-response","234","395534","0.0-1.0-9.0-3.0-2.12","11:00:07","2","","","","","","","<div style='text-align: center;'>
                            <span style=""color: green; font-size: 40px""><b>正确！+1 pts</b></span></div>
                            ","","learn","1","1","1","learn","0","0","[0, 1, 2]","12","1","setsize","10S3A","animals","2","2","0","1",""
"null","null","fixation","html-keyboard-response","235","396036","0.0-1.0-9.0-3.0-0.13","11:00:07","2","","","","","","","fixation","","","","","","","","","","","","","","","","","","",""
"739","1","pic_response","html-keyboard-response","236","396776","0.0-1.0-9.0-3.0-1.13","11:00:07","2","","","","","","","<div>
            <img class='stim' src=""pictures/animals/0.jpg""></div><div class=""button_prompt"">
                        <b>请用数字键1-3回答</b>
                        </div>","","","","","","","","","","","","","","","","","","",""
"739","null","sub_response","html-keyboard-response","237","397783","0.0-1.0-9.0-3.0-2.13","11:00:07","2","","","","","","","<div style='text-align: center;'>
                            <span style=""color: green; font-size: 40px""><b>正确！+1 pts</b></span></div>
                            ","","learn","0","0","0","learn","0","0","[0, 1, 2]","13","1","setsize","10S3A","animals","2","3","0","1",""
"null","null","fixation","html-keyboard-response","238","398297","0.0-1.0-9.0-3.0-0.14","11:00:07","2","","","","","","","fixation","","","","","","","","","","","","","","","","","","",""
"1238","2","pic_response","html-keyboard-response","239","399536","0.0-1.0-9.0-3.0-1.14","11:00:07","2","","","","","","","<div>
            <img class='stim' src=""pictures/animals/6.jpg""></div><div class=""button_prompt"">
                        <b>请用数字键1-3回答</b>
                        </div>","","","","","","","","","","","","","","","","","","",""
"1238","null","sub_response","html-keyboard-response","240","400541","0.0-1.0-9.0-3.0-2.14","11:00:07","2","","","","","","","<div style='text-align: center;'>
                            <span style=""color: red; font-size: 40px""><b>错误！+0 pts</b></span></div>
                            ","","learn","6","6","6","learn","2","2","[0, 1, 2]","14","1","setsize","10S3A","animals","2","0","1","0",""
"null","null","fixation","html-keyboard-response","241","401045","0.0-1.0-9.0-3.0-0.15","11:00:07","2","","","","","","","fixation","","","","","","","","","","","","","","","","","","",""
"2089","3","pic_response","html-keyboard-response","242","403135","0.0-1.0-9.0-3.0-1.15","11:00:07","2","","","","","","","<div>
            <img class='stim' src=""pictures/animals/7.jpg""></div><div class=""button_prompt"">
                        <b>请用数字键1-3回答</b>
                        </div>","","","","","","","","","","","","","","","","","","",""
"2089","null","sub_response","html-keyboard-response","243","404137","0.0-1.0-9.0-3.0-2.15","11:00:07","2","","","","","","","<div style='text-align: center;'>
                            <span style=""color: green; font-size: 40px""><b>正确！+1 pts</b></span></div>
                            ","","learn","7","7","7","learn","2","2","[0, 1, 2]","15","1","setsize","10S3A","animals","2","1","2","1",""
"null","null","fixation","html-keyboard-response","244","404643","0.0-1.0-9.0-3.0-0.16","11:00:07","2","","","","","","","fixation","","","","","","","","","","","","","","","","","","",""
"732","3","pic_response","html-keyboard-response","245","405376","0.0-1.0-9.0-3.0-1.16","11:00:07","2","","","","","","","<div>
            <img class='stim' src=""pictures/animals/8.jpg""></div><div class=""button_prompt"">
                        <b>请用数字键1-3回答</b>
                        </div>","","","","","","","","","","","","","","","","","","",""
"732","null","sub_response","html-keyboard-response","246","406388","0.0-1.0-9.0-3.0-2.16","11:00:07","2","","","","","","","<div style='text-align: center;'>
                            <span style=""color: green; font-size: 40px""><b>正确！+1 pts</b></span></div>
                            ","","learn","8","8","8","learn","2","2","[0, 1, 2]","16","1","setsize","10S3A","animals","2","2","2","1",""
"null","null","fixation","html-keyboard-response","247","406893","0.0-1.0-9.0-3.0-0.17","11:00:07","2","","","","","","","fixation","","","","","","","","","","","","","","","","","","",""
"922","3","pic_response","html-keyboard-response","248","407816","0.0-1.0-9.0-3.0-1.17","11:00:07","2","","","","","","","<div>
            <img class='stim' src=""pictures/animals/5.jpg""></div><div class=""button_prompt"">
                        <b>请用数字键1-3回答</b>
                        </div>","","","","","","","","","","","","","","","","","","",""
"922","null","sub_response","html-keyboard-response","249","408829","0.0-1.0-9.0-3.0-2.17","11:00:07","2","","","","","","","<div style='text-align: center;'>
                            <span style=""color: red; font-size: 40px""><b>错误！+0 pts</b></span></div>
                            ","","learn","5","5","5","learn","1","1","[0, 1, 2]","17","1","setsize","10S3A","animals","2","0","2","0",""
"null","null","fixation","html-keyboard-response","250","409342","0.0-1.0-9.0-3.0-0.18","11:00:07","2","","","","","","","fixation","","","","","","","","","","","","","","","","","","",""
"1481","1","pic_response","html-keyboard-response","251","410824","0.0-1.0-9.0-3.0-1.18","11:00:07","2","","","","","","","<div>
            <img class='stim' src=""pictures/animals/2.jpg""></div><div class=""button_prompt"">
                        <b>请用数字键1-3回答</b>
                        </div>","","","","","","","","","","","","","","","","","","",""
"1481","null","sub_response","html-keyboard-response","252","411826","0.0-1.0-9.0-3.0-2.18","11:00:07","2","","","","","","","<div style='text-align: center;'>
                            <span style=""color: green; font-size: 40px""><b>正确！+1 pts</b></span></div>
                            ","","learn","2","2","2","learn","0","0","[0, 1, 2]","18","1","setsize","10S3A","animals","2","1","0","1",""
"null","null","fixation","html-keyboard-response","253","412332","0.0-1.0-9.0-3.0-0.19","11:00:07","2","","","","","","","fixation","","","","","","","","","","","","","","","","","","",""
"1131","3","pic_response","html-keyboard-response","254","413464","0.0-1.0-9.0-3.0-1.19","11:00:07","2","","","","","","","<div>
            <img class='stim' src=""pictures/animals/4.jpg""></div><div class=""button_prompt"">
                        <b>请用数字键1-3回答</b>
                        </div>","","","","","","","","","","","","","","","","","","",""
"1131","null","sub_response","html-keyboard-response","255","414467","0.0-1.0-9.0-3.0-2.19","11:00:07","2","","","","","","","<div style='text-align: center;'>
                            <span style=""color: red; font-size: 40px""><b>错误！+0 pts</b></span></div>
                            ","","learn","4","4","4","learn","1","1","[0, 1, 2]","19","1","setsize","10S3A","animals","2","0","2","0",""
"null","null","fixation","html-keyboard-response","256","414982","0.0-1.0-9.0-3.0-0.20","11:00:07","2","","","","","","","fixation","","","","","","","","","","","","","","","","","","",""
"881","1","pic_response","html-keyboard-response","257","415864","0.0-1.0-9.0-3.0-1.20","11:00:07","2","","","","","","","<div>
            <img class='stim' src=""pictures/animals/2.jpg""></div><div class=""button_prompt"">
                        <b>请用数字键1-3回答</b>
                        </div>","","","","","","","","","","","","","","","","","","",""
"881","null","sub_response","html-keyboard-response","258","416866","0.0-1.0-9.0-3.0-2.20","11:00:07","2","","","","","","","<div style='text-align: center;'>
                            <span style=""color: green; font-size: 40px""><b>正确！+1 pts</b></span></div>
                            ","","learn","2","2","2","learn","0","0","[0, 1, 2]","20","2","setsize","10S3A","animals","2","1","0","1",""
"null","null","fixation","html-keyboard-response","259","417369","0.0-1.0-9.0-3.0-0.21","11:00:07","2","","","","","","","fixation","","","","","","","","","","","","","","","","","","",""
"621","3","pic_response","html-keyboard-response","260","417991","0.0-1.0-9.0-3.0-1.21","11:00:07","2","","","","","","","<div>
            <img class='stim' src=""pictures/animals/8.jpg""></div><div class=""button_prompt"">
                        <b>请用数字键1-3回答</b>
                        </div>","","","","","","","","","","","","","","","","","","",""
"621","null","sub_response","html-keyboard-response","261","418993","0.0-1.0-9.0-3.0-2.21","11:00:07","2","","","","","","","<div style='text-align: center;'>
                            <span style=""color: green; font-size: 40px""><b>正确！+1 pts</b></span></div>
                            ","","learn","8","8","8","learn","2","2","[0, 1, 2]","21","2","setsize","10S3A","animals","2","2","2","1",""
"null","null","fixation","html-keyboard-response","262","419498","0.0-1.0-9.0-3.0-0.22","11:00:07","2","","","","","","","fixation","","","","","","","","","","","","","","","","","","",""
"701","1","pic_response","html-keyboard-response","263","420200","0.0-1.0-9.0-3.0-1.22","11:00:07","2","","","","","","","<div>
            <img class='stim' src=""pictures/animals/1.jpg""></div><div class=""button_prompt"">
                        <b>请用数字键1-3回答</b>
                        </div>","","","","","","","","","","","","","","","","","","",""
"701","null","sub_response","html-keyboard-response","264","421204","0.0-1.0-9.0-3.0-2.22","11:00:07","2","","","","","","","<div style='text-align: center;'>
                            <span style=""color: green; font-size: 40px""><b>正确！+1 pts</b></span></div>
                            ","","learn","1","1","1","learn","0","0","[0, 1, 2]","22","2","setsize","10S3A","animals","2","3","0","1",""
"null","null","fixation","html-keyboard-response","265","421707","0.0-1.0-9.0-3.0-0.23","11:00:07","2","","","","","","","fixation","","","","","","","","","","","","","","","","","","",""
"1011","3","pic_response","html-keyboard-response","266","422719","0.0-1.0-9.0-3.0-1.23","11:00:07","2","","","","","","","<div>
            <img class='stim' src=""pictures/animals/4.jpg""></div><div class=""button_prompt"">
                        <b>请用数字键1-3回答</b>
                        </div>","","","","","","","","","","","","","","","","","","",""
"1011","null","sub_response","html-keyboard-response","267","423724","0.0-1.0-9.0-3.0-2.23","11:00:07","2","","","","","","","<div style='text-align: center;'>
                            <span style=""color: red; font-size: 40px""><b>错误！+0 pts</b></span></div>
                            ","","learn","4","4","4","learn","1","1","[0, 1, 2]","23","2","setsize","10S3A","animals","2","0","2","0",""
"null","null","fixation","html-keyboard-response","268","424228","0.0-1.0-9.0-3.0-0.24","11:00:07","2","","","","","","","fixation","","","","","","","","","","","","","","","","","","",""
"2243","3","pic_response","html-keyboard-response","269","426472","0.0-1.0-9.0-3.0-1.24","11:00:07","2","","","","","","","<div>
            <img class='stim' src=""pictures/animals/6.jpg""></div><div class=""button_prompt"">
                        <b>请用数字键1-3回答</b>
                        </div>","","","","","","","","","","","","","","","","","","",""
"2243","null","sub_response","html-keyboard-response","270","427474","0.0-1.0-9.0-3.0-2.24","11:00:07","2","","","","","","","<div style='text-align: center;'>
                            <span style=""color: green; font-size: 40px""><b>正确！+1 pts</b></span></div>
                            ","","learn","6","6","6","learn","2","2","[0, 1, 2]","24","2","setsize","10S3A","animals","2","1","2","1",""
"null","null","fixation","html-keyboard-response","271","427980","0.0-1.0-9.0-3.0-0.25","11:00:07","2","","","","","","","fixation","","","","","","","","","","","","","","","","","","",""
"1330","2","pic_response","html-keyboard-response","272","429310","0.0-1.0-9.0-3.0-1.25","11:00:07","2","","","","","","","<div>
            <img class='stim' src=""pictures/animals/5.jpg""></div><div class=""button_prompt"">
                        <b>请用数字键1-3回答</b>
                        </div>","","","","","","","","","","","","","","","","","","",""
"1330","null","sub_response","html-keyboard-response","273","430321","0.0-1.0-9.0-3.0-2.25","11:00:07","2","","","","","","","<div style='text-align: center;'>
                            <span style=""color: green; font-size: 40px""><b>正确！+1 pts</b></span></div>
                            ","","learn","5","5","5","learn","1","1","[0, 1, 2]","25","2","setsize","10S3A","animals","2","2","1","1",""
"null","null","fixation","html-keyboard-response","274","430835","0.0-1.0-9.0-3.0-0.26","11:00:07","2","","","","","","","fixation","","","","","","","","","","","","","","","","","","",""
"1618","3","pic_response","html-keyboard-response","275","432454","0.0-1.0-9.0-3.0-1.26","11:00:07","2","","","","","","","<div>
            <img class='stim' src=""pictures/animals/9.jpg""></div><div class=""button_prompt"">
                        <b>请用数字键1-3回答</b>
                        </div>","","","","","","","","","","","","","","","","","","",""
"1618","null","sub_response","html-keyboard-response","276","433470","0.0-1.0-9.0-3.0-2.26","11:00:07","2","","","","","","","<div style='text-align: center;'>
                            <span style=""color: green; font-size: 40px""><b>正确！+1 pts</b></span></div>
                            ","","learn","9","9","9","learn","2","2","[0, 1, 2]","26","2","setsize","10S3A","animals","2","3","2","1",""
"null","null","fixation","html-keyboard-response","277","433974","0.0-1.0-9.0-3.0-0.27","11:00:07","2","","","","","","","fixation","","","","","","","","","","","","","","","","","","",""
"767","3","pic_response","html-keyboard-response","278","434742","0.0-1.0-9.0-3.0-1.27","11:00:07","2","","","","","","","<div>
            <img class='stim' src=""pictures/animals/7.jpg""></div><div class=""button_prompt"">
                        <b>请用数字键1-3回答</b>
                        </div>","","","","","","","","","","","","","","","","","","",""
"767","null","sub_response","html-keyboard-response","279","435744","0.0-1.0-9.0-3.0-2.27","11:00:07","2","","","","","","","<div style='text-align: center;'>
                            <span style=""color: green; font-size: 40px""><b>正确！+1 pts</b></span></div>
                            ","","learn","7","7","7","learn","2","2","[0, 1, 2]","27","2","setsize","10S3A","animals","2","4","2","1",""
"null","null","fixation","html-keyboard-response","280","436260","0.0-1.0-9.0-3.0-0.28","11:00:07","2","","","","","","","fixation","","","","","","","","","","","","","","","","","","",""
"1041","2","pic_response","html-keyboard-response","281","437302","0.0-1.0-9.0-3.0-1.28","11:00:07","2","","","","","","","<div>
            <img class='stim' src=""pictures/animals/3.jpg""></div><div class=""button_prompt"">
                        <b>请用数字键1-3回答</b>
                        </div>","","","","","","","","","","","","","","","","","","",""
"1041","null","sub_response","html-keyboard-response","282","438312","0.0-1.0-9.0-3.0-2.28","11:00:07","2","","","","","","","<div style='text-align: center;'>
                            <span style=""color: green; font-size: 40px""><b>正确！+1 pts</b></span></div>
                            ","","learn","3","3","3","learn","1","1","[0, 1, 2]","28","2","setsize","10S3A","animals","2","5","1","1",""
"null","null","fixation","html-keyboard-response","283","438827","0.0-1.0-9.0-3.0-0.29","11:00:07","2","","","","","","","fixation","","","","","","","","","","","","","","","","","","",""
"1122","1","pic_response","html-keyboard-response","284","439951","0.0-1.0-9.0-3.0-1.29","11:00:07","2","","","","","","","<div>
            <img class='stim' src=""pictures/animals/0.jpg""></div><div class=""button_prompt"">
                        <b>请用数字键1-3回答</b>
                        </div>","","","","","","","","","","","","","","","","","","",""
"1122","null","sub_response","html-keyboard-response","285","440953","0.0-1.0-9.0-3.0-2.29","11:00:07","2","","","","","","","<div style='text-align: center;'>
                            <span style=""color: green; font-size: 40px""><b>正确！+1 pts</b></span></div>
                            ","","learn","0","0","0","learn","0","0","[0, 1, 2]","29","2","setsize","10S3A","animals","2","6","0","1",""
"null","null","fixation","html-keyboard-response","286","441455","0.0-1.0-9.0-3.0-0.30","11:00:07","2","","","","","","","fixation","","","","","","","","","","","","","","","","","","",""
"814","1","pic_response","html-keyboard-response","287","442270","0.0-1.0-9.0-3.0-1.30","11:00:07","2","","","","","","","<div>
            <img class='stim' src=""pictures/animals/1.jpg""></div><div class=""button_prompt"">
                        <b>请用数字键1-3回答</b>
                        </div>","","","","","","","","","","","","","","","","","","",""
"814","null","sub_response","html-keyboard-response","288","443272","0.0-1.0-9.0-3.0-2.30","11:00:07","2","","","","","","","<div style='text-align: center;'>
                            <span style=""color: green; font-size: 40px""><b>正确！+1 pts</b></span></div>
                            ","","learn","1","1","1","learn","0","0","[0, 1, 2]","30","3","setsize","10S3A","animals","2","7","0","1",""
"null","null","fixation","html-keyboard-response","289","443778","0.0-1.0-9.0-3.0-0.31","11:00:07","2","","","","","","","fixation","","","","","","","","","","","","","","","","","","",""
"886","3","pic_response","html-keyboard-response","290","444664","0.0-1.0-9.0-3.0-1.31","11:00:07","2","","","","","","","<div>
            <img class='stim' src=""pictures/animals/7.jpg""></div><div class=""button_prompt"">
                        <b>请用数字键1-3回答</b>
                        </div>","","","","","","","","","","","","","","","","","","",""
"886","null","sub_response","html-keyboard-response","291","445672","0.0-1.0-9.0-3.0-2.31","11:00:07","2","","","","","","","<div style='text-align: center;'>
                            <span style=""color: green; font-size: 40px""><b>正确！+1 pts</b></span></div>
                            ","","learn","7","7","7","learn","2","2","[0, 1, 2]","31","3","setsize","10S3A","animals","2","8","2","1",""
"null","null","fixation","html-keyboard-response","292","446176","0.0-1.0-9.0-3.0-0.32","11:00:07","2","","","","","","","fixation","","","","","","","","","","","","","","","","","","",""
"709","2","pic_response","html-keyboard-response","293","446886","0.0-1.0-9.0-3.0-1.32","11:00:07","2","","","","","","","<div>
            <img class='stim' src=""pictures/animals/3.jpg""></div><div class=""button_prompt"">
                        <b>请用数字键1-3回答</b>
                        </div>","","","","","","","","","","","","","","","","","","",""
"709","null","sub_response","html-keyboard-response","294","447892","0.0-1.0-9.0-3.0-2.32","11:00:07","2","","","","","","","<div style='text-align: center;'>
                            <span style=""color: green; font-size: 40px""><b>正确！+1 pts</b></span></div>
                            ","","learn","3","3","3","learn","1","1","[0, 1, 2]","32","3","setsize","10S3A","animals","2","9","1","1",""
"null","null","fixation","html-keyboard-response","295","448395","0.0-1.0-9.0-3.0-0.33","11:00:07","2","","","","","","","fixation","","","","","","","","","","","","","","","","","","",""
"2123","3","pic_response","html-keyboard-response","296","450519","0.0-1.0-9.0-3.0-1.33","11:00:07","2","","","","","","","<div>
            <img class='stim' src=""pictures/animals/6.jpg""></div><div class=""button_prompt"">
                        <b>请用数字键1-3回答</b>
                        </div>","","","","","","","","","","","","","","","","","","",""
"2123","null","sub_response","html-keyboard-response","297","451522","0.0-1.0-9.0-3.0-2.33","11:00:07","2","","","","","","","<div style='text-align: center;'>
                            <span style=""color: green; font-size: 40px""><b>正确！+1 pts</b></span></div>
                            ","","learn","6","6","6","learn","2","2","[0, 1, 2]","33","3","setsize","10S3A","animals","2","10","2","1",""
"null","null","fixation","html-keyboard-response","298","452038","0.0-1.0-9.0-3.0-0.34","11:00:07","2","","","","","","","fixation","","","","","","","","","","","","","","","","","","",""
"1119","1","pic_response","html-keyboard-response","299","453159","0.0-1.0-9.0-3.0-1.34","11:00:07","2","","","","","","","<div>
            <img class='stim' src=""pictures/animals/2.jpg""></div><div class=""button_prompt"">
                        <b>请用数字键1-3回答</b>
                        </div>","","","","","","","","","","","","","","","","","","",""
"1119","null","sub_response","html-keyboard-response","300","454163","0.0-1.0-9.0-3.0-2.34","11:00:07","2","","","","","","","<div style='text-align: center;'>
                            <span style=""color: green; font-size: 40px""><b>正确！+1 pts</b></span></div>
                            ","","learn","2","2","2","learn","0","0","[0, 1, 2]","34","3","setsize","10S3A","animals","2","11","0","1",""
"null","null","fixation","html-keyboard-response","301","454677","0.0-1.0-9.0-3.0-0.35","11:00:07","2","","","","","","","fixation","","","","","","","","","","","","","","","","","","",""
"715","3","pic_response","html-keyboard-response","302","455393","0.0-1.0-9.0-3.0-1.35","11:00:07","2","","","","","","","<div>
            <img class='stim' src=""pictures/animals/8.jpg""></div><div class=""button_prompt"">
                        <b>请用数字键1-3回答</b>
                        </div>","","","","","","","","","","","","","","","","","","",""
"715","null","sub_response","html-keyboard-response","303","456397","0.0-1.0-9.0-3.0-2.35","11:00:07","2","","","","","","","<div style='text-align: center;'>
                            <span style=""color: green; font-size: 40px""><b>正确！+1 pts</b></span></div>
                            ","","learn","8","8","8","learn","2","2","[0, 1, 2]","35","3","setsize","10S3A","animals","2","12","2","1",""
"null","null","fixation","html-keyboard-response","304","456903","0.0-1.0-9.0-3.0-0.36","11:00:07","2","","","","","","","fixation","","","","","","","","","","","","","","","","","","",""
"686","1","pic_response","html-keyboard-response","305","457590","0.0-1.0-9.0-3.0-1.36","11:00:07","2","","","","","","","<div>
            <img class='stim' src=""pictures/animals/4.jpg""></div><div class=""button_prompt"">
                        <b>请用数字键1-3回答</b>
                        </div>","","","","","","","","","","","","","","","","","","",""
"686","null","sub_response","html-keyboard-response","306","458596","0.0-1.0-9.0-3.0-2.36","11:00:07","2","","","","","","","<div style='text-align: center;'>
                            <span style=""color: red; font-size: 40px""><b>错误！+0 pts</b></span></div>
                            ","","learn","4","4","4","learn","1","1","[0, 1, 2]","36","3","setsize","10S3A","animals","2","0","0","0",""
"null","null","fixation","html-keyboard-response","307","459098","0.0-1.0-9.0-3.0-0.37","11:00:07","2","","","","","","","fixation","","","","","","","","","","","","","","","","","","",""
"1908","1","pic_response","html-keyboard-response","308","461007","0.0-1.0-9.0-3.0-1.37","11:00:07","2","","","","","","","<div>
            <img class='stim' src=""pictures/animals/0.jpg""></div><div class=""button_prompt"">
                        <b>请用数字键1-3回答</b>
                        </div>","","","","","","","","","","","","","","","","","","",""
"1908","null","sub_response","html-keyboard-response","309","462012","0.0-1.0-9.0-3.0-2.37","11:00:07","2","","","","","","","<div style='text-align: center;'>
                            <span style=""color: green; font-size: 40px""><b>正确！+1 pts</b></span></div>
                            ","","learn","0","0","0","learn","0","0","[0, 1, 2]","37","3","setsize","10S3A","animals","2","1","0","1",""
"null","null","fixation","html-keyboard-response","310","462516","0.0-1.0-9.0-3.0-0.38","11:00:07","2","","","","","","","fixation","","","","","","","","","","","","","","","","","","",""
"937","2","pic_response","html-keyboard-response","311","463454","0.0-1.0-9.0-3.0-1.38","11:00:07","2","","","","","","","<div>
            <img class='stim' src=""pictures/animals/5.jpg""></div><div class=""button_prompt"">
                        <b>请用数字键1-3回答</b>
                        </div>","","","","","","","","","","","","","","","","","","",""
"937","null","sub_response","html-keyboard-response","312","464458","0.0-1.0-9.0-3.0-2.38","11:00:07","2","","","","","","","<div style='text-align: center;'>
                            <span style=""color: green; font-size: 40px""><b>正确！+1 pts</b></span></div>
                            ","","learn","5","5","5","learn","1","1","[0, 1, 2]","38","3","setsize","10S3A","animals","2","2","1","1",""
"null","null","fixation","html-keyboard-response","313","464962","0.0-1.0-9.0-3.0-0.39","11:00:07","2","","","","","","","fixation","","","","","","","","","","","","","","","","","","",""
"819","3","pic_response","html-keyboard-response","314","465783","0.0-1.0-9.0-3.0-1.39","11:00:07","2","","","","","","","<div>
            <img class='stim' src=""pictures/animals/9.jpg""></div><div class=""button_prompt"">
                        <b>请用数字键1-3回答</b>
                        </div>","","","","","","","","","","","","","","","","","","",""
"819","null","sub_response","html-keyboard-response","315","466785","0.0-1.0-9.0-3.0-2.39","11:00:07","2","","","","","","","<div style='text-align: center;'>
                            <span style=""color: green; font-size: 40px""><b>正确！+1 pts</b></span></div>
                            ","","learn","9","9","9","learn","2","2","[0, 1, 2]","39","3","setsize","10S3A","animals","2","3","2","1",""
"null","null","fixation","html-keyboard-response","316","467290","0.0-1.0-9.0-3.0-0.40","11:00:07","2","","","","","","","fixation","","","","","","","","","","","","","","","","","","",""
"652","3","pic_response","html-keyboard-response","317","467943","0.0-1.0-9.0-3.0-1.40","11:00:07","2","","","","","","","<div>
            <img class='stim' src=""pictures/animals/9.jpg""></div><div class=""button_prompt"">
                        <b>请用数字键1-3回答</b>
                        </div>","","","","","","","","","","","","","","","","","","",""
"652","null","sub_response","html-keyboard-response","318","468951","0.0-1.0-9.0-3.0-2.40","11:00:07","2","","","","","","","<div style='text-align: center;'>
                            <span style=""color: green; font-size: 40px""><b>正确！+1 pts</b></span></div>
