"rt","response","screen_id","trial_type","trial_index","time_elapsed","internal_node_id","start_time","n_Prac","success","timeout","failed_images","failed_audio","failed_video","view_history","stimulus","question_order","stage","s","word","word_id","phase","a_cor","a_real","a_ava","trial","tps","task_type","block_typ","pic_typ","block_id","cum_r","a","r","plugin_name"
"95685","{""sub_id"":""98"",""task_type"":""task1"",""name"":""辛知瑶"",""gender"":""F""}","basic_info","survey-html-form","0","95695","0.0-0.0","11:28:41","2","","","","","","","","","","","","","","","","","","","","","","","","","",""
"","","","preload","1","97129","0.0-1.0-0.0","11:28:41","2","true","false","[]","[]","[]","","","","","","","","","","","","","","","","","","","","",""
"","","","preload","2","97419","0.0-1.0-1.0","11:28:41","2","true","false","[]","[]","[]","","","","","","","","","","","","","","","","","","","","",""
"","","","fullscreen","3","99576","0.0-1.0-2.0","11:28:41","2","true","","","","","","","","","","","","","","","","","","","","","","","","",""
"50857","","instruct","instructions","4","150434","0.0-1.0-3.0-0.0","11:28:41","2","","","","","","[{""page_index"":0,""viewing_time"":21539},{""page_index"":1,""viewing_time"":17520},{""page_index"":2,""viewing_time"":11797}]","","","","","","","","","","","","","","","","","","","",""
"29859","{""Q0"":"""",""task1"":""<span style='font-size: 24px'>学习图片和数字的对应关系</span>"",""task2"":""<span style='font-size: 24px'> 图片下方标注为可用的数字键（数字键1-3或0-9） </span>"",""task3"":""<span style='font-size: 24px'> 看到图片选出正确对应的数字 </span>""}","question","survey-multi-choice","5","180296","0.0-1.0-3.0-1.0","11:28:41","2","","","","","","","","[0,1,2,3]","","","","","","","","","","","","","","","","","",""
"37976"," ","inst_q","html-keyboard-response","6","218278","0.0-1.0-3.0-2.0","11:28:41","2","","","","","","","inst","","1","","","","","","","","","","","","","","","","",""
"","","","preload","7","218489","0.0-1.0-4.0-0.0","11:28:41","2","true","false","[]","[]","[]","","","","","","","","","","","","","","","","","","","","",""
"875"," ","","html-keyboard-response","8","219364","0.0-1.0-4.0-1.0","11:28:41","2","","","","","","","<div style='font-size: 32px; text-align: center;'
                    <p>请学习图片和数字之间的对应关系</p>
                    <p>我们将<span style='color: blue'><b> 告诉 </b></span>您选择的对错。请根据反馈学习。</p>
                    <p>请按""空格""继续实验。</p></div>","","","","","","","","","","","","","","","","","","",""
"16752"," ","inst","html-keyboard-response","9","236117","0.0-1.0-4.0-2.0","11:28:41","2","","","","","","","<img class='instruct_stim' src=""instruction/prac3.PNG""></div>","","","","","","","","","","","","","","","","","","",""
"null","null","fixation","html-keyboard-response","10","236629","0.0-1.0-4.0-3.0-0.0","11:28:41","2","","","","","","","fixation","","","","","","","","","","","","","","","","","","",""
"1009","1","pic_response","html-keyboard-response","11","237641","0.0-1.0-4.0-3.0-1.0","11:28:41","2","","","","","","","<div>
            <img class='stim' src=""pictures/prac/1.jpg""></div><div class=""button_prompt"">
                        <b>请用数字键1-3回答</b>
                        </div>","","","","","","","","","","","","","","","","","","",""
"1009","null","sub_response","html-keyboard-response","12","238644","0.0-1.0-4.0-3.0-2.0","11:28:41","2","","","","","","","<div style='text-align: center;'>
                            <span style=""color: green; font-size: 40px""><b>正确！+1 pts</b></span></div>
                            ","","learn","1","1","1","learn","0","0","[0, 1, 2]","0","0","setsize","99","prac","0","1","0","1",""
"null","null","fixation","html-keyboard-response","13","239152","0.0-1.0-4.0-3.0-0.1","11:28:41","2","","","","","","","fixation","","","","","","","","","","","","","","","","","","",""
"489","1","pic_response","html-keyboard-response","14","239642","0.0-1.0-4.0-3.0-1.1","11:28:41","2","","","","","","","<div>
            <img class='stim' src=""pictures/prac/2.jpg""></div><div class=""button_prompt"">
                        <b>请用数字键1-3回答</b>
                        </div>","","","","","","","","","","","","","","","","","","",""
"489","null","sub_response","html-keyboard-response","15","240646","0.0-1.0-4.0-3.0-2.1","11:28:41","2","","","","","","","<div style='text-align: center;'>
                            <span style=""color: red; font-size: 40px""><b>错误！+0 pts</b></span></div>
                            ","","learn","2","2","2","learn","2","2","[0, 1, 2]","1","0","setsize","99","prac","0","0","0","0",""
"null","null","fixation","html-keyboard-response","16","241151","0.0-1.0-4.0-3.0-0.2","11:28:41","2","","","","","","","fixation","","","","","","","","","","","","","","","","","","",""
"594","1","pic_response","html-keyboard-response","17","241746","0.0-1.0-4.0-3.0-1.2","11:28:41","2","","","","","","","<div>
            <img class='stim' src=""pictures/prac/0.jpg""></div><div class=""button_prompt"">
                        <b>请用数字键1-3回答</b>
                        </div>","","","","","","","","","","","","","","","","","","",""
"594","null","sub_response","html-keyboard-response","18","242750","0.0-1.0-4.0-3.0-2.2","11:28:41","2","","","","","","","<div style='text-align: center;'>
                            <span style=""color: green; font-size: 40px""><b>正确！+1 pts</b></span></div>
                            ","","learn","0","0","0","learn","0","0","[0, 1, 2]","2","0","setsize","99","prac","0","1","0","1",""
"null","null","fixation","html-keyboard-response","19","243266","0.0-1.0-4.0-3.0-0.3","11:28:41","2","","","","","","","fixation","","","","","","","","","","","","","","","","","","",""
"671","1","pic_response","html-keyboard-response","20","243937","0.0-1.0-4.0-3.0-1.3","11:28:41","2","","","","","","","<div>
            <img class='stim' src=""pictures/prac/0.jpg""></div><div class=""button_prompt"">
                        <b>请用数字键1-3回答</b>
                        </div>","","","","","","","","","","","","","","","","","","",""
"671","null","sub_response","html-keyboard-response","21","244943","0.0-1.0-4.0-3.0-2.3","11:28:41","2","","","","","","","<div style='text-align: center;'>
                            <span style=""color: green; font-size: 40px""><b>正确！+1 pts</b></span></div>
                            ","","learn","0","0","0","learn","0","0","[0, 1, 2]","3","1","setsize","99","prac","0","2","0","1",""
"null","null","fixation","html-keyboard-response","22","245448","0.0-1.0-4.0-3.0-0.4","11:28:41","2","","","","","","","fixation","","","","","","","","","","","","","","","","","","",""
"506","1","pic_response","html-keyboard-response","23","245955","0.0-1.0-4.0-3.0-1.4","11:28:41","2","","","","","","","<div>
            <img class='stim' src=""pictures/prac/1.jpg""></div><div class=""button_prompt"">
                        <b>请用数字键1-3回答</b>
                        </div>","","","","","","","","","","","","","","","","","","",""
"506","null","sub_response","html-keyboard-response","24","246961","0.0-1.0-4.0-3.0-2.4","11:28:41","2","","","","","","","<div style='text-align: center;'>
                            <span style=""color: green; font-size: 40px""><b>正确！+1 pts</b></span></div>
                            ","","learn","1","1","1","learn","0","0","[0, 1, 2]","4","1","setsize","99","prac","0","3","0","1",""
"null","null","fixation","html-keyboard-response","25","247466","0.0-1.0-4.0-3.0-0.5","11:28:41","2","","","","","","","fixation","","","","","","","","","","","","","","","","","","",""
"575","2","pic_response","html-keyboard-response","26","248042","0.0-1.0-4.0-3.0-1.5","11:28:41","2","","","","","","","<div>
            <img class='stim' src=""pictures/prac/2.jpg""></div><div class=""button_prompt"">
                        <b>请用数字键1-3回答</b>
                        </div>","","","","","","","","","","","","","","","","","","",""
"575","null","sub_response","html-keyboard-response","27","249044","0.0-1.0-4.0-3.0-2.5","11:28:41","2","","","","","","","<div style='text-align: center;'>
                            <span style=""color: red; font-size: 40px""><b>错误！+0 pts</b></span></div>
                            ","","learn","2","2","2","learn","2","2","[0, 1, 2]","5","1","setsize","99","prac","0","0","1","0",""
"","","","preload","28","249049","0.0-1.0-4.1-0.1","11:28:41","2","true","false","[]","[]","[]","","","","","","","","","","","","","","","","","","","","",""
"535"," ","","html-keyboard-response","29","249585","0.0-1.0-4.1-1.1","11:28:41","2","","","","","","","<div style='font-size: 32px; text-align: center;'
                    <p>请学习图片和数字之间的对应关系</p>
                    <p>我们将<span style='color: blue'><b> 告诉 </b></span>您选择的对错。请根据反馈学习。</p>
                    <p>请按""空格""继续实验。</p></div>","","","","","","","","","","","","","","","","","","",""
"3528"," ","inst","html-keyboard-response","30","253113","0.0-1.0-4.1-2.1","11:28:41","2","","","","","","","<img class='instruct_stim' src=""instruction/prac3.PNG""></div>","","","","","","","","","","","","","","","","","","",""
"null","null","fixation","html-keyboard-response","31","253627","0.0-1.0-4.1-3.1-0.6","11:28:41","2","","","","","","","fixation","","","","","","","","","","","","","","","","","","",""
"669","1","pic_response","html-keyboard-response","32","254297","0.0-1.0-4.1-3.1-1.6","11:28:41","2","","","","","","","<div>
            <img class='stim' src=""pictures/prac/1.jpg""></div><div class=""button_prompt"">
                        <b>请用数字键1-3回答</b>
                        </div>","","","","","","","","","","","","","","","","","","",""
"669","null","sub_response","html-keyboard-response","33","255302","0.0-1.0-4.1-3.1-2.6","11:28:41","2","","","","","","","<div style='text-align: center;'>
                            <span style=""color: green; font-size: 40px""><b>正确！+1 pts</b></span></div>
                            ","","learn","1","1","1","learn","0","0","[0, 1, 2]","0","0","setsize","99","prac","0","1","0","1",""
"null","null","fixation","html-keyboard-response","34","255805","0.0-1.0-4.1-3.1-0.7","11:28:41","2","","","","","","","fixation","","","","","","","","","","","","","","","","","","",""
"557","3","pic_response","html-keyboard-response","35","256363","0.0-1.0-4.1-3.1-1.7","11:28:41","2","","","","","","","<div>
            <img class='stim' src=""pictures/prac/2.jpg""></div><div class=""button_prompt"">
                        <b>请用数字键1-3回答</b>
                        </div>","","","","","","","","","","","","","","","","","","",""
"557","null","sub_response","html-keyboard-response","36","257366","0.0-1.0-4.1-3.1-2.7","11:28:41","2","","","","","","","<div style='text-align: center;'>
                            <span style=""color: green; font-size: 40px""><b>正确！+1 pts</b></span></div>
                            ","","learn","2","2","2","learn","2","2","[0, 1, 2]","1","0","setsize","99","prac","0","2","2","1",""
"null","null","fixation","html-keyboard-response","37","257867","0.0-1.0-4.1-3.1-0.8","11:28:41","2","","","","","","","fixation","","","","","","","","","","","","","","","","","","",""
"605","1","pic_response","html-keyboard-response","38","258473","0.0-1.0-4.1-3.1-1.8","11:28:41","2","","","","","","","<div>
            <img class='stim' src=""pictures/prac/0.jpg""></div><div class=""button_prompt"">
                        <b>请用数字键1-3回答</b>
                        </div>","","","","","","","","","","","","","","","","","","",""
"605","null","sub_response","html-keyboard-response","39","259483","0.0-1.0-4.1-3.1-2.8","11:28:41","2","","","","","","","<div style='text-align: center;'>
                            <span style=""color: green; font-size: 40px""><b>正确！+1 pts</b></span></div>
                            ","","learn","0","0","0","learn","0","0","[0, 1, 2]","2","0","setsize","99","prac","0","3","0","1",""
"null","null","fixation","html-keyboard-response","40","259986","0.0-1.0-4.1-3.1-0.9","11:28:41","2","","","","","","","fixation","","","","","","","","","","","","","","","","","","",""
"565","1","pic_response","html-keyboard-response","41","260553","0.0-1.0-4.1-3.1-1.9","11:28:41","2","","","","","","","<div>
            <img class='stim' src=""pictures/prac/0.jpg""></div><div class=""button_prompt"">
                        <b>请用数字键1-3回答</b>
                        </div>","","","","","","","","","","","","","","","","","","",""
"565","null","sub_response","html-keyboard-response","42","261554","0.0-1.0-4.1-3.1-2.9","11:28:41","2","","","","","","","<div style='text-align: center;'>
                            <span style=""color: green; font-size: 40px""><b>正确！+1 pts</b></span></div>
                            ","","learn","0","0","0","learn","0","0","[0, 1, 2]","3","1","setsize","99","prac","0","4","0","1",""
"null","null","fixation","html-keyboard-response","43","262060","0.0-1.0-4.1-3.1-0.10","11:28:41","2","","","","","","","fixation","","","","","","","","","","","","","","","","","","",""
"580","1","pic_response","html-keyboard-response","44","262641","0.0-1.0-4.1-3.1-1.10","11:28:41","2","","","","","","","<div>
            <img class='stim' src=""pictures/prac/1.jpg""></div><div class=""button_prompt"">
                        <b>请用数字键1-3回答</b>
                        </div>","","","","","","","","","","","","","","","","","","",""
"580","null","sub_response","html-keyboard-response","45","263656","0.0-1.0-4.1-3.1-2.10","11:28:41","2","","","","","","","<div style='text-align: center;'>
                            <span style=""color: green; font-size: 40px""><b>正确！+1 pts</b></span></div>
                            ","","learn","1","1","1","learn","0","0","[0, 1, 2]","4","1","setsize","99","prac","0","5","0","1",""
"null","null","fixation","html-keyboard-response","46","264159","0.0-1.0-4.1-3.1-0.11","11:28:41","2","","","","","","","fixation","","","","","","","","","","","","","","","","","","",""
"689","3","pic_response","html-keyboard-response","47","264849","0.0-1.0-4.1-3.1-1.11","11:28:41","2","","","","","","","<div>
            <img class='stim' src=""pictures/prac/2.jpg""></div><div class=""button_prompt"">
                        <b>请用数字键1-3回答</b>
                        </div>","","","","","","","","","","","","","","","","","","",""
"689","null","sub_response","html-keyboard-response","48","265865","0.0-1.0-4.1-3.1-2.11","11:28:41","2","","","","","","","<div style='text-align: center;'>
                            <span style=""color: green; font-size: 40px""><b>正确！+1 pts</b></span></div>
                            ","","learn","2","2","2","learn","2","2","[0, 1, 2]","5","1","setsize","99","prac","0","6","2","1",""
"40071"," ","","html-keyboard-response","49","305938","0.0-1.0-5.0","11:28:41","2","","","","","","","<div style=""font-size: 25px""><p>距下一个实验开始还有</p><div style=""font-size: 50px; color: blue""><p><span id=""clock"">1:00</span></div></p><p>按""空格""跳过休息</p></div>","","","","","","","","","","","","","","","","","","",""
"1150"," ","","html-keyboard-response","50","307089","0.0-1.0-6.0","11:28:41","2","","","","","","","<div style='font-size: 32px; text-align: center;'
                    <p>请按""空格""继续正式实验。</p></div>","","","","","","","","","","","","","","","","","","",""
"","","","preload","51","307578","0.0-1.0-7.0-0.0","11:28:41","2","true","false","[]","[]","[]","","","","","","","","","","","","","","","","","","","","",""
"1878"," ","","html-keyboard-response","52","309457","0.0-1.0-7.0-1.0","11:28:41","2","","","","","","","<div style='font-size: 32px; text-align: center;'
                    <p>请学习图片和数字之间的对应关系</p>
                    <p>我们将<span style='color: blue'><b> 告诉 </b></span>您选择的对错。请根据反馈学习。</p>
                    <p>请按""空格""继续实验。</p></div>","","","","","","","","","","","","","","","","","","",""
"20415"," ","inst","html-keyboard-response","53","329873","0.0-1.0-7.0-2.0","11:28:41","2","","","","","","","<img class='instruct_stim' src=""instruction/furniture3.PNG""></div>","","","","","","","","","","","","","","","","","","",""
"null","null","fixation","html-keyboard-response","54","330382","0.0-1.0-7.0-3.0-0.0","11:28:41","2","","","","","","","fixation","","","","","","","","","","","","","","","","","","",""
"1732","0","pic_response","html-keyboard-response","55","332115","0.0-1.0-7.0-3.0-1.0","11:28:41","2","","","","","","","<div>
            <img class='stim' src=""pictures/furniture/2.jpg""></div><div class=""button_prompt"">
                    <b>请用数字键0-9回答</b>
                    </div>","","","","","","","","","","","","","","","","","","",""
"1732","null","sub_response","html-keyboard-response","56","333118","0.0-1.0-7.0-3.0-2.0","11:28:41","2","","","","","","","<div style='text-align: center;'>
                            <span style=""color: green; font-size: 40px""><b>正确！+1 pts</b></span></div>
                            ","","learn","2","2","2","learn","9","9","[0, 1, 2, 3, 4, 5, 6, 7, 8, 9]","0","0","setsize","3S10A","furniture","1","7","9","1",""
"null","null","fixation","html-keyboard-response","57","333622","0.0-1.0-7.0-3.0-0.1","11:28:41","2","","","","","","","fixation","","","","","","","","","","","","","","","","","","",""
"962","0","pic_response","html-keyboard-response","58","334585","0.0-1.0-7.0-3.0-1.1","11:28:41","2","","","","","","","<div>
            <img class='stim' src=""pictures/furniture/1.jpg""></div><div class=""button_prompt"">
                    <b>请用数字键0-9回答</b>
                    </div>","","","","","","","","","","","","","","","","","","",""
"962","null","sub_response","html-keyboard-response","59","335591","0.0-1.0-7.0-3.0-2.1","11:28:41","2","","","","","","","<div style='text-align: center;'>
                            <span style=""color: red; font-size: 40px""><b>错误！+0 pts</b></span></div>
                            ","","learn","1","1","1","learn","6","6","[0, 1, 2, 3, 4, 5, 6, 7, 8, 9]","1","0","setsize","3S10A","furniture","1","0","9","0",""
"null","null","fixation","html-keyboard-response","60","336095","0.0-1.0-7.0-3.0-0.2","11:28:41","2","","","","","","","fixation","","","","","","","","","","","","","","","","","","",""
"642","1","pic_response","html-keyboard-response","61","336737","0.0-1.0-7.0-3.0-1.2","11:28:41","2","","","","","","","<div>
            <img class='stim' src=""pictures/furniture/0.jpg""></div><div class=""button_prompt"">
                    <b>请用数字键0-9回答</b>
                    </div>","","","","","","","","","","","","","","","","","","",""
"642","null","sub_response","html-keyboard-response","62","337751","0.0-1.0-7.0-3.0-2.2","11:28:41","2","","","","","","","<div style='text-align: center;'>
                            <span style=""color: red; font-size: 40px""><b>错误！+0 pts</b></span></div>
                            ","","learn","0","0","0","learn","2","2","[0, 1, 2, 3, 4, 5, 6, 7, 8, 9]","2","0","setsize","3S10A","furniture","1","0","0","0",""
"null","null","fixation","html-keyboard-response","63","338265","0.0-1.0-7.0-3.0-0.3","11:28:41","2","","","","","","","fixation","","","","","","","","","","","","","","","","","","",""
"583","0","pic_response","html-keyboard-response","64","338849","0.0-1.0-7.0-3.0-1.3","11:28:41","2","","","","","","","<div>
            <img class='stim' src=""pictures/furniture/0.jpg""></div><div class=""button_prompt"">
                    <b>请用数字键0-9回答</b>
                    </div>","","","","","","","","","","","","","","","","","","",""
"583","null","sub_response","html-keyboard-response","65","339856","0.0-1.0-7.0-3.0-2.3","11:28:41","2","","","","","","","<div style='text-align: center;'>
                            <span style=""color: red; font-size: 40px""><b>错误！+0 pts</b></span></div>
                            ","","learn","0","0","0","learn","2","2","[0, 1, 2, 3, 4, 5, 6, 7, 8, 9]","3","1","setsize","3S10A","furniture","1","0","9","0",""
"null","null","fixation","html-keyboard-response","66","340362","0.0-1.0-7.0-3.0-0.4","11:28:41","2","","","","","","","fixation","","","","","","","","","","","","","","","","","","",""
"1361","2","pic_response","html-keyboard-response","67","341724","0.0-1.0-7.0-3.0-1.4","11:28:41","2","","","","","","","<div>
            <img class='stim' src=""pictures/furniture/1.jpg""></div><div class=""button_prompt"">
                    <b>请用数字键0-9回答</b>
                    </div>","","","","","","","","","","","","","","","","","","",""
"1361","null","sub_response","html-keyboard-response","68","342728","0.0-1.0-7.0-3.0-2.4","11:28:41","2","","","","","","","<div style='text-align: center;'>
                            <span style=""color: red; font-size: 40px""><b>错误！+0 pts</b></span></div>
                            ","","learn","1","1","1","learn","6","6","[0, 1, 2, 3, 4, 5, 6, 7, 8, 9]","4","1","setsize","3S10A","furniture","1","0","1","0",""
"null","null","fixation","html-keyboard-response","69","343231","0.0-1.0-7.0-3.0-0.5","11:28:41","2","","","","","","","fixation","","","","","","","","","","","","","","","","","","",""
"891","0","pic_response","html-keyboard-response","70","344123","0.0-1.0-7.0-3.0-1.5","11:28:41","2","","","","","","","<div>
            <img class='stim' src=""pictures/furniture/2.jpg""></div><div class=""button_prompt"">
                    <b>请用数字键0-9回答</b>
                    </div>","","","","","","","","","","","","","","","","","","",""
"891","null","sub_response","html-keyboard-response","71","345125","0.0-1.0-7.0-3.0-2.5","11:28:41","2","","","","","","","<div style='text-align: center;'>
                            <span style=""color: green; font-size: 40px""><b>正确！+1 pts</b></span></div>
                            ","","learn","2","2","2","learn","9","9","[0, 1, 2, 3, 4, 5, 6, 7, 8, 9]","5","1","setsize","3S10A","furniture","1","1","9","1",""
"null","null","fixation","html-keyboard-response","72","345628","0.0-1.0-7.0-3.0-0.6","11:28:41","2","","","","","","","fixation","","","","","","","","","","","","","","","","","","",""
"460","3","pic_response","html-keyboard-response","73","346089","0.0-1.0-7.0-3.0-1.6","11:28:41","2","","","","","","","<div>
            <img class='stim' src=""pictures/furniture/0.jpg""></div><div class=""button_prompt"">
                    <b>请用数字键0-9回答</b>
                    </div>","","","","","","","","","","","","","","","","","","",""
"460","null","sub_response","html-keyboard-response","74","347092","0.0-1.0-7.0-3.0-2.6","11:28:41","2","","","","","","","<div style='text-align: center;'>
                            <span style=""color: green; font-size: 40px""><b>正确！+1 pts</b></span></div>
                            ","","learn","0","0","0","learn","2","2","[0, 1, 2, 3, 4, 5, 6, 7, 8, 9]","6","2","setsize","3S10A","furniture","1","2","2","1",""
"null","null","fixation","html-keyboard-response","75","347596","0.0-1.0-7.0-3.0-0.7","11:28:41","2","","","","","","","fixation","","","","","","","","","","","","","","","","","","",""
"852","0","pic_response","html-keyboard-response","76","348449","0.0-1.0-7.0-3.0-1.7","11:28:41","2","","","","","","","<div>
            <img class='stim' src=""pictures/furniture/2.jpg""></div><div class=""button_prompt"">
                    <b>请用数字键0-9回答</b>
                    </div>","","","","","","","","","","","","","","","","","","",""
"852","null","sub_response","html-keyboard-response","77","349458","0.0-1.0-7.0-3.0-2.7","11:28:41","2","","","","","","","<div style='text-align: center;'>
                            <span style=""color: green; font-size: 40px""><b>正确！+1 pts</b></span></div>
                            ","","learn","2","2","2","learn","9","9","[0, 1, 2, 3, 4, 5, 6, 7, 8, 9]","7","2","setsize","3S10A","furniture","1","3","9","1",""
"null","null","fixation","html-keyboard-response","78","349963","0.0-1.0-7.0-3.0-0.8","11:28:41","2","","","","","","","fixation","","","","","","","","","","","","","","","","","","",""
"1734","4","pic_response","html-keyboard-response","79","351697","0.0-1.0-7.0-3.0-1.8","11:28:41","2","","","","","","","<div>
            <img class='stim' src=""pictures/furniture/1.jpg""></div><div class=""button_prompt"">
                    <b>请用数字键0-9回答</b>
                    </div>","","","","","","","","","","","","","","","","","","",""
"1734","null","sub_response","html-keyboard-response","80","352700","0.0-1.0-7.0-3.0-2.8","11:28:41","2","","","","","","","<div style='text-align: center;'>
                            <span style=""color: red; font-size: 40px""><b>错误！+0 pts</b></span></div>
                            ","","learn","1","1","1","learn","6","6","[0, 1, 2, 3, 4, 5, 6, 7, 8, 9]","8","2","setsize","3S10A","furniture","1","0","3","0",""
"null","null","fixation","html-keyboard-response","81","353206","0.0-1.0-7.0-3.0-0.9","11:28:41","2","","","","","","","fixation","","","","","","","","","","","","","","","","","","",""
"741","3","pic_response","html-keyboard-response","82","353947","0.0-1.0-7.0-3.0-1.9","11:28:41","2","","","","","","","<div>
            <img class='stim' src=""pictures/furniture/2.jpg""></div><div class=""button_prompt"">
                    <b>请用数字键0-9回答</b>
                    </div>","","","","","","","","","","","","","","","","","","",""
"741","null","sub_response","html-keyboard-response","83","354951","0.0-1.0-7.0-3.0-2.9","11:28:41","2","","","","","","","<div style='text-align: center;'>
                            <span style=""color: red; font-size: 40px""><b>错误！+0 pts</b></span></div>
                            ","","learn","2","2","2","learn","9","9","[0, 1, 2, 3, 4, 5, 6, 7, 8, 9]","9","3","setsize","3S10A","furniture","1","0","2","0",""
"null","null","fixation","html-keyboard-response","84","355458","0.0-1.0-7.0-3.0-0.10","11:28:41","2","","","","","","","fixation","","","","","","","","","","","","","","","","","","",""
"1070","5","pic_response","html-keyboard-response","85","356530","0.0-1.0-7.0-3.0-1.10","11:28:41","2","","","","","","","<div>
            <img class='stim' src=""pictures/furniture/1.jpg""></div><div class=""button_prompt"">
                    <b>请用数字键0-9回答</b>
                    </div>","","","","","","","","","","","","","","","","","","",""
"1070","null","sub_response","html-keyboard-response","86","357531","0.0-1.0-7.0-3.0-2.10","11:28:41","2","","","","","","","<div style='text-align: center;'>
                            <span style=""color: red; font-size: 40px""><b>错误！+0 pts</b></span></div>
                            ","","learn","1","1","1","learn","6","6","[0, 1, 2, 3, 4, 5, 6, 7, 8, 9]","10","3","setsize","3S10A","furniture","1","0","4","0",""
"null","null","fixation","html-keyboard-response","87","358048","0.0-1.0-7.0-3.0-0.11","11:28:41","2","","","","","","","fixation","","","","","","","","","","","","","","","","","","",""
"656","3","pic_response","html-keyboard-response","88","358705","0.0-1.0-7.0-3.0-1.11","11:28:41","2","","","","","","","<div>
            <img class='stim' src=""pictures/furniture/0.jpg""></div><div class=""button_prompt"">
                    <b>请用数字键0-9回答</b>
                    </div>","","","","","","","","","","","","","","","","","","",""
"656","null","sub_response","html-keyboard-response","89","359708","0.0-1.0-7.0-3.0-2.11","11:28:41","2","","","","","","","<div style='text-align: center;'>
                            <span style=""color: green; font-size: 40px""><b>正确！+1 pts</b></span></div>
                            ","","learn","0","0","0","learn","2","2","[0, 1, 2, 3, 4, 5, 6, 7, 8, 9]","11","3","setsize","3S10A","furniture","1","1","2","1",""
"null","null","fixation","html-keyboard-response","90","360212","0.0-1.0-7.0-3.0-0.12","11:28:41","2","","","","","","","fixation","","","","","","","","","","","","","","","","","","",""
"1096","3","pic_response","html-keyboard-response","91","361309","0.0-1.0-7.0-3.0-1.12","11:28:41","2","","","","","","","<div>
            <img class='stim' src=""pictures/furniture/0.jpg""></div><div class=""button_prompt"">
                    <b>请用数字键0-9回答</b>
                    </div>","","","","","","","","","","","","","","","","","","",""
"1096","null","sub_response","html-keyboard-response","92","362311","0.0-1.0-7.0-3.0-2.12","11:28:41","2","","","","","","","<div style='text-align: center;'>
                            <span style=""color: green; font-size: 40px""><b>正确！+1 pts</b></span></div>
                            ","","learn","0","0","0","learn","2","2","[0, 1, 2, 3, 4, 5, 6, 7, 8, 9]","12","4","setsize","3S10A","furniture","1","2","2","1",""
"null","null","fixation","html-keyboard-response","93","362815","0.0-1.0-7.0-3.0-0.13","11:28:41","2","","","","","","","fixation","","","","","","","","","","","","","","","","","","",""
"689","0","pic_response","html-keyboard-response","94","363506","0.0-1.0-7.0-3.0-1.13","11:28:41","2","","","","","","","<div>
            <img class='stim' src=""pictures/furniture/2.jpg""></div><div class=""button_prompt"">
                    <b>请用数字键0-9回答</b>
                    </div>","","","","","","","","","","","","","","","","","","",""
"689","null","sub_response","html-keyboard-response","95","364510","0.0-1.0-7.0-3.0-2.13","11:28:41","2","","","","","","","<div style='text-align: center;'>
                            <span style=""color: green; font-size: 40px""><b>正确！+1 pts</b></span></div>
                            ","","learn","2","2","2","learn","9","9","[0, 1, 2, 3, 4, 5, 6, 7, 8, 9]","13","4","setsize","3S10A","furniture","1","3","9","1",""
"null","null","fixation","html-keyboard-response","96","365020","0.0-1.0-7.0-3.0-0.14","11:28:41","2","","","","","","","fixation","","","","","","","","","","","","","","","","","","",""
"1094","6","pic_response","html-keyboard-response","97","366114","0.0-1.0-7.0-3.0-1.14","11:28:41","2","","","","","","","<div>
            <img class='stim' src=""pictures/furniture/1.jpg""></div><div class=""button_prompt"">
                    <b>请用数字键0-9回答</b>
                    </div>","","","","","","","","","","","","","","","","","","",""
"1094","null","sub_response","html-keyboard-response","98","367118","0.0-1.0-7.0-3.0-2.14","11:28:41","2","","","","","","","<div style='text-align: center;'>
                            <span style=""color: red; font-size: 40px""><b>错误！+0 pts</b></span></div>
                            ","","learn","1","1","1","learn","6","6","[0, 1, 2, 3, 4, 5, 6, 7, 8, 9]","14","4","setsize","3S10A","furniture","1","0","5","0",""
"null","null","fixation","html-keyboard-response","99","367623","0.0-1.0-7.0-3.0-0.15","11:28:41","2","","","","","","","fixation","","","","","","","","","","","","","","","","","","",""
"690","3","pic_response","html-keyboard-response","100","368315","0.0-1.0-7.0-3.0-1.15","11:28:41","2","","","","","","","<div>
            <img class='stim' src=""pictures/furniture/0.jpg""></div><div class=""button_prompt"">
                    <b>请用数字键0-9回答</b>
                    </div>","","","","","","","","","","","","","","","","","","",""
"690","null","sub_response","html-keyboard-response","101","369319","0.0-1.0-7.0-3.0-2.15","11:28:41","2","","","","","","","<div style='text-align: center;'>
                            <span style=""color: green; font-size: 40px""><b>正确！+1 pts</b></span></div>
                            ","","learn","0","0","0","learn","2","2","[0, 1, 2, 3, 4, 5, 6, 7, 8, 9]","15","5","setsize","3S10A","furniture","1","1","2","1",""
"null","null","fixation","html-keyboard-response","102","369824","0.0-1.0-7.0-3.0-0.16","11:28:41","2","","","","","","","fixation","","","","","","","","","","","","","","","","","","",""
"894","7","pic_response","html-keyboard-response","103","370720","0.0-1.0-7.0-3.0-1.16","11:28:41","2","","","","","","","<div>
            <img class='stim' src=""pictures/furniture/1.jpg""></div><div class=""button_prompt"">
                    <b>请用数字键0-9回答</b>
                    </div>","","","","","","","","","","","","","","","","","","",""
"894","null","sub_response","html-keyboard-response","104","371724","0.0-1.0-7.0-3.0-2.16","11:28:41","2","","","","","","","<div style='text-align: center;'>
                            <span style=""color: green; font-size: 40px""><b>正确！+1 pts</b></span></div>
                            ","","learn","1","1","1","learn","6","6","[0, 1, 2, 3, 4, 5, 6, 7, 8, 9]","16","5","setsize","3S10A","furniture","1","2","6","1",""
"null","null","fixation","html-keyboard-response","105","372226","0.0-1.0-7.0-3.0-0.17","11:28:41","2","","","","","","","fixation","","","","","","","","","","","","","","","","","","",""
"705","0","pic_response","html-keyboard-response","106","372932","0.0-1.0-7.0-3.0-1.17","11:28:41","2","","","","","","","<div>
            <img class='stim' src=""pictures/furniture/2.jpg""></div><div class=""button_prompt"">
                    <b>请用数字键0-9回答</b>
                    </div>","","","","","","","","","","","","","","","","","","",""
"705","null","sub_response","html-keyboard-response","107","373942","0.0-1.0-7.0-3.0-2.17","11:28:41","2","","","","","","","<div style='text-align: center;'>
                            <span style=""color: green; font-size: 40px""><b>正确！+1 pts</b></span></div>
                            ","","learn","2","2","2","learn","9","9","[0, 1, 2, 3, 4, 5, 6, 7, 8, 9]","17","5","setsize","3S10A","furniture","1","3","9","1",""
"null","null","fixation","html-keyboard-response","108","374446","0.0-1.0-7.0-3.0-0.18","11:28:41","2","","","","","","","fixation","","","","","","","","","","","","","","","","","","",""
"536","3","pic_response","html-keyboard-response","109","374983","0.0-1.0-7.0-3.0-1.18","11:28:41","2","","","","","","","<div>
            <img class='stim' src=""pictures/furniture/0.jpg""></div><div class=""button_prompt"">
                    <b>请用数字键0-9回答</b>
                    </div>","","","","","","","","","","","","","","","","","","",""
"536","null","sub_response","html-keyboard-response","110","375991","0.0-1.0-7.0-3.0-2.18","11:28:41","2","","","","","","","<div style='text-align: center;'>
                            <span style=""color: green; font-size: 40px""><b>正确！+1 pts</b></span></div>
                            ","","learn","0","0","0","learn","2","2","[0, 1, 2, 3, 4, 5, 6, 7, 8, 9]","18","6","setsize","3S10A","furniture","1","4","2","1",""
"null","null","fixation","html-keyboard-response","111","376494","0.0-1.0-7.0-3.0-0.19","11:28:41","2","","","","","","","fixation","","","","","","","","","","","","","","","","","","",""
"843","7","pic_response","html-keyboard-response","112","377338","0.0-1.0-7.0-3.0-1.19","11:28:41","2","","","","","","","<div>
            <img class='stim' src=""pictures/furniture/1.jpg""></div><div class=""button_prompt"">
                    <b>请用数字键0-9回答</b>
                    </div>","","","","","","","","","","","","","","","","","","",""
"843","null","sub_response","html-keyboard-response","113","378346","0.0-1.0-7.0-3.0-2.19","11:28:41","2","","","","","","","<div style='text-align: center;'>
                            <span style=""color: green; font-size: 40px""><b>正确！+1 pts</b></span></div>
                            ","","learn","1","1","1","learn","6","6","[0, 1, 2, 3, 4, 5, 6, 7, 8, 9]","19","6","setsize","3S10A","furniture","1","5","6","1",""
"null","null","fixation","html-keyboard-response","114","378859","0.0-1.0-7.0-3.0-0.20","11:28:41","2","","","","","","","fixation","","","","","","","","","","","","","","","","","","",""
"811","0","pic_response","html-keyboard-response","115","379672","0.0-1.0-7.0-3.0-1.20","11:28:41","2","","","","","","","<div>
            <img class='stim' src=""pictures/furniture/2.jpg""></div><div class=""button_prompt"">
                    <b>请用数字键0-9回答</b>
                    </div>","","","","","","","","","","","","","","","","","","",""
"811","null","sub_response","html-keyboard-response","116","380680","0.0-1.0-7.0-3.0-2.20","11:28:41","2","","","","","","","<div style='text-align: center;'>
                            <span style=""color: green; font-size: 40px""><b>正确！+1 pts</b></span></div>
                            ","","learn","2","2","2","learn","9","9","[0, 1, 2, 3, 4, 5, 6, 7, 8, 9]","20","6","setsize","3S10A","furniture","1","6","9","1",""
"null","null","fixation","html-keyboard-response","117","381193","0.0-1.0-7.0-3.0-0.21","11:28:41","2","","","","","","","fixation","","","","","","","","","","","","","","","","","","",""
"614","3","pic_response","html-keyboard-response","118","381808","0.0-1.0-7.0-3.0-1.21","11:28:41","2","","","","","","","<div>
            <img class='stim' src=""pictures/furniture/0.jpg""></div><div class=""button_prompt"">
                    <b>请用数字键0-9回答</b>
                    </div>","","","","","","","","","","","","","","","","","","",""
"614","null","sub_response","html-keyboard-response","119","382812","0.0-1.0-7.0-3.0-2.21","11:28:41","2","","","","","","","<div style='text-align: center;'>
                            <span style=""color: green; font-size: 40px""><b>正确！+1 pts</b></span></div>
                            ","","learn","0","0","0","learn","2","2","[0, 1, 2, 3, 4, 5, 6, 7, 8, 9]","21","7","setsize","3S10A","furniture","1","7","2","1",""
"null","null","fixation","html-keyboard-response","120","383316","0.0-1.0-7.0-3.0-0.22","11:28:41","2","","","","","","","fixation","","","","","","","","","","","","","","","","","","",""
"1090","3","pic_response","html-keyboard-response","121","384408","0.0-1.0-7.0-3.0-1.22","11:28:41","2","","","","","","","<div>
            <img class='stim' src=""pictures/furniture/2.jpg""></div><div class=""button_prompt"">
                    <b>请用数字键0-9回答</b>
                    </div>","","","","","","","","","","","","","","","","","","",""
"1090","null","sub_response","html-keyboard-response","122","385415","0.0-1.0-7.0-3.0-2.22","11:28:41","2","","","","","","","<div style='text-align: center;'>
                            <span style=""color: red; font-size: 40px""><b>错误！+0 pts</b></span></div>
                            ","","learn","2","2","2","learn","9","9","[0, 1, 2, 3, 4, 5, 6, 7, 8, 9]","22","7","setsize","3S10A","furniture","1","0","2","0",""
"null","null","fixation","html-keyboard-response","123","385933","0.0-1.0-7.0-3.0-0.23","11:28:41","2","","","","","","","fixation","","","","","","","","","","","","","","","","","","",""
"825","7","pic_response","html-keyboard-response","124","386760","0.0-1.0-7.0-3.0-1.23","11:28:41","2","","","","","","","<div>
            <img class='stim' src=""pictures/furniture/1.jpg""></div><div class=""button_prompt"">
                    <b>请用数字键0-9回答</b>
                    </div>","","","","","","","","","","","","","","","","","","",""
"825","null","sub_response","html-keyboard-response","125","387765","0.0-1.0-7.0-3.0-2.23","11:28:41","2","","","","","","","<div style='text-align: center;'>
                            <span style=""color: green; font-size: 40px""><b>正确！+1 pts</b></span></div>
                            ","","learn","1","1","1","learn","6","6","[0, 1, 2, 3, 4, 5, 6, 7, 8, 9]","23","7","setsize","3S10A","furniture","1","1","6","1",""
"null","null","fixation","html-keyboard-response","126","388278","0.0-1.0-7.0-3.0-0.24","11:28:41","2","","","","","","","fixation","","","","","","","","","","","","","","","","","","",""
"621","3","pic_response","html-keyboard-response","127","388900","0.0-1.0-7.0-3.0-1.24","11:28:41","2","","","","","","","<div>
            <img class='stim' src=""pictures/furniture/2.jpg""></div><div class=""button_prompt"">
                    <b>请用数字键0-9回答</b>
                    </div>","","","","","","","","","","","","","","","","","","",""
"621","null","sub_response","html-keyboard-response","128","389906","0.0-1.0-7.0-3.0-2.24","11:28:41","2","","","","","","","<div style='text-align: center;'>
                            <span style=""color: red; font-size: 40px""><b>错误！+0 pts</b></span></div>
                            ","","learn","2","2","2","learn","9","9","[0, 1, 2, 3, 4, 5, 6, 7, 8, 9]","24","8","setsize","3S10A","furniture","1","0","2","0",""
"null","null","fixation","html-keyboard-response","129","390411","0.0-1.0-7.0-3.0-0.25","11:28:41","2","","","","","","","fixation","","","","","","","","","","","","","","","","","","",""
"660","3","pic_response","html-keyboard-response","130","391072","0.0-1.0-7.0-3.0-1.25","11:28:41","2","","","","","","","<div>
            <img class='stim' src=""pictures/furniture/0.jpg""></div><div class=""button_prompt"">
                    <b>请用数字键0-9回答</b>
                    </div>","","","","","","","","","","","","","","","","","","",""
"660","null","sub_response","html-keyboard-response","131","392077","0.0-1.0-7.0-3.0-2.25","11:28:41","2","","","","","","","<div style='text-align: center;'>
                            <span style=""color: green; font-size: 40px""><b>正确！+1 pts</b></span></div>
                            ","","learn","0","0","0","learn","2","2","[0, 1, 2, 3, 4, 5, 6, 7, 8, 9]","25","8","setsize","3S10A","furniture","1","1","2","1",""
"null","null","fixation","html-keyboard-response","132","392583","0.0-1.0-7.0-3.0-0.26","11:28:41","2","","","","","","","fixation","","","","","","","","","","","","","","","","","","",""
"768","7","pic_response","html-keyboard-response","133","393352","0.0-1.0-7.0-3.0-1.26","11:28:41","2","","","","","","","<div>
            <img class='stim' src=""pictures/furniture/1.jpg""></div><div class=""button_prompt"">
                    <b>请用数字键0-9回答</b>
                    </div>","","","","","","","","","","","","","","","","","","",""
"768","null","sub_response","html-keyboard-response","134","394355","0.0-1.0-7.0-3.0-2.26","11:28:41","2","","","","","","","<div style='text-align: center;'>
                            <span style=""color: green; font-size: 40px""><b>正确！+1 pts</b></span></div>
                            ","","learn","1","1","1","learn","6","6","[0, 1, 2, 3, 4, 5, 6, 7, 8, 9]","26","8","setsize","3S10A","furniture","1","2","6","1",""
"null","null","fixation","html-keyboard-response","135","394868","0.0-1.0-7.0-3.0-0.27","11:28:41","2","","","","","","","fixation","","","","","","","","","","","","","","","","","","",""
"779","7","pic_response","html-keyboard-response","136","395648","0.0-1.0-7.0-3.0-1.27","11:28:41","2","","","","","","","<div>
            <img class='stim' src=""pictures/furniture/1.jpg""></div><div class=""button_prompt"">
                    <b>请用数字键0-9回答</b>
                    </div>","","","","","","","","","","","","","","","","","","",""
"779","null","sub_response","html-keyboard-response","137","396652","0.0-1.0-7.0-3.0-2.27","11:28:41","2","","","","","","","<div style='text-align: center;'>
                            <span style=""color: green; font-size: 40px""><b>正确！+1 pts</b></span></div>
                            ","","learn","1","1","1","learn","6","6","[0, 1, 2, 3, 4, 5, 6, 7, 8, 9]","27","9","setsize","3S10A","furniture","1","3","6","1",""
"null","null","fixation","html-keyboard-response","138","397155","0.0-1.0-7.0-3.0-0.28","11:28:41","2","","","","","","","fixation","","","","","","","","","","","","","","","","","","",""
"645","3","pic_response","html-keyboard-response","139","397801","0.0-1.0-7.0-3.0-1.28","11:28:41","2","","","","","","","<div>
            <img class='stim' src=""pictures/furniture/0.jpg""></div><div class=""button_prompt"">
                    <b>请用数字键0-9回答</b>
                    </div>","","","","","","","","","","","","","","","","","","",""
"645","null","sub_response","html-keyboard-response","140","398805","0.0-1.0-7.0-3.0-2.28","11:28:41","2","","","","","","","<div style='text-align: center;'>
                            <span style=""color: green; font-size: 40px""><b>正确！+1 pts</b></span></div>
                            ","","learn","0","0","0","learn","2","2","[0, 1, 2, 3, 4, 5, 6, 7, 8, 9]","28","9","setsize","3S10A","furniture","1","4","2","1",""
"null","null","fixation","html-keyboard-response","141","399309","0.0-1.0-7.0-3.0-0.29","11:28:41","2","","","","","","","fixation","","","","","","","","","","","","","","","","","","",""
"690","0","pic_response","html-keyboard-response","142","400000","0.0-1.0-7.0-3.0-1.29","11:28:41","2","","","","","","","<div>
            <img class='stim' src=""pictures/furniture/2.jpg""></div><div class=""button_prompt"">
                    <b>请用数字键0-9回答</b>
                    </div>","","","","","","","","","","","","","","","","","","",""
"690","null","sub_response","html-keyboard-response","143","401003","0.0-1.0-7.0-3.0-2.29","11:28:41","2","","","","","","","<div style='text-align: center;'>
                            <span style=""color: green; font-size: 40px""><b>正确！+1 pts</b></span></div>
                            ","","learn","2","2","2","learn","9","9","[0, 1, 2, 3, 4, 5, 6, 7, 8, 9]","29","9","setsize","3S10A","furniture","1","5","9","1",""
"null","null","fixation","html-keyboard-response","144","401509","0.0-1.0-7.0-3.0-0.30","11:28:41","2","","","","","","","fixation","","","","","","","","","","","","","","","","","","",""
"724","7","pic_response","html-keyboard-response","145","402233","0.0-1.0-7.0-3.0-1.30","11:28:41","2","","","","","","","<div>
            <img class='stim' src=""pictures/furniture/1.jpg""></div><div class=""button_prompt"">
                    <b>请用数字键0-9回答</b>
                    </div>","","","","","","","","","","","","","","","","","","",""
"724","null","sub_response","html-keyboard-response","146","403235","0.0-1.0-7.0-3.0-2.30","11:28:41","2","","","","","","","<div style='text-align: center;'>
                            <span style=""color: green; font-size: 40px""><b>正确！+1 pts</b></span></div>
                            ","","learn","1","1","1","learn","6","6","[0, 1, 2, 3, 4, 5, 6, 7, 8, 9]","30","10","setsize","3S10A","furniture","1","6","6","1",""
"null","null","fixation","html-keyboard-response","147","403737","0.0-1.0-7.0-3.0-0.31","11:28:41","2","","","","","","","fixation","","","","","","","","","","","","","","","","","","",""
"654","3","pic_response","html-keyboard-response","148","404392","0.0-1.0-7.0-3.0-1.31","11:28:41","2","","","","","","","<div>
            <img class='stim' src=""pictures/furniture/0.jpg""></div><div class=""button_prompt"">
                    <b>请用数字键0-9回答</b>
                    </div>","","","","","","","","","","","","","","","","","","",""
"654","null","sub_response","html-keyboard-response","149","405396","0.0-1.0-7.0-3.0-2.31","11:28:41","2","","","","","","","<div style='text-align: center;'>
                            <span style=""color: green; font-size: 40px""><b>正确！+1 pts</b></span></div>
                            ","","learn","0","0","0","learn","2","2","[0, 1, 2, 3, 4, 5, 6, 7, 8, 9]","31","10","setsize","3S10A","furniture","1","7","2","1",""
"null","null","fixation","html-keyboard-response","150","405901","0.0-1.0-7.0-3.0-0.32","11:28:41","2","","","","","","","fixation","","","","","","","","","","","","","","","","","","",""
"809","0","pic_response","html-keyboard-response","151","406712","0.0-1.0-7.0-3.0-1.32","11:28:41","2","","","","","","","<div>
            <img class='stim' src=""pictures/furniture/2.jpg""></div><div class=""button_prompt"">
                    <b>请用数字键0-9回答</b>
                    </div>","","","","","","","","","","","","","","","","","","",""
"809","null","sub_response","html-keyboard-response","152","407725","0.0-1.0-7.0-3.0-2.32","11:28:41","2","","","","","","","<div style='text-align: center;'>
                            <span style=""color: green; font-size: 40px""><b>正确！+1 pts</b></span></div>
                            ","","learn","2","2","2","learn","9","9","[0, 1, 2, 3, 4, 5, 6, 7, 8, 9]","32","10","setsize","3S10A","furniture","1","8","9","1",""
"null","null","fixation","html-keyboard-response","153","408232","0.0-1.0-7.0-3.0-0.33","11:28:41","2","","","","","","","fixation","","","","","","","","","","","","","","","","","","",""
"622","7","pic_response","html-keyboard-response","154","408856","0.0-1.0-7.0-3.0-1.33","11:28:41","2","","","","","","","<div>
            <img class='stim' src=""pictures/furniture/1.jpg""></div><div class=""button_prompt"">
                    <b>请用数字键0-9回答</b>
                    </div>","","","","","","","","","","","","","","","","","","",""
"622","null","sub_response","html-keyboard-response","155","409860","0.0-1.0-7.0-3.0-2.33","11:28:41","2","","","","","","","<div style='text-align: center;'>
                            <span style=""color: green; font-size: 40px""><b>正确！+1 pts</b></span></div>
                            ","","learn","1","1","1","learn","6","6","[0, 1, 2, 3, 4, 5, 6, 7, 8, 9]","33","11","setsize","3S10A","furniture","1","9","6","1",""
"null","null","fixation","html-keyboard-response","156","410360","0.0-1.0-7.0-3.0-0.34","11:28:41","2","","","","","","","fixation","","","","","","","","","","","","","","","","","","",""
"630","3","pic_response","html-keyboard-response","157","410992","0.0-1.0-7.0-3.0-1.34","11:28:41","2","","","","","","","<div>
            <img class='stim' src=""pictures/furniture/0.jpg""></div><div class=""button_prompt"">
                    <b>请用数字键0-9回答</b>
                    </div>","","","","","","","","","","","","","","","","","","",""
"630","null","sub_response","html-keyboard-response","158","411995","0.0-1.0-7.0-3.0-2.34","11:28:41","2","","","","","","","<div style='text-align: center;'>
                            <span style=""color: green; font-size: 40px""><b>正确！+1 pts</b></span></div>
                            ","","learn","0","0","0","learn","2","2","[0, 1, 2, 3, 4, 5, 6, 7, 8, 9]","34","11","setsize","3S10A","furniture","1","10","2","1",""
"null","null","fixation","html-keyboard-response","159","412502","0.0-1.0-7.0-3.0-0.35","11:28:41","2","","","","","","","fixation","","","","","","","","","","","","","","","","","","",""
"1268","0","pic_response","html-keyboard-response","160","413771","0.0-1.0-7.0-3.0-1.35","11:28:41","2","","","","","","","<div>
            <img class='stim' src=""pictures/furniture/2.jpg""></div><div class=""button_prompt"">
                    <b>请用数字键0-9回答</b>
                    </div>","","","","","","","","","","","","","","","","","","",""
"1268","null","sub_response","html-keyboard-response","161","414774","0.0-1.0-7.0-3.0-2.35","11:28:41","2","","","","","","","<div style='text-align: center;'>
                            <span style=""color: green; font-size: 40px""><b>正确！+1 pts</b></span></div>
                            ","","learn","2","2","2","learn","9","9","[0, 1, 2, 3, 4, 5, 6, 7, 8, 9]","35","11","setsize","3S10A","furniture","1","11","9","1",""
"null","null","fixation","html-keyboard-response","162","415283","0.0-1.0-7.0-3.0-0.36","11:28:41","2","","","","","","","fixation","","","","","","","","","","","","","","","","","","",""
"756","3","pic_response","html-keyboard-response","163","416040","0.0-1.0-7.0-3.0-1.36","11:28:41","2","","","","","","","<div>
            <img class='stim' src=""pictures/furniture/0.jpg""></div><div class=""button_prompt"">
                    <b>请用数字键0-9回答</b>
                    </div>","","","","","","","","","","","","","","","","","","",""
"756","null","sub_response","html-keyboard-response","164","417047","0.0-1.0-7.0-3.0-2.36","11:28:41","2","","","","","","","<div style='text-align: center;'>
                            <span style=""color: green; font-size: 40px""><b>正确！+1 pts</b></span></div>
                            ","","learn","0","0","0","learn","2","2","[0, 1, 2, 3, 4, 5, 6, 7, 8, 9]","36","12","setsize","3S10A","furniture","1","12","2","1",""
"null","null","fixation","html-keyboard-response","165","417551","0.0-1.0-7.0-3.0-0.37","11:28:41","2","","","","","","","fixation","","","","","","","","","","","","","","","","","","",""
"745","7","pic_response","html-keyboard-response","166","418296","0.0-1.0-7.0-3.0-1.37","11:28:41","2","","","","","","","<div>
            <img class='stim' src=""pictures/furniture/1.jpg""></div><div class=""button_prompt"">
                    <b>请用数字键0-9回答</b>
                    </div>","","","","","","","","","","","","","","","","","","",""
"745","null","sub_response","html-keyboard-response","167","419299","0.0-1.0-7.0-3.0-2.37","11:28:41","2","","","","","","","<div style='text-align: center;'>
                            <span style=""color: green; font-size: 40px""><b>正确！+1 pts</b></span></div>
                            ","","learn","1","1","1","learn","6","6","[0, 1, 2, 3, 4, 5, 6, 7, 8, 9]","37","12","setsize","3S10A","furniture","1","13","6","1",""
"null","null","fixation","html-keyboard-response","168","419804","0.0-1.0-7.0-3.0-0.38","11:28:41","2","","","","","","","fixation","","","","","","","","","","","","","","","","","","",""
"1211","0","pic_response","html-keyboard-response","169","421016","0.0-1.0-7.0-3.0-1.38","11:28:41","2","","","","","","","<div>
            <img class='stim' src=""pictures/furniture/2.jpg""></div><div class=""button_prompt"">
                    <b>请用数字键0-9回答</b>
                    </div>","","","","","","","","","","","","","","","","","","",""
"1211","null","sub_response","html-keyboard-response","170","422032","0.0-1.0-7.0-3.0-2.38","11:28:41","2","","","","","","","<div style='text-align: center;'>
                            <span style=""color: green; font-size: 40px""><b>正确！+1 pts</b></span></div>
                            ","","learn","2","2","2","learn","9","9","[0, 1, 2, 3, 4, 5, 6, 7, 8, 9]","38","12","setsize","3S10A","furniture","1","14","9","1",""
"null","null","fixation","html-keyboard-response","171","422533","0.0-1.0-7.0-3.0-0.39","11:28:41","2","","","","","","","fixation","","","","","","","","","","","","","","","","","","",""
"497","3","pic_response","html-keyboard-response","172","423032","0.0-1.0-7.0-3.0-1.39","11:28:41","2","","","","","","","<div>
            <img class='stim' src=""pictures/furniture/0.jpg""></div><div class=""button_prompt"">
                    <b>请用数字键0-9回答</b>
                    </div>","","","","","","","","","","","","","","","","","","",""
"497","null","sub_response","html-keyboard-response","173","424036","0.0-1.0-7.0-3.0-2.39","11:28:41","2","","","","","","","<div style='text-align: center;'>
                            <span style=""color: green; font-size: 40px""><b>正确！+1 pts</b></span></div>
                            ","","learn","0","0","0","learn","2","2","[0, 1, 2, 3, 4, 5, 6, 7, 8, 9]","39","13","setsize","3S10A","furniture","1","15","2","1",""
"null","null","fixation","html-keyboard-response","174","424538","0.0-1.0-7.0-3.0-0.40","11:28:41","2","","","","","","","fixation","","","","","","","","","","","","","","","","","","",""
"780","7","pic_response","html-keyboard-response","175","425320","0.0-1.0-7.0-3.0-1.40","11:28:41","2","","","","","","","<div>
            <img class='stim' src=""pictures/furniture/1.jpg""></div><div class=""button_prompt"">
                    <b>请用数字键0-9回答</b>
                    </div>","","","","","","","","","","","","","","","","","","",""
"780","null","sub_response","html-keyboard-response","176","426324","0.0-1.0-7.0-3.0-2.40","11:28:41","2","","","","","","","<div style='text-align: center;'>
                            <span style=""color: green; font-size: 40px""><b>正确！+1 pts</b></span></div>
                            ","","learn","1","1","1","learn","6","6","[0, 1, 2, 3, 4, 5, 6, 7, 8, 9]","40","13","setsize","3S10A","furniture","1","16","6","1",""
"null","null","fixation","html-keyboard-response","177","426829","0.0-1.0-7.0-3.0-0.41","11:28:41","2","","","","","","","fixation","","","","","","","","","","","","","","","","","","",""
"827","0","pic_response","html-keyboard-response","178","427657","0.0-1.0-7.0-3.0-1.41","11:28:41","2","","","","","","","<div>
            <img class='stim' src=""pictures/furniture/2.jpg""></div><div class=""button_prompt"">
                    <b>请用数字键0-9回答</b>
                    </div>","","","","","","","","","","","","","","","","","","",""
"827","null","sub_response","html-keyboard-response","179","428663","0.0-1.0-7.0-3.0-2.41","11:28:41","2","","","","","","","<div style='text-align: center;'>
                            <span style=""color: green; font-size: 40px""><b>正确！+1 pts</b></span></div>
                            ","","learn","2","2","2","learn","9","9","[0, 1, 2, 3, 4, 5, 6, 7, 8, 9]","41","13","setsize","3S10A","furniture","1","17","9","1",""
"null","null","fixation","html-keyboard-response","180","429176","0.0-1.0-7.0-3.0-0.42","11:28:41","2","","","","","","","fixation","","","","","","","","","","","","","","","","","","",""
"818","0","pic_response","html-keyboard-response","181","429996","0.0-1.0-7.0-3.0-1.42","11:28:41","2","","","","","","","<div>
            <img class='stim' src=""pictures/furniture/2.jpg""></div><div class=""button_prompt"">
                    <b>请用数字键0-9回答</b>
                    </div>","","","","","","","","","","","","","","","","","","",""
"818","null","sub_response","html-keyboard-response","182","431008","0.0-1.0-7.0-3.0-2.42","11:28:41","2","","","","","","","<div style='text-align: center;'>
                            <span style=""color: green; font-size: 40px""><b>正确！+1 pts</b></span></div>
                            ","","learn","2","2","2","learn","9","9","[0, 1, 2, 3, 4, 5, 6, 7, 8, 9]","42","14","setsize","3S10A","furniture","1","18","9","1",""
"null","null","fixation","html-keyboard-response","183","431512","0.0-1.0-7.0-3.0-0.43","11:28:41","2","","","","","","","fixation","","","","","","","","","","","","","","","","","","",""
"585","3","pic_response","html-keyboard-response","184","432098","0.0-1.0-7.0-3.0-1.43","11:28:41","2","","","","","","","<div>
            <img class='stim' src=""pictures/furniture/0.jpg""></div><div class=""button_prompt"">
                    <b>请用数字键0-9回答</b>
                    </div>","","","","","","","","","","","","","","","","","","",""
"585","null","sub_response","html-keyboard-response","185","433104","0.0-1.0-7.0-3.0-2.43","11:28:41","2","","","","","","","<div style='text-align: center;'>
                            <span style=""color: green; font-size: 40px""><b>正确！+1 pts</b></span></div>
                            ","","learn","0","0","0","learn","2","2","[0, 1, 2, 3, 4, 5, 6, 7, 8, 9]","43","14","setsize","3S10A","furniture","1","19","2","1",""
"null","null","fixation","html-keyboard-response","186","433613","0.0-1.0-7.0-3.0-0.44","11:28:41","2","","","","","","","fixation","","","","","","","","","","","","","","","","","","",""
"819","7","pic_response","html-keyboard-response","187","434433","0.0-1.0-7.0-3.0-1.44","11:28:41","2","","","","","","","<div>
            <img class='stim' src=""pictures/furniture/1.jpg""></div><div class=""button_prompt"">
                    <b>请用数字键0-9回答</b>
                    </div>","","","","","","","","","","","","","","","","","","",""
"819","null","sub_response","html-keyboard-response","188","435442","0.0-1.0-7.0-3.0-2.44","11:28:41","2","","","","","","","<div style='text-align: center;'>
                            <span style=""color: green; font-size: 40px""><b>正确！+1 pts</b></span></div>
                            ","","learn","1","1","1","learn","6","6","[0, 1, 2, 3, 4, 5, 6, 7, 8, 9]","44","14","setsize","3S10A","furniture","1","20","6","1",""
"null","null","fixation","html-keyboard-response","189","435955","0.0-1.0-7.0-3.0-0.45","11:28:41","2","","","","","","","fixation","","","","","","","","","","","","","","","","","","",""
"648","3","pic_response","html-keyboard-response","190","436605","0.0-1.0-7.0-3.0-1.45","11:28:41","2","","","","","","","<div>
            <img class='stim' src=""pictures/furniture/0.jpg""></div><div class=""button_prompt"">
                    <b>请用数字键0-9回答</b>
                    </div>","","","","","","","","","","","","","","","","","","",""
"648","null","sub_response","html-keyboard-response","191","437608","0.0-1.0-7.0-3.0-2.45","11:28:41","2","","","","","","","<div style='text-align: center;'>
                            <span style=""color: green; font-size: 40px""><b>正确！+1 pts</b></span></div>
                            ","","learn","0","0","0","learn","2","2","[0, 1, 2, 3, 4, 5, 6, 7, 8, 9]","45","15","setsize","3S10A","furniture","1","21","2","1",""
"null","null","","html-keyboard-response","192","497615","0.0-1.0-8.0","11:28:41","2","","","","","","","<div style=""font-size: 25px""><p>距下一个实验开始还有</p><div style=""font-size: 50px; color: blue""><p><span id=""clock"">1:00</span></div></p><p>按""空格""跳过休息</p></div>","","","","","","","","","","","","","","","","","","",""
"","","","preload","193","498134","0.0-1.0-9.0-0.0","11:28:41","2","true","false","[]","[]","[]","","","","","","","","","","","","","","","","","","","","",""
"5097"," ","","html-keyboard-response","194","503232","0.0-1.0-9.0-1.0","11:28:41","2","","","","","","","<div style='font-size: 32px; text-align: center;'
                    <p>请学习图片和数字之间的对应关系</p>
                    <p>我们将<span style='color: blue'><b> 告诉 </b></span>您选择的对错。请根据反馈学习。</p>
                    <p>请按""空格""继续实验。</p></div>","","","","","","","","","","","","","","","","","","",""
"1422"," ","inst","html-keyboard-response","195","504655","0.0-1.0-9.0-2.0","11:28:41","2","","","","","","","<img class='instruct_stim' src=""instruction/food3.PNG""></div>","","","","","","","","","","","","","","","","","","",""
"null","null","fixation","html-keyboard-response","196","505158","0.0-1.0-9.0-3.0-0.0","11:28:41","2","","","","","","","fixation","","","","","","","","","","","","","","","","","","",""
"1792","1","pic_response","html-keyboard-response","197","506951","0.0-1.0-9.0-3.0-1.0","11:28:41","2","","","","","","","<div>
            <img class='stim' src=""pictures/food/2.jpg""></div><div class=""button_prompt"">
                        <b>请用数字键1-3回答</b>
                        </div>","","","","","","","","","","","","","","","","","","",""
"1792","null","sub_response","html-keyboard-response","198","507956","0.0-1.0-9.0-3.0-2.0","11:28:41","2","","","","","","","<div style='text-align: center;'>
                            <span style=""color: red; font-size: 40px""><b>错误！+0 pts</b></span></div>
                            ","","learn","2","2","2","learn","2","2","[0, 1, 2]","0","0","setsize","3S3A","food","2","0","0","0",""
"null","null","fixation","html-keyboard-response","199","508461","0.0-1.0-9.0-3.0-0.1","11:28:41","2","","","","","","","fixation","","","","","","","","","","","","","","","","","","",""
"954","1","pic_response","html-keyboard-response","200","509416","0.0-1.0-9.0-3.0-1.1","11:28:41","2","","","","","","","<div>
            <img class='stim' src=""pictures/food/0.jpg""></div><div class=""button_prompt"">
                        <b>请用数字键1-3回答</b>
                        </div>","","","","","","","","","","","","","","","","","","",""
"954","null","sub_response","html-keyboard-response","201","510418","0.0-1.0-9.0-3.0-2.1","11:28:41","2","","","","","","","<div style='text-align: center;'>
                            <span style=""color: green; font-size: 40px""><b>正确！+1 pts</b></span></div>
                            ","","learn","0","0","0","learn","0","0","[0, 1, 2]","1","0","setsize","3S3A","food","2","1","0","1",""
"null","null","fixation","html-keyboard-response","202","510924","0.0-1.0-9.0-3.0-0.2","11:28:41","2","","","","","","","fixation","","","","","","","","","","","","","","","","","","",""
"917","1","pic_response","html-keyboard-response","203","511841","0.0-1.0-9.0-3.0-1.2","11:28:41","2","","","","","","","<div>
            <img class='stim' src=""pictures/food/1.jpg""></div><div class=""button_prompt"">
                        <b>请用数字键1-3回答</b>
                        </div>","","","","","","","","","","","","","","","","","","",""
"917","null","sub_response","html-keyboard-response","204","512844","0.0-1.0-9.0-3.0-2.2","11:28:41","2","","","","","","","<div style='text-align: center;'>
                            <span style=""color: green; font-size: 40px""><b>正确！+1 pts</b></span></div>
                            ","","learn","1","1","1","learn","0","0","[0, 1, 2]","2","0","setsize","3S3A","food","2","2","0","1",""
"null","null","fixation","html-keyboard-response","205","513345","0.0-1.0-9.0-3.0-0.3","11:28:41","2","","","","","","","fixation","","","","","","","","","","","","","","","","","","",""
"959","1","pic_response","html-keyboard-response","206","514305","0.0-1.0-9.0-3.0-1.3","11:28:41","2","","","","","","","<div>
            <img class='stim' src=""pictures/food/1.jpg""></div><div class=""button_prompt"">
                        <b>请用数字键1-3回答</b>
                        </div>","","","","","","","","","","","","","","","","","","",""
"959","null","sub_response","html-keyboard-response","207","515310","0.0-1.0-9.0-3.0-2.3","11:28:41","2","","","","","","","<div style='text-align: center;'>
                            <span style=""color: green; font-size: 40px""><b>正确！+1 pts</b></span></div>
                            ","","learn","1","1","1","learn","0","0","[0, 1, 2]","3","1","setsize","3S3A","food","2","3","0","1",""
"null","null","fixation","html-keyboard-response","208","515813","0.0-1.0-9.0-3.0-0.4","11:28:41","2","","","","","","","fixation","","","","","","","","","","","","","","","","","","",""
"690","1","pic_response","html-keyboard-response","209","516504","0.0-1.0-9.0-3.0-1.4","11:28:41","2","","","","","","","<div>
            <img class='stim' src=""pictures/food/0.jpg""></div><div class=""button_prompt"">
                        <b>请用数字键1-3回答</b>
                        </div>","","","","","","","","","","","","","","","","","","",""
"690","null","sub_response","html-keyboard-response","210","517508","0.0-1.0-9.0-3.0-2.4","11:28:41","2","","","","","","","<div style='text-align: center;'>
                            <span style=""color: green; font-size: 40px""><b>正确！+1 pts</b></span></div>
                            ","","learn","0","0","0","learn","0","0","[0, 1, 2]","4","1","setsize","3S3A","food","2","4","0","1",""
"null","null","fixation","html-keyboard-response","211","518010","0.0-1.0-9.0-3.0-0.5","11:28:41","2","","","","","","","fixation","","","","","","","","","","","","","","","","","","",""
"671","2","pic_response","html-keyboard-response","212","518682","0.0-1.0-9.0-3.0-1.5","11:28:41","2","","","","","","","<div>
            <img class='stim' src=""pictures/food/2.jpg""></div><div class=""button_prompt"">
                        <b>请用数字键1-3回答</b>
                        </div>","","","","","","","","","","","","","","","","","","",""
"671","null","sub_response","html-keyboard-response","213","519685","0.0-1.0-9.0-3.0-2.5","11:28:41","2","","","","","","","<div style='text-align: center;'>
                            <span style=""color: red; font-size: 40px""><b>错误！+0 pts</b></span></div>
                            ","","learn","2","2","2","learn","2","2","[0, 1, 2]","5","1","setsize","3S3A","food","2","0","1","0",""
"null","null","fixation","html-keyboard-response","214","520190","0.0-1.0-9.0-3.0-0.6","11:28:41","2","","","","","","","fixation","","","","","","","","","","","","","","","","","","",""
"625","1","pic_response","html-keyboard-response","215","520816","0.0-1.0-9.0-3.0-1.6","11:28:41","2","","","","","","","<div>
            <img class='stim' src=""pictures/food/0.jpg""></div><div class=""button_prompt"">
                        <b>请用数字键1-3回答</b>
                        </div>","","","","","","","","","","","","","","","","","","",""
"625","null","sub_response","html-keyboard-response","216","521820","0.0-1.0-9.0-3.0-2.6","11:28:41","2","","","","","","","<div style='text-align: center;'>
                            <span style=""color: green; font-size: 40px""><b>正确！+1 pts</b></span></div>
                            ","","learn","0","0","0","learn","0","0","[0, 1, 2]","6","2","setsize","3S3A","food","2","1","0","1",""
"null","null","fixation","html-keyboard-response","217","522329","0.0-1.0-9.0-3.0-0.7","11:28:41","2","","","","","","","fixation","","","","","","","","","","","","","","","","","","",""
"694","3","pic_response","html-keyboard-response","218","523024","0.0-1.0-9.0-3.0-1.7","11:28:41","2","","","","","","","<div>
            <img class='stim' src=""pictures/food/2.jpg""></div><div class=""button_prompt"">
                        <b>请用数字键1-3回答</b>
                        </div>","","","","","","","","","","","","","","","","","","",""
"694","null","sub_response","html-keyboard-response","219","524027","0.0-1.0-9.0-3.0-2.7","11:28:41","2","","","","","","","<div style='text-align: center;'>
                            <span style=""color: green; font-size: 40px""><b>正确！+1 pts</b></span></div>
                            ","","learn","2","2","2","learn","2","2","[0, 1, 2]","7","2","setsize","3S3A","food","2","2","2","1",""
"null","null","fixation","html-keyboard-response","220","524529","0.0-1.0-9.0-3.0-0.8","11:28:41","2","","","","","","","fixation","","","","","","","","","","","","","","","","","","",""
"807","2","pic_response","html-keyboard-response","221","525338","0.0-1.0-9.0-3.0-1.8","11:28:41","2","","","","","","","<div>
            <img class='stim' src=""pictures/food/1.jpg""></div><div class=""button_prompt"">
                        <b>请用数字键1-3回答</b>
                        </div>","","","","","","","","","","","","","","","","","","",""
"807","null","sub_response","html-keyboard-response","222","526342","0.0-1.0-9.0-3.0-2.8","11:28:41","2","","","","","","","<div style='text-align: center;'>
                            <span style=""color: red; font-size: 40px""><b>错误！+0 pts</b></span></div>
                            ","","learn","1","1","1","learn","0","0","[0, 1, 2]","8","2","setsize","3S3A","food","2","0","1","0",""
"null","null","fixation","html-keyboard-response","223","526844","0.0-1.0-9.0-3.0-0.9","11:28:41","2","","","","","","","fixation","","","","","","","","","","","","","","","","","","",""
"723","3","pic_response","html-keyboard-response","224","527568","0.0-1.0-9.0-3.0-1.9","11:28:41","2","","","","","","","<div>
            <img class='stim' src=""pictures/food/2.jpg""></div><div class=""button_prompt"">
                        <b>请用数字键1-3回答</b>
                        </div>","","","","","","","","","","","","","","","","","","",""
"723","null","sub_response","html-keyboard-response","225","528572","0.0-1.0-9.0-3.0-2.9","11:28:41","2","","","","","","","<div style='text-align: center;'>
                            <span style=""color: green; font-size: 40px""><b>正确！+1 pts</b></span></div>
                            ","","learn","2","2","2","learn","2","2","[0, 1, 2]","9","3","setsize","3S3A","food","2","1","2","1",""
"null","null","fixation","html-keyboard-response","226","529086","0.0-1.0-9.0-3.0-0.10","11:28:41","2","","","","","","","fixation","","","","","","","","","","","","","","","","","","",""
"528","1","pic_response","html-keyboard-response","227","529615","0.0-1.0-9.0-3.0-1.10","11:28:41","2","","","","","","","<div>
            <img class='stim' src=""pictures/food/1.jpg""></div><div class=""button_prompt"">
                        <b>请用数字键1-3回答</b>
                        </div>","","","","","","","","","","","","","","","","","","",""
"528","null","sub_response","html-keyboard-response","228","530617","0.0-1.0-9.0-3.0-2.10","11:28:41","2","","","","","","","<div style='text-align: center;'>
                            <span style=""color: green; font-size: 40px""><b>正确！+1 pts</b></span></div>
                            ","","learn","1","1","1","learn","0","0","[0, 1, 2]","10","3","setsize","3S3A","food","2","2","0","1",""
"null","null","fixation","html-keyboard-response","229","531120","0.0-1.0-9.0-3.0-0.11","11:28:41","2","","","","","","","fixation","","","","","","","","","","","","","","","","","","",""
"537","1","pic_response","html-keyboard-response","230","531658","0.0-1.0-9.0-3.0-1.11","11:28:41","2","","","","","","","<div>
            <img class='stim' src=""pictures/food/0.jpg""></div><div class=""button_prompt"">
                        <b>请用数字键1-3回答</b>
                        </div>","","","","","","","","","","","","","","","","","","",""
"537","null","sub_response","html-keyboard-response","231","532662","0.0-1.0-9.0-3.0-2.11","11:28:41","2","","","","","","","<div style='text-align: center;'>
                            <span style=""color: green; font-size: 40px""><b>正确！+1 pts</b></span></div>
                            ","","learn","0","0","0","learn","0","0","[0, 1, 2]","11","3","setsize","3S3A","food","2","3","0","1",""
"null","null","fixation","html-keyboard-response","232","533167","0.0-1.0-9.0-3.0-0.12","11:28:41","2","","","","","","","fixation","","","","","","","","","","","","","","","","","","",""
"624","1","pic_response","html-keyboard-response","233","533792","0.0-1.0-9.0-3.0-1.12","11:28:41","2","","","","","","","<div>
            <img class='stim' src=""pictures/food/1.jpg""></div><div class=""button_prompt"">
                        <b>请用数字键1-3回答</b>
                        </div>","","","","","","","","","","","","","","","","","","",""
"624","null","sub_response","html-keyboard-response","234","534795","0.0-1.0-9.0-3.0-2.12","11:28:41","2","","","","","","","<div style='text-align: center;'>
                            <span style=""color: green; font-size: 40px""><b>正确！+1 pts</b></span></div>
                            ","","learn","1","1","1","learn","0","0","[0, 1, 2]","12","4","setsize","3S3A","food","2","4","0","1",""
"null","null","fixation","html-keyboard-response","235","535297","0.0-1.0-9.0-3.0-0.13","11:28:41","2","","","","","","","fixation","","","","","","","","","","","","","","","","","","",""
"430","3","pic_response","html-keyboard-response","236","535727","0.0-1.0-9.0-3.0-1.13","11:28:41","2","","","","","","","<div>
            <img class='stim' src=""pictures/food/2.jpg""></div><div class=""button_prompt"">
                        <b>请用数字键1-3回答</b>
                        </div>","","","","","","","","","","","","","","","","","","",""
"430","null","sub_response","html-keyboard-response","237","536732","0.0-1.0-9.0-3.0-2.13","11:28:41","2","","","","","","","<div style='text-align: center;'>
                            <span style=""color: green; font-size: 40px""><b>正确！+1 pts</b></span></div>
                            ","","learn","2","2","2","learn","2","2","[0, 1, 2]","13","4","setsize","3S3A","food","2","5","2","1",""
"null","null","fixation","html-keyboard-response","238","537237","0.0-1.0-9.0-3.0-0.14","11:28:41","2","","","","","","","fixation","","","","","","","","","","","","","","","","","","",""
"1049","1","pic_response","html-keyboard-response","239","538287","0.0-1.0-9.0-3.0-1.14","11:28:41","2","","","","","","","<div>
            <img class='stim' src=""pictures/food/0.jpg""></div><div class=""button_prompt"">
                        <b>请用数字键1-3回答</b>
                        </div>","","","","","","","","","","","","","","","","","","",""
"1049","null","sub_response","html-keyboard-response","240","539290","0.0-1.0-9.0-3.0-2.14","11:28:41","2","","","","","","","<div style='text-align: center;'>
                            <span style=""color: green; font-size: 40px""><b>正确！+1 pts</b></span></div>
                            ","","learn","0","0","0","learn","0","0","[0, 1, 2]","14","4","setsize","3S3A","food","2","6","0","1",""
"null","null","fixation","html-keyboard-response","241","539793","0.0-1.0-9.0-3.0-0.15","11:28:41","2","","","","","","","fixation","","","","","","","","","","","","","","","","","","",""
"1485","1","pic_response","html-keyboard-response","242","541280","0.0-1.0-9.0-3.0-1.15","11:28:41","2","","","","","","","<div>
            <img class='stim' src=""pictures/food/1.jpg""></div><div class=""button_prompt"">
                        <b>请用数字键1-3回答</b>
                        </div>","","","","","","","","","","","","","","","","","","",""
"1485","null","sub_response","html-keyboard-response","243","542283","0.0-1.0-9.0-3.0-2.15","11:28:41","2","","","","","","","<div style='text-align: center;'>
                            <span style=""color: green; font-size: 40px""><b>正确！+1 pts</b></span></div>
                            ","","learn","1","1","1","learn","0","0","[0, 1, 2]","15","5","setsize","3S3A","food","2","7","0","1",""
"null","null","fixation","html-keyboard-response","244","542786","0.0-1.0-9.0-3.0-0.16","11:28:41","2","","","","","","","fixation","","","","","","","","","","","","","","","","","","",""
"1926","3","pic_response","html-keyboard-response","245","544713","0.0-1.0-9.0-3.0-1.16","11:28:41","2","","","","","","","<div>
            <img class='stim' src=""pictures/food/2.jpg""></div><div class=""button_prompt"">
                        <b>请用数字键1-3回答</b>
                        </div>","","","","","","","","","","","","","","","","","","",""
"1926","null","sub_response","html-keyboard-response","246","545717","0.0-1.0-9.0-3.0-2.16","11:28:41","2","","","","","","","<div style='text-align: center;'>
                            <span style=""color: green; font-size: 40px""><b>正确！+1 pts</b></span></div>
                            ","","learn","2","2","2","learn","2","2","[0, 1, 2]","16","5","setsize","3S3A","food","2","8","2","1",""
"null","null","fixation","html-keyboard-response","247","546224","0.0-1.0-9.0-3.0-0.17","11:28:41","2","","","","","","","fixation","","","","","","","","","","","","","","","","","","",""
"1487","1","pic_response","html-keyboard-response","248","547714","0.0-1.0-9.0-3.0-1.17","11:28:41","2","","","","","","","<div>
            <img class='stim' src=""pictures/food/0.jpg""></div><div class=""button_prompt"">
                        <b>请用数字键1-3回答</b>
                        </div>","","","","","","","","","","","","","","","","","","",""
"1487","null","sub_response","html-keyboard-response","249","548717","0.0-1.0-9.0-3.0-2.17","11:28:41","2","","","","","","","<div style='text-align: center;'>
                            <span style=""color: green; font-size: 40px""><b>正确！+1 pts</b></span></div>
                            ","","learn","0","0","0","learn","0","0","[0, 1, 2]","17","5","setsize","3S3A","food","2","9","0","1",""
"null","null","fixation","html-keyboard-response","250","549219","0.0-1.0-9.0-3.0-0.18","11:28:41","2","","","","","","","fixation","","","","","","","","","","","","","","","","","","",""
"1020","1","pic_response","html-keyboard-response","251","550240","0.0-1.0-9.0-3.0-1.18","11:28:41","2","","","","","","","<div>
            <img class='stim' src=""pictures/food/1.jpg""></div><div class=""button_prompt"">
                        <b>请用数字键1-3回答</b>
                        </div>","","","","","","","","","","","","","","","","","","",""
"1020","null","sub_response","html-keyboard-response","252","551243","0.0-1.0-9.0-3.0-2.18","11:28:41","2","","","","","","","<div style='text-align: center;'>
                            <span style=""color: green; font-size: 40px""><b>正确！+1 pts</b></span></div>
                            ","","learn","1","1","1","learn","0","0","[0, 1, 2]","18","6","setsize","3S3A","food","2","10","0","1",""
"null","null","fixation","html-keyboard-response","253","551747","0.0-1.0-9.0-3.0-0.19","11:28:41","2","","","","","","","fixation","","","","","","","","","","","","","","","","","","",""
"693","3","pic_response","html-keyboard-response","254","552441","0.0-1.0-9.0-3.0-1.19","11:28:41","2","","","","","","","<div>
            <img class='stim' src=""pictures/food/2.jpg""></div><div class=""button_prompt"">
                        <b>请用数字键1-3回答</b>
                        </div>","","","","","","","","","","","","","","","","","","",""
"693","null","sub_response","html-keyboard-response","255","553445","0.0-1.0-9.0-3.0-2.19","11:28:41","2","","","","","","","<div style='text-align: center;'>
                            <span style=""color: green; font-size: 40px""><b>正确！+1 pts</b></span></div>
                            ","","learn","2","2","2","learn","2","2","[0, 1, 2]","19","6","setsize","3S3A","food","2","11","2","1",""
"null","null","fixation","html-keyboard-response","256","553959","0.0-1.0-9.0-3.0-0.20","11:28:41","2","","","","","","","fixation","","","","","","","","","","","","","","","","","","",""
"552","1","pic_response","html-keyboard-response","257","554513","0.0-1.0-9.0-3.0-1.20","11:28:41","2","","","","","","","<div>
            <img class='stim' src=""pictures/food/0.jpg""></div><div class=""button_prompt"">
                        <b>请用数字键1-3回答</b>
                        </div>","","","","","","","","","","","","","","","","","","",""
"552","null","sub_response","html-keyboard-response","258","555515","0.0-1.0-9.0-3.0-2.20","11:28:41","2","","","","","","","<div style='text-align: center;'>
                            <span style=""color: green; font-size: 40px""><b>正确！+1 pts</b></span></div>
                            ","","learn","0","0","0","learn","0","0","[0, 1, 2]","20","6","setsize","3S3A","food","2","12","0","1",""
"null","null","fixation","html-keyboard-response","259","556017","0.0-1.0-9.0-3.0-0.21","11:28:41","2","","","","","","","fixation","","","","","","","","","","","","","","","","","","",""
"590","1","pic_response","html-keyboard-response","260","556609","0.0-1.0-9.0-3.0-1.21","11:28:41","2","","","","","","","<div>
            <img class='stim' src=""pictures/food/1.jpg""></div><div class=""button_prompt"">
                        <b>请用数字键1-3回答</b>
                        </div>","","","","","","","","","","","","","","","","","","",""
"590","null","sub_response","html-keyboard-response","261","557613","0.0-1.0-9.0-3.0-2.21","11:28:41","2","","","","","","","<div style='text-align: center;'>
                            <span style=""color: green; font-size: 40px""><b>正确！+1 pts</b></span></div>
                            ","","learn","1","1","1","learn","0","0","[0, 1, 2]","21","7","setsize","3S3A","food","2","13","0","1",""
"null","null","fixation","html-keyboard-response","262","558115","0.0-1.0-9.0-3.0-0.22","11:28:41","2","","","","","","","fixation","","","","","","","","","","","","","","","","","","",""
"517","1","pic_response","html-keyboard-response","263","558633","0.0-1.0-9.0-3.0-1.22","11:28:41","2","","","","","","","<div>
            <img class='stim' src=""pictures/food/0.jpg""></div><div class=""button_prompt"">
                        <b>请用数字键1-3回答</b>
                        </div>","","","","","","","","","","","","","","","","","","",""
"517","null","sub_response","html-keyboard-response","264","559636","0.0-1.0-9.0-3.0-2.22","11:28:41","2","","","","","","","<div style='text-align: center;'>
                            <span style=""color: green; font-size: 40px""><b>正确！+1 pts</b></span></div>
                            ","","learn","0","0","0","learn","0","0","[0, 1, 2]","22","7","setsize","3S3A","food","2","14","0","1",""
"null","null","fixation","html-keyboard-response","265","560141","0.0-1.0-9.0-3.0-0.23","11:28:41","2","","","","","","","fixation","","","","","","","","","","","","","","","","","","",""
"803","3","pic_response","html-keyboard-response","266","560945","0.0-1.0-9.0-3.0-1.23","11:28:41","2","","","","","","","<div>
            <img class='stim' src=""pictures/food/2.jpg""></div><div class=""button_prompt"">
                        <b>请用数字键1-3回答</b>
                        </div>","","","","","","","","","","","","","","","","","","",""
"803","null","sub_response","html-keyboard-response","267","561948","0.0-1.0-9.0-3.0-2.23","11:28:41","2","","","","","","","<div style='text-align: center;'>
                            <span style=""color: green; font-size: 40px""><b>正确！+1 pts</b></span></div>
                            ","","learn","2","2","2","learn","2","2","[0, 1, 2]","23","7","setsize","3S3A","food","2","15","2","1",""
"null","null","fixation","html-keyboard-response","268","562454","0.0-1.0-9.0-3.0-0.24","11:28:41","2","","","","","","","fixation","","","","","","","","","","","","","","","","","","",""
"642","3","pic_response","html-keyboard-response","269","563097","0.0-1.0-9.0-3.0-1.24","11:28:41","2","","","","","","","<div>
            <img class='stim' src=""pictures/food/2.jpg""></div><div class=""button_prompt"">
                        <b>请用数字键1-3回答</b>
                        </div>","","","","","","","","","","","","","","","","","","",""
"642","null","sub_response","html-keyboard-response","270","564101","0.0-1.0-9.0-3.0-2.24","11:28:41","2","","","","","","","<div style='text-align: center;'>
                            <span style=""color: green; font-size: 40px""><b>正确！+1 pts</b></span></div>
                            ","","learn","2","2","2","learn","2","2","[0, 1, 2]","24","8","setsize","3S3A","food","2","16","2","1",""
"null","null","fixation","html-keyboard-response","271","564612","0.0-1.0-9.0-3.0-0.25","11:28:41","2","","","","","","","fixation","","","","","","","","","","","","","","","","","","",""
"516","1","pic_response","html-keyboard-response","272","565129","0.0-1.0-9.0-3.0-1.25","11:28:41","2","","","","","","","<div>
            <img class='stim' src=""pictures/food/1.jpg""></div><div class=""button_prompt"">
                        <b>请用数字键1-3回答</b>
                        </div>","","","","","","","","","","","","","","","","","","",""
"516","null","sub_response","html-keyboard-response","273","566132","0.0-1.0-9.0-3.0-2.25","11:28:41","2","","","","","","","<div style='text-align: center;'>
                            <span style=""color: green; font-size: 40px""><b>正确！+1 pts</b></span></div>
                            ","","learn","1","1","1","learn","0","0","[0, 1, 2]","25","8","setsize","3S3A","food","2","17","0","1",""
"null","null","fixation","html-keyboard-response","274","566636","0.0-1.0-9.0-3.0-0.26","11:28:41","2","","","","","","","fixation","","","","","","","","","","","","","","","","","","",""
"667","1","pic_response","html-keyboard-response","275","567305","0.0-1.0-9.0-3.0-1.26","11:28:41","2","","","","","","","<div>
            <img class='stim' src=""pictures/food/0.jpg""></div><div class=""button_prompt"">
                        <b>请用数字键1-3回答</b>
                        </div>","","","","","","","","","","","","","","","","","","",""
"667","null","sub_response","html-keyboard-response","276","568306","0.0-1.0-9.0-3.0-2.26","11:28:41","2","","","","","","","<div style='text-align: center;'>
                            <span style=""color: green; font-size: 40px""><b>正确！+1 pts</b></span></div>
                            ","","learn","0","0","0","learn","0","0","[0, 1, 2]","26","8","setsize","3S3A","food","2","18","0","1",""
"null","null","fixation","html-keyboard-response","277","568811","0.0-1.0-9.0-3.0-0.27","11:28:41","2","","","","","","","fixation","","","","","","","","","","","","","","","","","","",""
"712","3","pic_response","html-keyboard-response","278","569524","0.0-1.0-9.0-3.0-1.27","11:28:41","2","","","","","","","<div>
            <img class='stim' src=""pictures/food/2.jpg""></div><div class=""button_prompt"">
                        <b>请用数字键1-3回答</b>
                        </div>","","","","","","","","","","","","","","","","","","",""
"712","null","sub_response","html-keyboard-response","279","570527","0.0-1.0-9.0-3.0-2.27","11:28:41","2","","","","","","","<div style='text-align: center;'>
                            <span style=""color: green; font-size: 40px""><b>正确！+1 pts</b></span></div>
                            ","","learn","2","2","2","learn","2","2","[0, 1, 2]","27","9","setsize","3S3A","food","2","19","2","1",""
"null","null","fixation","html-keyboard-response","280","571030","0.0-1.0-9.0-3.0-0.28","11:28:41","2","","","","","","","fixation","","","","","","","","","","","","","","","","","","",""
"587","1","pic_response","html-keyboard-response","281","571617","0.0-1.0-9.0-3.0-1.28","11:28:41","2","","","","","","","<div>
            <img class='stim' src=""pictures/food/0.jpg""></div><div class=""button_prompt"">
                        <b>请用数字键1-3回答</b>
                        </div>","","","","","","","","","","","","","","","","","","",""
"587","null","sub_response","html-keyboard-response","282","572622","0.0-1.0-9.0-3.0-2.28","11:28:41","2","","","","","","","<div style='text-align: center;'>
                            <span style=""color: green; font-size: 40px""><b>正确！+1 pts</b></span></div>
                            ","","learn","0","0","0","learn","0","0","[0, 1, 2]","28","9","setsize","3S3A","food","2","20","0","1",""
"null","null","fixation","html-keyboard-response","283","573125","0.0-1.0-9.0-3.0-0.29","11:28:41","2","","","","","","","fixation","","","","","","","","","","","","","","","","","","",""
"571","1","pic_response","html-keyboard-response","284","573697","0.0-1.0-9.0-3.0-1.29","11:28:41","2","","","","","","","<div>
            <img class='stim' src=""pictures/food/1.jpg""></div><div class=""button_prompt"">
                        <b>请用数字键1-3回答</b>
                        </div>","","","","","","","","","","","","","","","","","","",""
"571","null","sub_response","html-keyboard-response","285","574699","0.0-1.0-9.0-3.0-2.29","11:28:41","2","","","","","","","<div style='text-align: center;'>
                            <span style=""color: green; font-size: 40px""><b>正确！+1 pts</b></span></div>
                            ","","learn","1","1","1","learn","0","0","[0, 1, 2]","29","9","setsize","3S3A","food","2","21","0","1",""
"null","null","fixation","html-keyboard-response","286","575208","0.0-1.0-9.0-3.0-0.30","11:28:41","2","","","","","","","fixation","","","","","","","","","","","","","","","","","","",""
"776","3","pic_response","html-keyboard-response","287","575985","0.0-1.0-9.0-3.0-1.30","11:28:41","2","","","","","","","<div>
            <img class='stim' src=""pictures/food/2.jpg""></div><div class=""button_prompt"">
                        <b>请用数字键1-3回答</b>
                        </div>","","","","","","","","","","","","","","","","","","",""
"776","null","sub_response","html-keyboard-response","288","576993","0.0-1.0-9.0-3.0-2.30","11:28:41","2","","","","","","","<div style='text-align: center;'>
                            <span style=""color: green; font-size: 40px""><b>正确！+1 pts</b></span></div>
                            ","","learn","2","2","2","learn","2","2","[0, 1, 2]","30","10","setsize","3S3A","food","2","22","2","1",""
"null","null","fixation","html-keyboard-response","289","577498","0.0-1.0-9.0-3.0-0.31","11:28:41","2","","","","","","","fixation","","","","","","","","","","","","","","","","","","",""
"534","1","pic_response","html-keyboard-response","290","578033","0.0-1.0-9.0-3.0-1.31","11:28:41","2","","","","","","","<div>
            <img class='stim' src=""pictures/food/0.jpg""></div><div class=""button_prompt"">
                        <b>请用数字键1-3回答</b>
                        </div>","","","","","","","","","","","","","","","","","","",""
"534","null","sub_response","html-keyboard-response","291","579034","0.0-1.0-9.0-3.0-2.31","11:28:41","2","","","","","","","<div style='text-align: center;'>
                            <span style=""color: green; font-size: 40px""><b>正确！+1 pts</b></span></div>
                            ","","learn","0","0","0","learn","0","0","[0, 1, 2]","31","10","setsize","3S3A","food","2","23","0","1",""
"null","null","fixation","html-keyboard-response","292","579538","0.0-1.0-9.0-3.0-0.32","11:28:41","2","","","","","","","fixation","","","","","","","","","","","","","","","","","","",""
"846","1","pic_response","html-keyboard-response","293","580385","0.0-1.0-9.0-3.0-1.32","11:28:41","2","","","","","","","<div>
            <img class='stim' src=""pictures/food/1.jpg""></div><div class=""button_prompt"">
                        <b>请用数字键1-3回答</b>
                        </div>","","","","","","","","","","","","","","","","","","",""
"846","null","sub_response","html-keyboard-response","294","581389","0.0-1.0-9.0-3.0-2.32","11:28:41","2","","","","","","","<div style='text-align: center;'>
                            <span style=""color: green; font-size: 40px""><b>正确！+1 pts</b></span></div>
                            ","","learn","1","1","1","learn","0","0","[0, 1, 2]","32","10","setsize","3S3A","food","2","24","0","1",""
"null","null","fixation","html-keyboard-response","295","581897","0.0-1.0-9.0-3.0-0.33","11:28:41","2","","","","","","","fixation","","","","","","","","","","","","","","","","","","",""
"585","1","pic_response","html-keyboard-response","296","582483","0.0-1.0-9.0-3.0-1.33","11:28:41","2","","","","","","","<div>
            <img class='stim' src=""pictures/food/0.jpg""></div><div class=""button_prompt"">
                        <b>请用数字键1-3回答</b>
                        </div>","","","","","","","","","","","","","","","","","","",""
"585","null","sub_response","html-keyboard-response","297","583486","0.0-1.0-9.0-3.0-2.33","11:28:41","2","","","","","","","<div style='text-align: center;'>
                            <span style=""color: green; font-size: 40px""><b>正确！+1 pts</b></span></div>
                            ","","learn","0","0","0","learn","0","0","[0, 1, 2]","33","11","setsize","3S3A","food","2","25","0","1",""
"null","null","fixation","html-keyboard-response","298","583989","0.0-1.0-9.0-3.0-0.34","11:28:41","2","","","","","","","fixation","","","","","","","","","","","","","","","","","","",""
"613","1","pic_response","html-keyboard-response","299","584603","0.0-1.0-9.0-3.0-1.34","11:28:41","2","","","","","","","<div>
            <img class='stim' src=""pictures/food/1.jpg""></div><div class=""button_prompt"">
                        <b>请用数字键1-3回答</b>
                        </div>","","","","","","","","","","","","","","","","","","",""
"613","null","sub_response","html-keyboard-response","300","585604","0.0-1.0-9.0-3.0-2.34","11:28:41","2","","","","","","","<div style='text-align: center;'>
                            <span style=""color: green; font-size: 40px""><b>正确！+1 pts</b></span></div>
                            ","","learn","1","1","1","learn","0","0","[0, 1, 2]","34","11","setsize","3S3A","food","2","26","0","1",""
"null","null","fixation","html-keyboard-response","301","586108","0.0-1.0-9.0-3.0-0.35","11:28:41","2","","","","","","","fixation","","","","","","","","","","","","","","","","","","",""
"1485","3","pic_response","html-keyboard-response","302","587593","0.0-1.0-9.0-3.0-1.35","11:28:41","2","","","","","","","<div>
            <img class='stim' src=""pictures/food/2.jpg""></div><div class=""button_prompt"">
                        <b>请用数字键1-3回答</b>
                        </div>","","","","","","","","","","","","","","","","","","",""
"1485","null","sub_response","html-keyboard-response","303","588594","0.0-1.0-9.0-3.0-2.35","11:28:41","2","","","","","","","<div style='text-align: center;'>
                            <span style=""color: green; font-size: 40px""><b>正确！+1 pts</b></span></div>
                            ","","learn","2","2","2","learn","2","2","[0, 1, 2]","35","11","setsize","3S3A","food","2","27","2","1",""
"null","null","fixation","html-keyboard-response","304","589099","0.0-1.0-9.0-3.0-0.36","11:28:41","2","","","","","","","fixation","","","","","","","","","","","","","","","","","","",""
"565","3","pic_response","html-keyboard-response","305","589665","0.0-1.0-9.0-3.0-1.36","11:28:41","2","","","","","","","<div>
            <img class='stim' src=""pictures/food/2.jpg""></div><div class=""button_prompt"">
                        <b>请用数字键1-3回答</b>
                        </div>","","","","","","","","","","","","","","","","","","",""
"565","null","sub_response","html-keyboard-response","306","590668","0.0-1.0-9.0-3.0-2.36","11:28:41","2","","","","","","","<div style='text-align: center;'>
                            <span style=""color: green; font-size: 40px""><b>正确！+1 pts</b></span></div>
                            ","","learn","2","2","2","learn","2","2","[0, 1, 2]","36","12","setsize","3S3A","food","2","28","2","1",""
"null","null","fixation","html-keyboard-response","307","591172","0.0-1.0-9.0-3.0-0.37","11:28:41","2","","","","","","","fixation","","","","","","","","","","","","","","","","","","",""
"595","1","pic_response","html-keyboard-response","308","591769","0.0-1.0-9.0-3.0-1.37","11:28:41","2","","","","","","","<div>
            <img class='stim' src=""pictures/food/0.jpg""></div><div class=""button_prompt"">
                        <b>请用数字键1-3回答</b>
                        </div>","","","","","","","","","","","","","","","","","","",""
"595","null","sub_response","html-keyboard-response","309","592773","0.0-1.0-9.0-3.0-2.37","11:28:41","2","","","","","","","<div style='text-align: center;'>
                            <span style=""color: green; font-size: 40px""><b>正确！+1 pts</b></span></div>
                            ","","learn","0","0","0","learn","0","0","[0, 1, 2]","37","12","setsize","3S3A","food","2","29","0","1",""
"null","null","fixation","html-keyboard-response","310","593278","0.0-1.0-9.0-3.0-0.38","11:28:41","2","","","","","","","fixation","","","","","","","","","","","","","","","","","","",""
"593","1","pic_response","html-keyboard-response","311","593872","0.0-1.0-9.0-3.0-1.38","11:28:41","2","","","","","","","<div>
            <img class='stim' src=""pictures/food/1.jpg""></div><div class=""button_prompt"">
                        <b>请用数字键1-3回答</b>
                        </div>","","","","","","","","","","","","","","","","","","",""
"593","null","sub_response","html-keyboard-response","312","594879","0.0-1.0-9.0-3.0-2.38","11:28:41","2","","","","","","","<div style='text-align: center;'>
                            <span style=""color: green; font-size: 40px""><b>正确！+1 pts</b></span></div>
                            ","","learn","1","1","1","learn","0","0","[0, 1, 2]","38","12","setsize","3S3A","food","2","30","0","1",""
"null","null","fixation","html-keyboard-response","313","595384","0.0-1.0-9.0-3.0-0.39","11:28:41","2","","","","","","","fixation","","","","","","","","","","","","","","","","","","",""
"1296","1","pic_response","html-keyboard-response","314","596681","0.0-1.0-9.0-3.0-1.39","11:28:41","2","","","","","","","<div>
            <img class='stim' src=""pictures/food/0.jpg""></div><div class=""button_prompt"">
                        <b>请用数字键1-3回答</b>
                        </div>","","","","","","","","","","","","","","","","","","",""
"1296","null","sub_response","html-keyboard-response","315","597682","0.0-1.0-9.0-3.0-2.39","11:28:41","2","","","","","","","<div style='text-align: center;'>
                            <span style=""color: green; font-size: 40px""><b>正确！+1 pts</b></span></div>
                            ","","learn","0","0","0","learn","0","0","[0, 1, 2]","39","13","setsize","3S3A","food","2","31","0","1",""
"null","null","fixation","html-keyboard-response","316","598184","0.0-1.0-9.0-3.0-0.40","11:28:41","2","","","","","","","fixation","","","","","","","","","","","","","","","","","","",""
"927","1","pic_response","html-keyboard-response","317","599113","0.0-1.0-9.0-3.0-1.40","11:28:41","2","","","","","","","<div>
            <img class='stim' src=""pictures/food/1.jpg""></div><div class=""button_prompt"">
                        <b>请用数字键1-3回答</b>
                        </div>","","","","","","","","","","","","","","","","","","",""
"927","null","sub_response","html-keyboard-response","318","600114","0.0-1.0-9.0-3.0-2.40","11:28:41","2","","","","","","","<div style='text-align: center;'>
                            <span style=""color: green; font-size: 40px""><b>正确！+1 pts</b></span></div>
