"rt","response","screen_id","trial_type","trial_index","time_elapsed","internal_node_id","start_time","n_Prac","success","timeout","failed_images","failed_audio","failed_video","view_history","stimulus","question_order","stage","s","word","word_id","phase","a_cor","a_real","a_ava","trial","tps","task_type","block_typ","pic_typ","block_id","cum_r","a","r","plugin_name"
"24905","{""sub_id"":""297"",""task_type"":""task1"",""name"":""卢露生"",""gender"":""M""}","basic_info","survey-html-form","0","24908","0.0-0.0","17:46:43","5","","","","","","","","","","","","","","","","","","","","","","","","","",""
"","","","preload","1","26031","0.0-1.0-0.0","17:46:43","5","true","false","[]","[]","[]","","","","","","","","","","","","","","","","","","","","",""
"","","","preload","2","26227","0.0-1.0-1.0","17:46:43","5","true","false","[]","[]","[]","","","","","","","","","","","","","","","","","","","","",""
"","","","fullscreen","3","28300","0.0-1.0-2.0","17:46:43","5","true","","","","","","","","","","","","","","","","","","","","","","","","",""
"15502","","instruct","instructions","4","43803","0.0-1.0-3.0-0.0","17:46:43","5","","","","","","[{""page_index"":0,""viewing_time"":9004},{""page_index"":1,""viewing_time"":2872},{""page_index"":2,""viewing_time"":3626}]","","","","","","","","","","","","","","","","","","","",""
"21911","{""Q0"":"""",""task1"":""<span style='font-size: 24px'>选择正确按钮获得更多能量</span>"",""task2"":""<span style='font-size: 24px'> 数字键1-3 </span>"",""task3"":""<span style='font-size: 24px'> 看到图片选出正确对应的数字 </span>""}","question","survey-multi-choice","5","65715","0.0-1.0-3.0-1.0","17:46:43","5","","","","","","","","[0,1,2,3]","","","","","","","","","","","","","","","","","",""
"2044"," ","inst_q","html-keyboard-response","6","67762","0.0-1.0-3.0-2.0","17:46:43","5","","","","","","","inst","","1","","","","","","","","","","","","","","","","",""
"8816","","instruct","instructions","7","76579","0.0-1.0-3.1-0.1","17:46:43","5","","","","","","[{""page_index"":0,""viewing_time"":3638},{""page_index"":1,""viewing_time"":2268},{""page_index"":2,""viewing_time"":2910}]","","","","","","","","","","","","","","","","","","","",""
"7065","{""Q0"":"""",""task1"":""<span style='font-size: 24px'>学习图片和数字的对应关系</span>"",""task2"":""<span style='font-size: 24px'> 数字键1-3 </span>"",""task3"":""<span style='font-size: 24px'> 看到图片选出正确对应的数字 </span>""}","question","survey-multi-choice","8","83644","0.0-1.0-3.1-1.1","17:46:43","5","","","","","","","","[0,1,2,3]","","","","","","","","","","","","","","","","","",""
"2019"," ","inst_q","html-keyboard-response","9","85664","0.0-1.0-3.1-2.1","17:46:43","5","","","","","","","inst","","1","","","","","","","","","","","","","","","","",""
"10882","","instruct","instructions","10","96547","0.0-1.0-3.2-0.2","17:46:43","5","","","","","","[{""page_index"":0,""viewing_time"":7180},{""page_index"":1,""viewing_time"":2376},{""page_index"":2,""viewing_time"":1326}]","","","","","","","","","","","","","","","","","","","",""
"13989","{""Q0"":"""",""task1"":""<span style='font-size: 24px'>学习图片和数字的对应关系</span>"",""task2"":""<span style='font-size: 24px'> 图片下方标注为可用的数字键（数字键1-3或0-9） </span>"",""task3"":""<span style='font-size: 24px'> 看到图片选出正确对应的数字 </span>""}","question","survey-multi-choice","11","110537","0.0-1.0-3.2-1.2","17:46:43","5","","","","","","","","[0,1,2,3]","","","","","","","","","","","","","","","","","",""
"2157"," ","inst_q","html-keyboard-response","12","112695","0.0-1.0-3.2-2.2","17:46:43","5","","","","","","","inst","","1","","","","","","","","","","","","","","","","",""
"","","","preload","13","113029","0.0-1.0-4.0-0.0","17:46:43","5","true","false","[]","[]","[]","","","","","","","","","","","","","","","","","","","","",""
"1291"," ","","html-keyboard-response","14","114321","0.0-1.0-4.0-1.0","17:46:43","5","","","","","","","<div style='font-size: 32px; text-align: center;'
                    <p>请学习图片和数字之间的对应关系</p>
                    <p>我们将<span style='color: blue'><b> 告诉 </b></span>您选择的对错。请根据反馈学习。</p>
                    <p>请按""空格""继续实验。</p></div>","","","","","","","","","","","","","","","","","","",""
"5285"," ","inst","html-keyboard-response","15","119606","0.0-1.0-4.0-2.0","17:46:43","5","","","","","","","<img class='instruct_stim' src=""instruction/prac3.PNG""></div>","","","","","","","","","","","","","","","","","","",""
"null","null","fixation","html-keyboard-response","16","120107","0.0-1.0-4.0-3.0-0.0","17:46:43","5","","","","","","","fixation","","","","","","","","","","","","","","","","","","",""
"1407","1","pic_response","html-keyboard-response","17","121515","0.0-1.0-4.0-3.0-1.0","17:46:43","5","","","","","","","<div>
            <img class='stim' src=""pictures/prac/1.jpg""></div><div class=""button_prompt"">
                        <b>请用数字键1-3回答</b>
                        </div>","","","","","","","","","","","","","","","","","","",""
"1407","null","sub_response","html-keyboard-response","18","122517","0.0-1.0-4.0-3.0-2.0","17:46:43","5","","","","","","","<div style='text-align: center;'>
                            <span style=""color: green; font-size: 40px""><b>正确！+1 pts</b></span></div>
                            ","","learn","1","1","1","learn","0","0","[0, 1, 2]","0","0","setsize","99","prac","0","1","0","1",""
"null","null","fixation","html-keyboard-response","19","123019","0.0-1.0-4.0-3.0-0.1","17:46:43","5","","","","","","","fixation","","","","","","","","","","","","","","","","","","",""
"975","2","pic_response","html-keyboard-response","20","123995","0.0-1.0-4.0-3.0-1.1","17:46:43","5","","","","","","","<div>
            <img class='stim' src=""pictures/prac/2.jpg""></div><div class=""button_prompt"">
                        <b>请用数字键1-3回答</b>
                        </div>","","","","","","","","","","","","","","","","","","",""
"975","null","sub_response","html-keyboard-response","21","124996","0.0-1.0-4.0-3.0-2.1","17:46:43","5","","","","","","","<div style='text-align: center;'>
                            <span style=""color: red; font-size: 40px""><b>错误！+0 pts</b></span></div>
                            ","","learn","2","2","2","learn","2","2","[0, 1, 2]","1","0","setsize","99","prac","0","0","1","0",""
"null","null","fixation","html-keyboard-response","22","125497","0.0-1.0-4.0-3.0-0.2","17:46:43","5","","","","","","","fixation","","","","","","","","","","","","","","","","","","",""
"1087","1","pic_response","html-keyboard-response","23","126585","0.0-1.0-4.0-3.0-1.2","17:46:43","5","","","","","","","<div>
            <img class='stim' src=""pictures/prac/0.jpg""></div><div class=""button_prompt"">
                        <b>请用数字键1-3回答</b>
                        </div>","","","","","","","","","","","","","","","","","","",""
"1087","null","sub_response","html-keyboard-response","24","127587","0.0-1.0-4.0-3.0-2.2","17:46:43","5","","","","","","","<div style='text-align: center;'>
                            <span style=""color: green; font-size: 40px""><b>正确！+1 pts</b></span></div>
                            ","","learn","0","0","0","learn","0","0","[0, 1, 2]","2","0","setsize","99","prac","0","1","0","1",""
"null","null","fixation","html-keyboard-response","25","128089","0.0-1.0-4.0-3.0-0.3","17:46:43","5","","","","","","","fixation","","","","","","","","","","","","","","","","","","",""
"691","3","pic_response","html-keyboard-response","26","128780","0.0-1.0-4.0-3.0-1.3","17:46:43","5","","","","","","","<div>
            <img class='stim' src=""pictures/prac/1.jpg""></div><div class=""button_prompt"">
                        <b>请用数字键1-3回答</b>
                        </div>","","","","","","","","","","","","","","","","","","",""
"691","null","sub_response","html-keyboard-response","27","129781","0.0-1.0-4.0-3.0-2.3","17:46:43","5","","","","","","","<div style='text-align: center;'>
                            <span style=""color: red; font-size: 40px""><b>错误！+0 pts</b></span></div>
                            ","","learn","1","1","1","learn","0","0","[0, 1, 2]","3","1","setsize","99","prac","0","0","2","0",""
"null","null","fixation","html-keyboard-response","28","130282","0.0-1.0-4.0-3.0-0.4","17:46:43","5","","","","","","","fixation","","","","","","","","","","","","","","","","","","",""
"493","1","pic_response","html-keyboard-response","29","130775","0.0-1.0-4.0-3.0-1.4","17:46:43","5","","","","","","","<div>
            <img class='stim' src=""pictures/prac/0.jpg""></div><div class=""button_prompt"">
                        <b>请用数字键1-3回答</b>
                        </div>","","","","","","","","","","","","","","","","","","",""
"493","null","sub_response","html-keyboard-response","30","131777","0.0-1.0-4.0-3.0-2.4","17:46:43","5","","","","","","","<div style='text-align: center;'>
                            <span style=""color: green; font-size: 40px""><b>正确！+1 pts</b></span></div>
                            ","","learn","0","0","0","learn","0","0","[0, 1, 2]","4","1","setsize","99","prac","0","1","0","1",""
"null","null","fixation","html-keyboard-response","31","132278","0.0-1.0-4.0-3.0-0.5","17:46:43","5","","","","","","","fixation","","","","","","","","","","","","","","","","","","",""
"402","1","pic_response","html-keyboard-response","32","132680","0.0-1.0-4.0-3.0-1.5","17:46:43","5","","","","","","","<div>
            <img class='stim' src=""pictures/prac/2.jpg""></div><div class=""button_prompt"">
                        <b>请用数字键1-3回答</b>
                        </div>","","","","","","","","","","","","","","","","","","",""
"402","null","sub_response","html-keyboard-response","33","133682","0.0-1.0-4.0-3.0-2.5","17:46:43","5","","","","","","","<div style='text-align: center;'>
                            <span style=""color: red; font-size: 40px""><b>错误！+0 pts</b></span></div>
                            ","","learn","2","2","2","learn","2","2","[0, 1, 2]","5","1","setsize","99","prac","0","0","0","0",""
"","","","preload","34","133684","0.0-1.0-4.1-0.1","17:46:43","5","true","false","[]","[]","[]","","","","","","","","","","","","","","","","","","","","",""
"4277"," ","","html-keyboard-response","35","137961","0.0-1.0-4.1-1.1","17:46:43","5","","","","","","","<div style='font-size: 32px; text-align: center;'
                    <p>请学习图片和数字之间的对应关系</p>
                    <p>我们将<span style='color: blue'><b> 告诉 </b></span>您选择的对错。请根据反馈学习。</p>
                    <p>请按""空格""继续实验。</p></div>","","","","","","","","","","","","","","","","","","",""
"18232"," ","inst","html-keyboard-response","36","156194","0.0-1.0-4.1-2.1","17:46:43","5","","","","","","","<img class='instruct_stim' src=""instruction/prac3.PNG""></div>","","","","","","","","","","","","","","","","","","",""
"null","null","fixation","html-keyboard-response","37","156695","0.0-1.0-4.1-3.1-0.6","17:46:43","5","","","","","","","fixation","","","","","","","","","","","","","","","","","","",""
"1509","1","pic_response","html-keyboard-response","38","158204","0.0-1.0-4.1-3.1-1.6","17:46:43","5","","","","","","","<div>
            <img class='stim' src=""pictures/prac/1.jpg""></div><div class=""button_prompt"">
                        <b>请用数字键1-3回答</b>
                        </div>","","","","","","","","","","","","","","","","","","",""
"1509","null","sub_response","html-keyboard-response","39","159206","0.0-1.0-4.1-3.1-2.6","17:46:43","5","","","","","","","<div style='text-align: center;'>
                            <span style=""color: green; font-size: 40px""><b>正确！+1 pts</b></span></div>
                            ","","learn","1","1","1","learn","0","0","[0, 1, 2]","0","0","setsize","99","prac","0","1","0","1",""
"null","null","fixation","html-keyboard-response","40","159708","0.0-1.0-4.1-3.1-0.7","17:46:43","5","","","","","","","fixation","","","","","","","","","","","","","","","","","","",""
"571","3","pic_response","html-keyboard-response","41","160280","0.0-1.0-4.1-3.1-1.7","17:46:43","5","","","","","","","<div>
            <img class='stim' src=""pictures/prac/2.jpg""></div><div class=""button_prompt"">
                        <b>请用数字键1-3回答</b>
                        </div>","","","","","","","","","","","","","","","","","","",""
"571","null","sub_response","html-keyboard-response","42","161281","0.0-1.0-4.1-3.1-2.7","17:46:43","5","","","","","","","<div style='text-align: center;'>
                            <span style=""color: green; font-size: 40px""><b>正确！+1 pts</b></span></div>
                            ","","learn","2","2","2","learn","2","2","[0, 1, 2]","1","0","setsize","99","prac","0","2","2","1",""
"null","null","fixation","html-keyboard-response","43","161782","0.0-1.0-4.1-3.1-0.8","17:46:43","5","","","","","","","fixation","","","","","","","","","","","","","","","","","","",""
"306","2","pic_response","html-keyboard-response","44","162089","0.0-1.0-4.1-3.1-1.8","17:46:43","5","","","","","","","<div>
            <img class='stim' src=""pictures/prac/0.jpg""></div><div class=""button_prompt"">
                        <b>请用数字键1-3回答</b>
                        </div>","","","","","","","","","","","","","","","","","","",""
"306","null","sub_response","html-keyboard-response","45","163091","0.0-1.0-4.1-3.1-2.8","17:46:43","5","","","","","","","<div style='text-align: center;'>
                            <span style=""color: red; font-size: 40px""><b>错误！+0 pts</b></span></div>
                            ","","learn","0","0","0","learn","0","0","[0, 1, 2]","2","0","setsize","99","prac","0","0","1","0",""
"null","null","fixation","html-keyboard-response","46","163593","0.0-1.0-4.1-3.1-0.9","17:46:43","5","","","","","","","fixation","","","","","","","","","","","","","","","","","","",""
"763","1","pic_response","html-keyboard-response","47","164356","0.0-1.0-4.1-3.1-1.9","17:46:43","5","","","","","","","<div>
            <img class='stim' src=""pictures/prac/1.jpg""></div><div class=""button_prompt"">
                        <b>请用数字键1-3回答</b>
                        </div>","","","","","","","","","","","","","","","","","","",""
"763","null","sub_response","html-keyboard-response","48","165357","0.0-1.0-4.1-3.1-2.9","17:46:43","5","","","","","","","<div style='text-align: center;'>
                            <span style=""color: green; font-size: 40px""><b>正确！+1 pts</b></span></div>
                            ","","learn","1","1","1","learn","0","0","[0, 1, 2]","3","1","setsize","99","prac","0","1","0","1",""
"null","null","fixation","html-keyboard-response","49","165859","0.0-1.0-4.1-3.1-0.10","17:46:43","5","","","","","","","fixation","","","","","","","","","","","","","","","","","","",""
"1558","3","pic_response","html-keyboard-response","50","167418","0.0-1.0-4.1-3.1-1.10","17:46:43","5","","","","","","","<div>
            <img class='stim' src=""pictures/prac/0.jpg""></div><div class=""button_prompt"">
                        <b>请用数字键1-3回答</b>
                        </div>","","","","","","","","","","","","","","","","","","",""
"1558","null","sub_response","html-keyboard-response","51","168419","0.0-1.0-4.1-3.1-2.10","17:46:43","5","","","","","","","<div style='text-align: center;'>
                            <span style=""color: red; font-size: 40px""><b>错误！+0 pts</b></span></div>
                            ","","learn","0","0","0","learn","0","0","[0, 1, 2]","4","1","setsize","99","prac","0","0","2","0",""
"null","null","fixation","html-keyboard-response","52","168921","0.0-1.0-4.1-3.1-0.11","17:46:43","5","","","","","","","fixation","","","","","","","","","","","","","","","","","","",""
"799","2","pic_response","html-keyboard-response","53","169720","0.0-1.0-4.1-3.1-1.11","17:46:43","5","","","","","","","<div>
            <img class='stim' src=""pictures/prac/2.jpg""></div><div class=""button_prompt"">
                        <b>请用数字键1-3回答</b>
                        </div>","","","","","","","","","","","","","","","","","","",""
"799","null","sub_response","html-keyboard-response","54","170722","0.0-1.0-4.1-3.1-2.11","17:46:43","5","","","","","","","<div style='text-align: center;'>
                            <span style=""color: red; font-size: 40px""><b>错误！+0 pts</b></span></div>
                            ","","learn","2","2","2","learn","2","2","[0, 1, 2]","5","1","setsize","99","prac","0","0","1","0",""
"","","","preload","55","170723","0.0-1.0-4.2-0.2","17:46:43","5","true","false","[]","[]","[]","","","","","","","","","","","","","","","","","","","","",""
"2073"," ","","html-keyboard-response","56","172797","0.0-1.0-4.2-1.2","17:46:43","5","","","","","","","<div style='font-size: 32px; text-align: center;'
                    <p>请学习图片和数字之间的对应关系</p>
                    <p>我们将<span style='color: blue'><b> 告诉 </b></span>您选择的对错。请根据反馈学习。</p>
                    <p>请按""空格""继续实验。</p></div>","","","","","","","","","","","","","","","","","","",""
"2350"," ","inst","html-keyboard-response","57","175148","0.0-1.0-4.2-2.2","17:46:43","5","","","","","","","<img class='instruct_stim' src=""instruction/prac3.PNG""></div>","","","","","","","","","","","","","","","","","","",""
"null","null","fixation","html-keyboard-response","58","175649","0.0-1.0-4.2-3.2-0.12","17:46:43","5","","","","","","","fixation","","","","","","","","","","","","","","","","","","",""
"336","1","pic_response","html-keyboard-response","59","175985","0.0-1.0-4.2-3.2-1.12","17:46:43","5","","","","","","","<div>
            <img class='stim' src=""pictures/prac/1.jpg""></div><div class=""button_prompt"">
                        <b>请用数字键1-3回答</b>
                        </div>","","","","","","","","","","","","","","","","","","",""
"336","null","sub_response","html-keyboard-response","60","176996","0.0-1.0-4.2-3.2-2.12","17:46:43","5","","","","","","","<div style='text-align: center;'>
                            <span style=""color: green; font-size: 40px""><b>正确！+1 pts</b></span></div>
                            ","","learn","1","1","1","learn","0","0","[0, 1, 2]","0","0","setsize","99","prac","0","1","0","1",""
"null","null","fixation","html-keyboard-response","61","177497","0.0-1.0-4.2-3.2-0.13","17:46:43","5","","","","","","","fixation","","","","","","","","","","","","","","","","","","",""
"383","3","pic_response","html-keyboard-response","62","177881","0.0-1.0-4.2-3.2-1.13","17:46:43","5","","","","","","","<div>
            <img class='stim' src=""pictures/prac/2.jpg""></div><div class=""button_prompt"">
                        <b>请用数字键1-3回答</b>
                        </div>","","","","","","","","","","","","","","","","","","",""
"383","null","sub_response","html-keyboard-response","63","178883","0.0-1.0-4.2-3.2-2.13","17:46:43","5","","","","","","","<div style='text-align: center;'>
                            <span style=""color: green; font-size: 40px""><b>正确！+1 pts</b></span></div>
                            ","","learn","2","2","2","learn","2","2","[0, 1, 2]","1","0","setsize","99","prac","0","2","2","1",""
"null","null","fixation","html-keyboard-response","64","179383","0.0-1.0-4.2-3.2-0.14","17:46:43","5","","","","","","","fixation","","","","","","","","","","","","","","","","","","",""
"720","3","pic_response","html-keyboard-response","65","180104","0.0-1.0-4.2-3.2-1.14","17:46:43","5","","","","","","","<div>
            <img class='stim' src=""pictures/prac/0.jpg""></div><div class=""button_prompt"">
                        <b>请用数字键1-3回答</b>
                        </div>","","","","","","","","","","","","","","","","","","",""
"720","null","sub_response","html-keyboard-response","66","181104","0.0-1.0-4.2-3.2-2.14","17:46:43","5","","","","","","","<div style='text-align: center;'>
                            <span style=""color: red; font-size: 40px""><b>错误！+0 pts</b></span></div>
                            ","","learn","0","0","0","learn","0","0","[0, 1, 2]","2","0","setsize","99","prac","0","0","2","0",""
"null","null","fixation","html-keyboard-response","67","181615","0.0-1.0-4.2-3.2-0.15","17:46:43","5","","","","","","","fixation","","","","","","","","","","","","","","","","","","",""
"796","1","pic_response","html-keyboard-response","68","182411","0.0-1.0-4.2-3.2-1.15","17:46:43","5","","","","","","","<div>
            <img class='stim' src=""pictures/prac/1.jpg""></div><div class=""button_prompt"">
                        <b>请用数字键1-3回答</b>
                        </div>","","","","","","","","","","","","","","","","","","",""
"796","null","sub_response","html-keyboard-response","69","183413","0.0-1.0-4.2-3.2-2.15","17:46:43","5","","","","","","","<div style='text-align: center;'>
                            <span style=""color: green; font-size: 40px""><b>正确！+1 pts</b></span></div>
                            ","","learn","1","1","1","learn","0","0","[0, 1, 2]","3","1","setsize","99","prac","0","1","0","1",""
"null","null","fixation","html-keyboard-response","70","183915","0.0-1.0-4.2-3.2-0.16","17:46:43","5","","","","","","","fixation","","","","","","","","","","","","","","","","","","",""
"1553","2","pic_response","html-keyboard-response","71","185468","0.0-1.0-4.2-3.2-1.16","17:46:43","5","","","","","","","<div>
            <img class='stim' src=""pictures/prac/0.jpg""></div><div class=""button_prompt"">
                        <b>请用数字键1-3回答</b>
                        </div>","","","","","","","","","","","","","","","","","","",""
"1553","null","sub_response","html-keyboard-response","72","186469","0.0-1.0-4.2-3.2-2.16","17:46:43","5","","","","","","","<div style='text-align: center;'>
                            <span style=""color: red; font-size: 40px""><b>错误！+0 pts</b></span></div>
                            ","","learn","0","0","0","learn","0","0","[0, 1, 2]","4","1","setsize","99","prac","0","0","1","0",""
"null","null","fixation","html-keyboard-response","73","186971","0.0-1.0-4.2-3.2-0.17","17:46:43","5","","","","","","","fixation","","","","","","","","","","","","","","","","","","",""
"315","3","pic_response","html-keyboard-response","74","187286","0.0-1.0-4.2-3.2-1.17","17:46:43","5","","","","","","","<div>
            <img class='stim' src=""pictures/prac/2.jpg""></div><div class=""button_prompt"">
                        <b>请用数字键1-3回答</b>
                        </div>","","","","","","","","","","","","","","","","","","",""
"315","null","sub_response","html-keyboard-response","75","188287","0.0-1.0-4.2-3.2-2.17","17:46:43","5","","","","","","","<div style='text-align: center;'>
                            <span style=""color: green; font-size: 40px""><b>正确！+1 pts</b></span></div>
                            ","","learn","2","2","2","learn","2","2","[0, 1, 2]","5","1","setsize","99","prac","0","1","2","1",""
"","","","preload","76","188288","0.0-1.0-4.3-0.3","17:46:43","5","true","false","[]","[]","[]","","","","","","","","","","","","","","","","","","","","",""
"928"," ","","html-keyboard-response","77","189217","0.0-1.0-4.3-1.3","17:46:43","5","","","","","","","<div style='font-size: 32px; text-align: center;'
                    <p>请学习图片和数字之间的对应关系</p>
                    <p>我们将<span style='color: blue'><b> 告诉 </b></span>您选择的对错。请根据反馈学习。</p>
                    <p>请按""空格""继续实验。</p></div>","","","","","","","","","","","","","","","","","","",""
"2625"," ","inst","html-keyboard-response","78","191843","0.0-1.0-4.3-2.3","17:46:43","5","","","","","","","<img class='instruct_stim' src=""instruction/prac3.PNG""></div>","","","","","","","","","","","","","","","","","","",""
"null","null","fixation","html-keyboard-response","79","192344","0.0-1.0-4.3-3.3-0.18","17:46:43","5","","","","","","","fixation","","","","","","","","","","","","","","","","","","",""
"931","1","pic_response","html-keyboard-response","80","193276","0.0-1.0-4.3-3.3-1.18","17:46:43","5","","","","","","","<div>
            <img class='stim' src=""pictures/prac/1.jpg""></div><div class=""button_prompt"">
                        <b>请用数字键1-3回答</b>
                        </div>","","","","","","","","","","","","","","","","","","",""
"931","null","sub_response","html-keyboard-response","81","194278","0.0-1.0-4.3-3.3-2.18","17:46:43","5","","","","","","","<div style='text-align: center;'>
                            <span style=""color: green; font-size: 40px""><b>正确！+1 pts</b></span></div>
                            ","","learn","1","1","1","learn","0","0","[0, 1, 2]","0","0","setsize","99","prac","0","2","0","1",""
"null","null","fixation","html-keyboard-response","82","194779","0.0-1.0-4.3-3.3-0.19","17:46:43","5","","","","","","","fixation","","","","","","","","","","","","","","","","","","",""
"478","3","pic_response","html-keyboard-response","83","195258","0.0-1.0-4.3-3.3-1.19","17:46:43","5","","","","","","","<div>
            <img class='stim' src=""pictures/prac/2.jpg""></div><div class=""button_prompt"">
                        <b>请用数字键1-3回答</b>
                        </div>","","","","","","","","","","","","","","","","","","",""
"478","null","sub_response","html-keyboard-response","84","196259","0.0-1.0-4.3-3.3-2.19","17:46:43","5","","","","","","","<div style='text-align: center;'>
                            <span style=""color: green; font-size: 40px""><b>正确！+1 pts</b></span></div>
                            ","","learn","2","2","2","learn","2","2","[0, 1, 2]","1","0","setsize","99","prac","0","3","2","1",""
"null","null","fixation","html-keyboard-response","85","196760","0.0-1.0-4.3-3.3-0.20","17:46:43","5","","","","","","","fixation","","","","","","","","","","","","","","","","","","",""
"1000","3","pic_response","html-keyboard-response","86","197761","0.0-1.0-4.3-3.3-1.20","17:46:43","5","","","","","","","<div>
            <img class='stim' src=""pictures/prac/0.jpg""></div><div class=""button_prompt"">
                        <b>请用数字键1-3回答</b>
                        </div>","","","","","","","","","","","","","","","","","","",""
"1000","null","sub_response","html-keyboard-response","87","198762","0.0-1.0-4.3-3.3-2.20","17:46:43","5","","","","","","","<div style='text-align: center;'>
                            <span style=""color: red; font-size: 40px""><b>错误！+0 pts</b></span></div>
                            ","","learn","0","0","0","learn","0","0","[0, 1, 2]","2","0","setsize","99","prac","0","0","2","0",""
"null","null","fixation","html-keyboard-response","88","199263","0.0-1.0-4.3-3.3-0.21","17:46:43","5","","","","","","","fixation","","","","","","","","","","","","","","","","","","",""
"562","1","pic_response","html-keyboard-response","89","199826","0.0-1.0-4.3-3.3-1.21","17:46:43","5","","","","","","","<div>
            <img class='stim' src=""pictures/prac/1.jpg""></div><div class=""button_prompt"">
                        <b>请用数字键1-3回答</b>
                        </div>","","","","","","","","","","","","","","","","","","",""
"562","null","sub_response","html-keyboard-response","90","200829","0.0-1.0-4.3-3.3-2.21","17:46:43","5","","","","","","","<div style='text-align: center;'>
                            <span style=""color: green; font-size: 40px""><b>正确！+1 pts</b></span></div>
                            ","","learn","1","1","1","learn","0","0","[0, 1, 2]","3","1","setsize","99","prac","0","1","0","1",""
"null","null","fixation","html-keyboard-response","91","201330","0.0-1.0-4.3-3.3-0.22","17:46:43","5","","","","","","","fixation","","","","","","","","","","","","","","","","","","",""
"545","3","pic_response","html-keyboard-response","92","201875","0.0-1.0-4.3-3.3-1.22","17:46:43","5","","","","","","","<div>
            <img class='stim' src=""pictures/prac/0.jpg""></div><div class=""button_prompt"">
                        <b>请用数字键1-3回答</b>
                        </div>","","","","","","","","","","","","","","","","","","",""
"545","null","sub_response","html-keyboard-response","93","202877","0.0-1.0-4.3-3.3-2.22","17:46:43","5","","","","","","","<div style='text-align: center;'>
                            <span style=""color: red; font-size: 40px""><b>错误！+0 pts</b></span></div>
                            ","","learn","0","0","0","learn","0","0","[0, 1, 2]","4","1","setsize","99","prac","0","0","2","0",""
"null","null","fixation","html-keyboard-response","94","203378","0.0-1.0-4.3-3.3-0.23","17:46:43","5","","","","","","","fixation","","","","","","","","","","","","","","","","","","",""
"747","2","pic_response","html-keyboard-response","95","204125","0.0-1.0-4.3-3.3-1.23","17:46:43","5","","","","","","","<div>
            <img class='stim' src=""pictures/prac/2.jpg""></div><div class=""button_prompt"">
                        <b>请用数字键1-3回答</b>
                        </div>","","","","","","","","","","","","","","","","","","",""
"747","null","sub_response","html-keyboard-response","96","205127","0.0-1.0-4.3-3.3-2.23","17:46:43","5","","","","","","","<div style='text-align: center;'>
                            <span style=""color: red; font-size: 40px""><b>错误！+0 pts</b></span></div>
                            ","","learn","2","2","2","learn","2","2","[0, 1, 2]","5","1","setsize","99","prac","0","0","1","0",""
"","","","preload","97","205129","0.0-1.0-4.4-0.4","17:46:43","5","true","false","[]","[]","[]","","","","","","","","","","","","","","","","","","","","",""
"732"," ","","html-keyboard-response","98","205861","0.0-1.0-4.4-1.4","17:46:43","5","","","","","","","<div style='font-size: 32px; text-align: center;'
                    <p>请学习图片和数字之间的对应关系</p>
                    <p>我们将<span style='color: blue'><b> 告诉 </b></span>您选择的对错。请根据反馈学习。</p>
                    <p>请按""空格""继续实验。</p></div>","","","","","","","","","","","","","","","","","","",""
"543"," ","inst","html-keyboard-response","99","206405","0.0-1.0-4.4-2.4","17:46:43","5","","","","","","","<img class='instruct_stim' src=""instruction/prac3.PNG""></div>","","","","","","","","","","","","","","","","","","",""
"null","null","fixation","html-keyboard-response","100","206906","0.0-1.0-4.4-3.4-0.24","17:46:43","5","","","","","","","fixation","","","","","","","","","","","","","","","","","","",""
"571","1","pic_response","html-keyboard-response","101","207478","0.0-1.0-4.4-3.4-1.24","17:46:43","5","","","","","","","<div>
            <img class='stim' src=""pictures/prac/1.jpg""></div><div class=""button_prompt"">
                        <b>请用数字键1-3回答</b>
                        </div>","","","","","","","","","","","","","","","","","","",""
"571","null","sub_response","html-keyboard-response","102","208478","0.0-1.0-4.4-3.4-2.24","17:46:43","5","","","","","","","<div style='text-align: center;'>
                            <span style=""color: green; font-size: 40px""><b>正确！+1 pts</b></span></div>
                            ","","learn","1","1","1","learn","0","0","[0, 1, 2]","0","0","setsize","99","prac","0","1","0","1",""
"null","null","fixation","html-keyboard-response","103","208980","0.0-1.0-4.4-3.4-0.25","17:46:43","5","","","","","","","fixation","","","","","","","","","","","","","","","","","","",""
"578","3","pic_response","html-keyboard-response","104","209558","0.0-1.0-4.4-3.4-1.25","17:46:43","5","","","","","","","<div>
            <img class='stim' src=""pictures/prac/2.jpg""></div><div class=""button_prompt"">
                        <b>请用数字键1-3回答</b>
                        </div>","","","","","","","","","","","","","","","","","","",""
"578","null","sub_response","html-keyboard-response","105","210559","0.0-1.0-4.4-3.4-2.25","17:46:43","5","","","","","","","<div style='text-align: center;'>
                            <span style=""color: green; font-size: 40px""><b>正确！+1 pts</b></span></div>
                            ","","learn","2","2","2","learn","2","2","[0, 1, 2]","1","0","setsize","99","prac","0","2","2","1",""
"null","null","fixation","html-keyboard-response","106","211060","0.0-1.0-4.4-3.4-0.26","17:46:43","5","","","","","","","fixation","","","","","","","","","","","","","","","","","","",""
"452","1","pic_response","html-keyboard-response","107","211513","0.0-1.0-4.4-3.4-1.26","17:46:43","5","","","","","","","<div>
            <img class='stim' src=""pictures/prac/0.jpg""></div><div class=""button_prompt"">
                        <b>请用数字键1-3回答</b>
                        </div>","","","","","","","","","","","","","","","","","","",""
"452","null","sub_response","html-keyboard-response","108","212514","0.0-1.0-4.4-3.4-2.26","17:46:43","5","","","","","","","<div style='text-align: center;'>
                            <span style=""color: green; font-size: 40px""><b>正确！+1 pts</b></span></div>
                            ","","learn","0","0","0","learn","0","0","[0, 1, 2]","2","0","setsize","99","prac","0","3","0","1",""
"null","null","fixation","html-keyboard-response","109","213016","0.0-1.0-4.4-3.4-0.27","17:46:43","5","","","","","","","fixation","","","","","","","","","","","","","","","","","","",""
"608","1","pic_response","html-keyboard-response","110","213624","0.0-1.0-4.4-3.4-1.27","17:46:43","5","","","","","","","<div>
            <img class='stim' src=""pictures/prac/1.jpg""></div><div class=""button_prompt"">
                        <b>请用数字键1-3回答</b>
                        </div>","","","","","","","","","","","","","","","","","","",""
"608","null","sub_response","html-keyboard-response","111","214625","0.0-1.0-4.4-3.4-2.27","17:46:43","5","","","","","","","<div style='text-align: center;'>
                            <span style=""color: green; font-size: 40px""><b>正确！+1 pts</b></span></div>
                            ","","learn","1","1","1","learn","0","0","[0, 1, 2]","3","1","setsize","99","prac","0","4","0","1",""
"null","null","fixation","html-keyboard-response","112","215126","0.0-1.0-4.4-3.4-0.28","17:46:43","5","","","","","","","fixation","","","","","","","","","","","","","","","","","","",""
"715","1","pic_response","html-keyboard-response","113","215842","0.0-1.0-4.4-3.4-1.28","17:46:43","5","","","","","","","<div>
            <img class='stim' src=""pictures/prac/0.jpg""></div><div class=""button_prompt"">
                        <b>请用数字键1-3回答</b>
                        </div>","","","","","","","","","","","","","","","","","","",""
"715","null","sub_response","html-keyboard-response","114","216843","0.0-1.0-4.4-3.4-2.28","17:46:43","5","","","","","","","<div style='text-align: center;'>
                            <span style=""color: green; font-size: 40px""><b>正确！+1 pts</b></span></div>
                            ","","learn","0","0","0","learn","0","0","[0, 1, 2]","4","1","setsize","99","prac","0","5","0","1",""
"null","null","fixation","html-keyboard-response","115","217344","0.0-1.0-4.4-3.4-0.29","17:46:43","5","","","","","","","fixation","","","","","","","","","","","","","","","","","","",""
"1064","3","pic_response","html-keyboard-response","116","218409","0.0-1.0-4.4-3.4-1.29","17:46:43","5","","","","","","","<div>
            <img class='stim' src=""pictures/prac/2.jpg""></div><div class=""button_prompt"">
                        <b>请用数字键1-3回答</b>
                        </div>","","","","","","","","","","","","","","","","","","",""
"1064","null","sub_response","html-keyboard-response","117","219410","0.0-1.0-4.4-3.4-2.29","17:46:43","5","","","","","","","<div style='text-align: center;'>
                            <span style=""color: green; font-size: 40px""><b>正确！+1 pts</b></span></div>
                            ","","learn","2","2","2","learn","2","2","[0, 1, 2]","5","1","setsize","99","prac","0","6","2","1",""
"2369"," ","","html-keyboard-response","118","221779","0.0-1.0-5.0","17:46:43","5","","","","","","","<div style=""font-size: 25px""><p>距下一个实验开始还有</p><div style=""font-size: 50px; color: blue""><p><span id=""clock"">1:00</span></div></p><p>按""空格""跳过休息</p></div>","","","","","","","","","","","","","","","","","","",""
"768"," ","","html-keyboard-response","119","222547","0.0-1.0-6.0","17:46:43","5","","","","","","","<div style='font-size: 32px; text-align: center;'
                    <p>请按""空格""继续正式实验。</p></div>","","","","","","","","","","","","","","","","","","",""
"","","","preload","120","223071","0.0-1.0-7.0-0.0","17:46:43","5","true","false","[]","[]","[]","","","","","","","","","","","","","","","","","","","","",""
"964"," ","","html-keyboard-response","121","224035","0.0-1.0-7.0-1.0","17:46:43","5","","","","","","","<div style='font-size: 32px; text-align: center;'
                    <p>请学习图片和数字之间的对应关系</p>
                    <p>我们将<span style='color: blue'><b> 告诉 </b></span>您选择的对错。请根据反馈学习。</p>
                    <p>请按""空格""继续实验。</p></div>","","","","","","","","","","","","","","","","","","",""
"8939"," ","inst","html-keyboard-response","122","232975","0.0-1.0-7.0-2.0","17:46:43","5","","","","","","","<img class='instruct_stim' src=""instruction/furniture10.PNG""></div>","","","","","","","","","","","","","","","","","","",""
"null","null","fixation","html-keyboard-response","123","233476","0.0-1.0-7.0-3.0-0.0","17:46:43","5","","","","","","","fixation","","","","","","","","","","","","","","","","","","",""
"null","null","pic_response","html-keyboard-response","124","236477","0.0-1.0-7.0-3.0-1.0","17:46:43","5","","","","","","","<div>
            <img class='stim' src=""pictures/furniture/7.jpg""></div><div class=""button_prompt"">
                    <b>请用数字键0-9回答</b>
                    </div>","","","","","","","","","","","","","","","","","","",""
"null","null","sub_response","html-keyboard-response","125","237479","0.0-1.0-7.0-3.0-2.0","17:46:43","5","","","","","","","<div style='text-align: center;'>
                            <span style=""color: red; font-size: 40px""><b>错误！+0 pts</b></span></div>
                            ","","learn","7","7","7","learn","7","7","[0, 1, 2, 3, 4, 5, 6, 7, 8, 9]","0","0","setsize","10S10A","furniture","1","0","999","0",""
"null","null","fixation","html-keyboard-response","126","237981","0.0-1.0-7.0-3.0-0.1","17:46:43","5","","","","","","","fixation","","","","","","","","","","","","","","","","","","",""
"338","2","pic_response","html-keyboard-response","127","238319","0.0-1.0-7.0-3.0-1.1","17:46:43","5","","","","","","","<div>
            <img class='stim' src=""pictures/furniture/6.jpg""></div><div class=""button_prompt"">
                    <b>请用数字键0-9回答</b>
                    </div>","","","","","","","","","","","","","","","","","","",""
"338","null","sub_response","html-keyboard-response","128","239321","0.0-1.0-7.0-3.0-2.1","17:46:43","5","","","","","","","<div style='text-align: center;'>
                            <span style=""color: red; font-size: 40px""><b>错误！+0 pts</b></span></div>
                            ","","learn","6","6","6","learn","6","6","[0, 1, 2, 3, 4, 5, 6, 7, 8, 9]","1","0","setsize","10S10A","furniture","1","0","1","0",""
"null","null","fixation","html-keyboard-response","129","239823","0.0-1.0-7.0-3.0-0.2","17:46:43","5","","","","","","","fixation","","","","","","","","","","","","","","","","","","",""
"761","3","pic_response","html-keyboard-response","130","240585","0.0-1.0-7.0-3.0-1.2","17:46:43","5","","","","","","","<div>
            <img class='stim' src=""pictures/furniture/8.jpg""></div><div class=""button_prompt"">
                    <b>请用数字键0-9回答</b>
                    </div>","","","","","","","","","","","","","","","","","","",""
"761","null","sub_response","html-keyboard-response","131","241586","0.0-1.0-7.0-3.0-2.2","17:46:43","5","","","","","","","<div style='text-align: center;'>
                            <span style=""color: red; font-size: 40px""><b>错误！+0 pts</b></span></div>
                            ","","learn","8","8","8","learn","8","8","[0, 1, 2, 3, 4, 5, 6, 7, 8, 9]","2","0","setsize","10S10A","furniture","1","0","2","0",""
"null","null","fixation","html-keyboard-response","132","242088","0.0-1.0-7.0-3.0-0.3","17:46:43","5","","","","","","","fixation","","","","","","","","","","","","","","","","","","",""
"685","4","pic_response","html-keyboard-response","133","242773","0.0-1.0-7.0-3.0-1.3","17:46:43","5","","","","","","","<div>
            <img class='stim' src=""pictures/furniture/0.jpg""></div><div class=""button_prompt"">
                    <b>请用数字键0-9回答</b>
                    </div>","","","","","","","","","","","","","","","","","","",""
"685","null","sub_response","html-keyboard-response","134","243775","0.0-1.0-7.0-3.0-2.3","17:46:43","5","","","","","","","<div style='text-align: center;'>
                            <span style=""color: red; font-size: 40px""><b>错误！+0 pts</b></span></div>
                            ","","learn","0","0","0","learn","0","0","[0, 1, 2, 3, 4, 5, 6, 7, 8, 9]","3","0","setsize","10S10A","furniture","1","0","3","0",""
"null","null","fixation","html-keyboard-response","135","244277","0.0-1.0-7.0-3.0-0.4","17:46:43","5","","","","","","","fixation","","","","","","","","","","","","","","","","","","",""
"566","1","pic_response","html-keyboard-response","136","244844","0.0-1.0-7.0-3.0-1.4","17:46:43","5","","","","","","","<div>
            <img class='stim' src=""pictures/furniture/2.jpg""></div><div class=""button_prompt"">
                    <b>请用数字键0-9回答</b>
                    </div>","","","","","","","","","","","","","","","","","","",""
"566","null","sub_response","html-keyboard-response","137","245845","0.0-1.0-7.0-3.0-2.4","17:46:43","5","","","","","","","<div style='text-align: center;'>
                            <span style=""color: red; font-size: 40px""><b>错误！+0 pts</b></span></div>
                            ","","learn","2","2","2","learn","2","2","[0, 1, 2, 3, 4, 5, 6, 7, 8, 9]","4","0","setsize","10S10A","furniture","1","0","0","0",""
"null","null","fixation","html-keyboard-response","138","246346","0.0-1.0-7.0-3.0-0.5","17:46:43","5","","","","","","","fixation","","","","","","","","","","","","","","","","","","",""
"755","4","pic_response","html-keyboard-response","139","247102","0.0-1.0-7.0-3.0-1.5","17:46:43","5","","","","","","","<div>
            <img class='stim' src=""pictures/furniture/5.jpg""></div><div class=""button_prompt"">
                    <b>请用数字键0-9回答</b>
                    </div>","","","","","","","","","","","","","","","","","","",""
"755","null","sub_response","html-keyboard-response","140","248117","0.0-1.0-7.0-3.0-2.5","17:46:43","5","","","","","","","<div style='text-align: center;'>
                            <span style=""color: red; font-size: 40px""><b>错误！+0 pts</b></span></div>
                            ","","learn","5","5","5","learn","5","5","[0, 1, 2, 3, 4, 5, 6, 7, 8, 9]","5","0","setsize","10S10A","furniture","1","0","3","0",""
"null","null","fixation","html-keyboard-response","141","248618","0.0-1.0-7.0-3.0-0.6","17:46:43","5","","","","","","","fixation","","","","","","","","","","","","","","","","","","",""
"434","3","pic_response","html-keyboard-response","142","249053","0.0-1.0-7.0-3.0-1.6","17:46:43","5","","","","","","","<div>
            <img class='stim' src=""pictures/furniture/3.jpg""></div><div class=""button_prompt"">
                    <b>请用数字键0-9回答</b>
                    </div>","","","","","","","","","","","","","","","","","","",""
"434","null","sub_response","html-keyboard-response","143","250054","0.0-1.0-7.0-3.0-2.6","17:46:43","5","","","","","","","<div style='text-align: center;'>
                            <span style=""color: red; font-size: 40px""><b>错误！+0 pts</b></span></div>
                            ","","learn","3","3","3","learn","3","3","[0, 1, 2, 3, 4, 5, 6, 7, 8, 9]","6","0","setsize","10S10A","furniture","1","0","2","0",""
"null","null","fixation","html-keyboard-response","144","250569","0.0-1.0-7.0-3.0-0.7","17:46:43","5","","","","","","","fixation","","","","","","","","","","","","","","","","","","",""
"611","7","pic_response","html-keyboard-response","145","251181","0.0-1.0-7.0-3.0-1.7","17:46:43","5","","","","","","","<div>
            <img class='stim' src=""pictures/furniture/1.jpg""></div><div class=""button_prompt"">
                    <b>请用数字键0-9回答</b>
                    </div>","","","","","","","","","","","","","","","","","","",""
"611","null","sub_response","html-keyboard-response","146","252182","0.0-1.0-7.0-3.0-2.7","17:46:43","5","","","","","","","<div style='text-align: center;'>
                            <span style=""color: red; font-size: 40px""><b>错误！+0 pts</b></span></div>
                            ","","learn","1","1","1","learn","1","1","[0, 1, 2, 3, 4, 5, 6, 7, 8, 9]","7","0","setsize","10S10A","furniture","1","0","6","0",""
"null","null","fixation","html-keyboard-response","147","252684","0.0-1.0-7.0-3.0-0.8","17:46:43","5","","","","","","","fixation","","","","","","","","","","","","","","","","","","",""
"332","8","pic_response","html-keyboard-response","148","253016","0.0-1.0-7.0-3.0-1.8","17:46:43","5","","","","","","","<div>
            <img class='stim' src=""pictures/furniture/9.jpg""></div><div class=""button_prompt"">
                    <b>请用数字键0-9回答</b>
                    </div>","","","","","","","","","","","","","","","","","","",""
"332","null","sub_response","html-keyboard-response","149","254017","0.0-1.0-7.0-3.0-2.8","17:46:43","5","","","","","","","<div style='text-align: center;'>
                            <span style=""color: red; font-size: 40px""><b>错误！+0 pts</b></span></div>
                            ","","learn","9","9","9","learn","9","9","[0, 1, 2, 3, 4, 5, 6, 7, 8, 9]","8","0","setsize","10S10A","furniture","1","0","7","0",""
"null","null","fixation","html-keyboard-response","150","254519","0.0-1.0-7.0-3.0-0.9","17:46:43","5","","","","","","","fixation","","","","","","","","","","","","","","","","","","",""
"327","8","pic_response","html-keyboard-response","151","254846","0.0-1.0-7.0-3.0-1.9","17:46:43","5","","","","","","","<div>
            <img class='stim' src=""pictures/furniture/4.jpg""></div><div class=""button_prompt"">
                    <b>请用数字键0-9回答</b>
                    </div>","","","","","","","","","","","","","","","","","","",""
"327","null","sub_response","html-keyboard-response","152","255848","0.0-1.0-7.0-3.0-2.9","17:46:43","5","","","","","","","<div style='text-align: center;'>
                            <span style=""color: red; font-size: 40px""><b>错误！+0 pts</b></span></div>
                            ","","learn","4","4","4","learn","4","4","[0, 1, 2, 3, 4, 5, 6, 7, 8, 9]","9","0","setsize","10S10A","furniture","1","0","7","0",""
"null","null","fixation","html-keyboard-response","153","256350","0.0-1.0-7.0-3.0-0.10","17:46:43","5","","","","","","","fixation","","","","","","","","","","","","","","","","","","",""
"317","7","pic_response","html-keyboard-response","154","256667","0.0-1.0-7.0-3.0-1.10","17:46:43","5","","","","","","","<div>
            <img class='stim' src=""pictures/furniture/4.jpg""></div><div class=""button_prompt"">
                    <b>请用数字键0-9回答</b>
                    </div>","","","","","","","","","","","","","","","","","","",""
"317","null","sub_response","html-keyboard-response","155","257669","0.0-1.0-7.0-3.0-2.10","17:46:43","5","","","","","","","<div style='text-align: center;'>
                            <span style=""color: red; font-size: 40px""><b>错误！+0 pts</b></span></div>
                            ","","learn","4","4","4","learn","4","4","[0, 1, 2, 3, 4, 5, 6, 7, 8, 9]","10","1","setsize","10S10A","furniture","1","0","6","0",""
"null","null","fixation","html-keyboard-response","156","258171","0.0-1.0-7.0-3.0-0.11","17:46:43","5","","","","","","","fixation","","","","","","","","","","","","","","","","","","",""
"891","4","pic_response","html-keyboard-response","157","259062","0.0-1.0-7.0-3.0-1.11","17:46:43","5","","","","","","","<div>
            <img class='stim' src=""pictures/furniture/0.jpg""></div><div class=""button_prompt"">
                    <b>请用数字键0-9回答</b>
                    </div>","","","","","","","","","","","","","","","","","","",""
"891","null","sub_response","html-keyboard-response","158","260064","0.0-1.0-7.0-3.0-2.11","17:46:43","5","","","","","","","<div style='text-align: center;'>
                            <span style=""color: red; font-size: 40px""><b>错误！+0 pts</b></span></div>
                            ","","learn","0","0","0","learn","0","0","[0, 1, 2, 3, 4, 5, 6, 7, 8, 9]","11","1","setsize","10S10A","furniture","1","0","3","0",""
"null","null","fixation","html-keyboard-response","159","260565","0.0-1.0-7.0-3.0-0.12","17:46:43","5","","","","","","","fixation","","","","","","","","","","","","","","","","","","",""
"955","6","pic_response","html-keyboard-response","160","261520","0.0-1.0-7.0-3.0-1.12","17:46:43","5","","","","","","","<div>
            <img class='stim' src=""pictures/furniture/5.jpg""></div><div class=""button_prompt"">
                    <b>请用数字键0-9回答</b>
                    </div>","","","","","","","","","","","","","","","","","","",""
"955","null","sub_response","html-keyboard-response","161","262522","0.0-1.0-7.0-3.0-2.12","17:46:43","5","","","","","","","<div style='text-align: center;'>
                            <span style=""color: green; font-size: 40px""><b>正确！+1 pts</b></span></div>
                            ","","learn","5","5","5","learn","5","5","[0, 1, 2, 3, 4, 5, 6, 7, 8, 9]","12","1","setsize","10S10A","furniture","1","1","5","1",""
"null","null","fixation","html-keyboard-response","162","263023","0.0-1.0-7.0-3.0-0.13","17:46:43","5","","","","","","","fixation","","","","","","","","","","","","","","","","","","",""
"779","6","pic_response","html-keyboard-response","163","263803","0.0-1.0-7.0-3.0-1.13","17:46:43","5","","","","","","","<div>
            <img class='stim' src=""pictures/furniture/2.jpg""></div><div class=""button_prompt"">
                    <b>请用数字键0-9回答</b>
                    </div>","","","","","","","","","","","","","","","","","","",""
"779","null","sub_response","html-keyboard-response","164","264805","0.0-1.0-7.0-3.0-2.13","17:46:43","5","","","","","","","<div style='text-align: center;'>
                            <span style=""color: red; font-size: 40px""><b>错误！+0 pts</b></span></div>
                            ","","learn","2","2","2","learn","2","2","[0, 1, 2, 3, 4, 5, 6, 7, 8, 9]","13","1","setsize","10S10A","furniture","1","0","5","0",""
"null","null","fixation","html-keyboard-response","165","265307","0.0-1.0-7.0-3.0-0.14","17:46:43","5","","","","","","","fixation","","","","","","","","","","","","","","","","","","",""
"2002","4","pic_response","html-keyboard-response","166","267309","0.0-1.0-7.0-3.0-1.14","17:46:43","5","","","","","","","<div>
            <img class='stim' src=""pictures/furniture/1.jpg""></div><div class=""button_prompt"">
                    <b>请用数字键0-9回答</b>
                    </div>","","","","","","","","","","","","","","","","","","",""
"2002","null","sub_response","html-keyboard-response","167","268310","0.0-1.0-7.0-3.0-2.14","17:46:43","5","","","","","","","<div style='text-align: center;'>
                            <span style=""color: red; font-size: 40px""><b>错误！+0 pts</b></span></div>
                            ","","learn","1","1","1","learn","1","1","[0, 1, 2, 3, 4, 5, 6, 7, 8, 9]","14","1","setsize","10S10A","furniture","1","0","3","0",""
"null","null","fixation","html-keyboard-response","168","268812","0.0-1.0-7.0-3.0-0.15","17:46:43","5","","","","","","","fixation","","","","","","","","","","","","","","","","","","",""
"1854","9","pic_response","html-keyboard-response","169","270667","0.0-1.0-7.0-3.0-1.15","17:46:43","5","","","","","","","<div>
            <img class='stim' src=""pictures/furniture/8.jpg""></div><div class=""button_prompt"">
                    <b>请用数字键0-9回答</b>
                    </div>","","","","","","","","","","","","","","","","","","",""
"1854","null","sub_response","html-keyboard-response","170","271668","0.0-1.0-7.0-3.0-2.15","17:46:43","5","","","","","","","<div style='text-align: center;'>
                            <span style=""color: green; font-size: 40px""><b>正确！+1 pts</b></span></div>
                            ","","learn","8","8","8","learn","8","8","[0, 1, 2, 3, 4, 5, 6, 7, 8, 9]","15","1","setsize","10S10A","furniture","1","1","8","1",""
"null","null","fixation","html-keyboard-response","171","272170","0.0-1.0-7.0-3.0-0.16","17:46:43","5","","","","","","","fixation","","","","","","","","","","","","","","","","","","",""
"1653","8","pic_response","html-keyboard-response","172","273824","0.0-1.0-7.0-3.0-1.16","17:46:43","5","","","","","","","<div>
            <img class='stim' src=""pictures/furniture/6.jpg""></div><div class=""button_prompt"">
                    <b>请用数字键0-9回答</b>
                    </div>","","","","","","","","","","","","","","","","","","",""
"1653","null","sub_response","html-keyboard-response","173","274825","0.0-1.0-7.0-3.0-2.16","17:46:43","5","","","","","","","<div style='text-align: center;'>
                            <span style=""color: red; font-size: 40px""><b>错误！+0 pts</b></span></div>
                            ","","learn","6","6","6","learn","6","6","[0, 1, 2, 3, 4, 5, 6, 7, 8, 9]","16","1","setsize","10S10A","furniture","1","0","7","0",""
"null","null","fixation","html-keyboard-response","174","275326","0.0-1.0-7.0-3.0-0.17","17:46:43","5","","","","","","","fixation","","","","","","","","","","","","","","","","","","",""
"1107","5","pic_response","html-keyboard-response","175","276434","0.0-1.0-7.0-3.0-1.17","17:46:43","5","","","","","","","<div>
            <img class='stim' src=""pictures/furniture/9.jpg""></div><div class=""button_prompt"">
                    <b>请用数字键0-9回答</b>
                    </div>","","","","","","","","","","","","","","","","","","",""
"1107","null","sub_response","html-keyboard-response","176","277436","0.0-1.0-7.0-3.0-2.17","17:46:43","5","","","","","","","<div style='text-align: center;'>
                            <span style=""color: red; font-size: 40px""><b>错误！+0 pts</b></span></div>
                            ","","learn","9","9","9","learn","9","9","[0, 1, 2, 3, 4, 5, 6, 7, 8, 9]","17","1","setsize","10S10A","furniture","1","0","4","0",""
"null","null","fixation","html-keyboard-response","177","277938","0.0-1.0-7.0-3.0-0.18","17:46:43","5","","","","","","","fixation","","","","","","","","","","","","","","","","","","",""
"1433","3","pic_response","html-keyboard-response","178","279371","0.0-1.0-7.0-3.0-1.18","17:46:43","5","","","","","","","<div>
            <img class='stim' src=""pictures/furniture/3.jpg""></div><div class=""button_prompt"">
                    <b>请用数字键0-9回答</b>
                    </div>","","","","","","","","","","","","","","","","","","",""
"1433","null","sub_response","html-keyboard-response","179","280373","0.0-1.0-7.0-3.0-2.18","17:46:43","5","","","","","","","<div style='text-align: center;'>
                            <span style=""color: red; font-size: 40px""><b>错误！+0 pts</b></span></div>
                            ","","learn","3","3","3","learn","3","3","[0, 1, 2, 3, 4, 5, 6, 7, 8, 9]","18","1","setsize","10S10A","furniture","1","0","2","0",""
"null","null","fixation","html-keyboard-response","180","280875","0.0-1.0-7.0-3.0-0.19","17:46:43","5","","","","","","","fixation","","","","","","","","","","","","","","","","","","",""
"567","1","pic_response","html-keyboard-response","181","281443","0.0-1.0-7.0-3.0-1.19","17:46:43","5","","","","","","","<div>
            <img class='stim' src=""pictures/furniture/7.jpg""></div><div class=""button_prompt"">
                    <b>请用数字键0-9回答</b>
                    </div>","","","","","","","","","","","","","","","","","","",""
"567","null","sub_response","html-keyboard-response","182","282445","0.0-1.0-7.0-3.0-2.19","17:46:43","5","","","","","","","<div style='text-align: center;'>
                            <span style=""color: red; font-size: 40px""><b>错误！+0 pts</b></span></div>
                            ","","learn","7","7","7","learn","7","7","[0, 1, 2, 3, 4, 5, 6, 7, 8, 9]","19","1","setsize","10S10A","furniture","1","0","0","0",""
"null","null","fixation","html-keyboard-response","183","282946","0.0-1.0-7.0-3.0-0.20","17:46:43","5","","","","","","","fixation","","","","","","","","","","","","","","","","","","",""
"844","9","pic_response","html-keyboard-response","184","283791","0.0-1.0-7.0-3.0-1.20","17:46:43","5","","","","","","","<div>
            <img class='stim' src=""pictures/furniture/6.jpg""></div><div class=""button_prompt"">
                    <b>请用数字键0-9回答</b>
                    </div>","","","","","","","","","","","","","","","","","","",""
"844","null","sub_response","html-keyboard-response","185","284793","0.0-1.0-7.0-3.0-2.20","17:46:43","5","","","","","","","<div style='text-align: center;'>
                            <span style=""color: red; font-size: 40px""><b>错误！+0 pts</b></span></div>
                            ","","learn","6","6","6","learn","6","6","[0, 1, 2, 3, 4, 5, 6, 7, 8, 9]","20","2","setsize","10S10A","furniture","1","0","8","0",""
"null","null","fixation","html-keyboard-response","186","285295","0.0-1.0-7.0-3.0-0.21","17:46:43","5","","","","","","","fixation","","","","","","","","","","","","","","","","","","",""
"945","9","pic_response","html-keyboard-response","187","286240","0.0-1.0-7.0-3.0-1.21","17:46:43","5","","","","","","","<div>
            <img class='stim' src=""pictures/furniture/1.jpg""></div><div class=""button_prompt"">
                    <b>请用数字键0-9回答</b>
                    </div>","","","","","","","","","","","","","","","","","","",""
"945","null","sub_response","html-keyboard-response","188","287241","0.0-1.0-7.0-3.0-2.21","17:46:43","5","","","","","","","<div style='text-align: center;'>
                            <span style=""color: red; font-size: 40px""><b>错误！+0 pts</b></span></div>
                            ","","learn","1","1","1","learn","1","1","[0, 1, 2, 3, 4, 5, 6, 7, 8, 9]","21","2","setsize","10S10A","furniture","1","0","8","0",""
"null","null","fixation","html-keyboard-response","189","287742","0.0-1.0-7.0-3.0-0.22","17:46:43","5","","","","","","","fixation","","","","","","","","","","","","","","","","","","",""
"370","6","pic_response","html-keyboard-response","190","288112","0.0-1.0-7.0-3.0-1.22","17:46:43","5","","","","","","","<div>
            <img class='stim' src=""pictures/furniture/9.jpg""></div><div class=""button_prompt"">
                    <b>请用数字键0-9回答</b>
                    </div>","","","","","","","","","","","","","","","","","","",""
"370","null","sub_response","html-keyboard-response","191","289113","0.0-1.0-7.0-3.0-2.22","17:46:43","5","","","","","","","<div style='text-align: center;'>
                            <span style=""color: red; font-size: 40px""><b>错误！+0 pts</b></span></div>
                            ","","learn","9","9","9","learn","9","9","[0, 1, 2, 3, 4, 5, 6, 7, 8, 9]","22","2","setsize","10S10A","furniture","1","0","5","0",""
"null","null","fixation","html-keyboard-response","192","289614","0.0-1.0-7.0-3.0-0.23","17:46:43","5","","","","","","","fixation","","","","","","","","","","","","","","","","","","",""
"513","4","pic_response","html-keyboard-response","193","290127","0.0-1.0-7.0-3.0-1.23","17:46:43","5","","","","","","","<div>
            <img class='stim' src=""pictures/furniture/7.jpg""></div><div class=""button_prompt"">
                    <b>请用数字键0-9回答</b>
                    </div>","","","","","","","","","","","","","","","","","","",""
"513","null","sub_response","html-keyboard-response","194","291128","0.0-1.0-7.0-3.0-2.23","17:46:43","5","","","","","","","<div style='text-align: center;'>
                            <span style=""color: red; font-size: 40px""><b>错误！+0 pts</b></span></div>
                            ","","learn","7","7","7","learn","7","7","[0, 1, 2, 3, 4, 5, 6, 7, 8, 9]","23","2","setsize","10S10A","furniture","1","0","3","0",""
"null","null","fixation","html-keyboard-response","195","291644","0.0-1.0-7.0-3.0-0.24","17:46:43","5","","","","","","","fixation","","","","","","","","","","","","","","","","","","",""
"1209","6","pic_response","html-keyboard-response","196","292853","0.0-1.0-7.0-3.0-1.24","17:46:43","5","","","","","","","<div>
            <img class='stim' src=""pictures/furniture/2.jpg""></div><div class=""button_prompt"">
                    <b>请用数字键0-9回答</b>
                    </div>","","","","","","","","","","","","","","","","","","",""
"1209","null","sub_response","html-keyboard-response","197","293855","0.0-1.0-7.0-3.0-2.24","17:46:43","5","","","","","","","<div style='text-align: center;'>
                            <span style=""color: red; font-size: 40px""><b>错误！+0 pts</b></span></div>
                            ","","learn","2","2","2","learn","2","2","[0, 1, 2, 3, 4, 5, 6, 7, 8, 9]","24","2","setsize","10S10A","furniture","1","0","5","0",""
"null","null","fixation","html-keyboard-response","198","294355","0.0-1.0-7.0-3.0-0.25","17:46:43","5","","","","","","","fixation","","","","","","","","","","","","","","","","","","",""
"328","9","pic_response","html-keyboard-response","199","294683","0.0-1.0-7.0-3.0-1.25","17:46:43","5","","","","","","","<div>
            <img class='stim' src=""pictures/furniture/4.jpg""></div><div class=""button_prompt"">
                    <b>请用数字键0-9回答</b>
                    </div>","","","","","","","","","","","","","","","","","","",""
"328","null","sub_response","html-keyboard-response","200","295685","0.0-1.0-7.0-3.0-2.25","17:46:43","5","","","","","","","<div style='text-align: center;'>
                            <span style=""color: red; font-size: 40px""><b>错误！+0 pts</b></span></div>
                            ","","learn","4","4","4","learn","4","4","[0, 1, 2, 3, 4, 5, 6, 7, 8, 9]","25","2","setsize","10S10A","furniture","1","0","8","0",""
"null","null","fixation","html-keyboard-response","201","296188","0.0-1.0-7.0-3.0-0.26","17:46:43","5","","","","","","","fixation","","","","","","","","","","","","","","","","","","",""
"1652","0","pic_response","html-keyboard-response","202","297840","0.0-1.0-7.0-3.0-1.26","17:46:43","5","","","","","","","<div>
            <img class='stim' src=""pictures/furniture/3.jpg""></div><div class=""button_prompt"">
                    <b>请用数字键0-9回答</b>
                    </div>","","","","","","","","","","","","","","","","","","",""
"1652","null","sub_response","html-keyboard-response","203","298842","0.0-1.0-7.0-3.0-2.26","17:46:43","5","","","","","","","<div style='text-align: center;'>
                            <span style=""color: red; font-size: 40px""><b>错误！+0 pts</b></span></div>
                            ","","learn","3","3","3","learn","3","3","[0, 1, 2, 3, 4, 5, 6, 7, 8, 9]","26","2","setsize","10S10A","furniture","1","0","9","0",""
"null","null","fixation","html-keyboard-response","204","299343","0.0-1.0-7.0-3.0-0.27","17:46:43","5","","","","","","","fixation","","","","","","","","","","","","","","","","","","",""
"1003","6","pic_response","html-keyboard-response","205","300347","0.0-1.0-7.0-3.0-1.27","17:46:43","5","","","","","","","<div>
            <img class='stim' src=""pictures/furniture/8.jpg""></div><div class=""button_prompt"">
                    <b>请用数字键0-9回答</b>
                    </div>","","","","","","","","","","","","","","","","","","",""
"1003","null","sub_response","html-keyboard-response","206","301349","0.0-1.0-7.0-3.0-2.27","17:46:43","5","","","","","","","<div style='text-align: center;'>
                            <span style=""color: red; font-size: 40px""><b>错误！+0 pts</b></span></div>
                            ","","learn","8","8","8","learn","8","8","[0, 1, 2, 3, 4, 5, 6, 7, 8, 9]","27","2","setsize","10S10A","furniture","1","0","5","0",""
"null","null","fixation","html-keyboard-response","207","301850","0.0-1.0-7.0-3.0-0.28","17:46:43","5","","","","","","","fixation","","","","","","","","","","","","","","","","","","",""
"663","9","pic_response","html-keyboard-response","208","302514","0.0-1.0-7.0-3.0-1.28","17:46:43","5","","","","","","","<div>
            <img class='stim' src=""pictures/furniture/5.jpg""></div><div class=""button_prompt"">
                    <b>请用数字键0-9回答</b>
                    </div>","","","","","","","","","","","","","","","","","","",""
"663","null","sub_response","html-keyboard-response","209","303515","0.0-1.0-7.0-3.0-2.28","17:46:43","5","","","","","","","<div style='text-align: center;'>
                            <span style=""color: red; font-size: 40px""><b>错误！+0 pts</b></span></div>
                            ","","learn","5","5","5","learn","5","5","[0, 1, 2, 3, 4, 5, 6, 7, 8, 9]","28","2","setsize","10S10A","furniture","1","0","8","0",""
"null","null","fixation","html-keyboard-response","210","304016","0.0-1.0-7.0-3.0-0.29","17:46:43","5","","","","","","","fixation","","","","","","","","","","","","","","","","","","",""
"642","6","pic_response","html-keyboard-response","211","304658","0.0-1.0-7.0-3.0-1.29","17:46:43","5","","","","","","","<div>
            <img class='stim' src=""pictures/furniture/0.jpg""></div><div class=""button_prompt"">
                    <b>请用数字键0-9回答</b>
                    </div>","","","","","","","","","","","","","","","","","","",""
"642","null","sub_response","html-keyboard-response","212","305659","0.0-1.0-7.0-3.0-2.29","17:46:43","5","","","","","","","<div style='text-align: center;'>
                            <span style=""color: red; font-size: 40px""><b>错误！+0 pts</b></span></div>
                            ","","learn","0","0","0","learn","0","0","[0, 1, 2, 3, 4, 5, 6, 7, 8, 9]","29","2","setsize","10S10A","furniture","1","0","5","0",""
"null","null","fixation","html-keyboard-response","213","306161","0.0-1.0-7.0-3.0-0.30","17:46:43","5","","","","","","","fixation","","","","","","","","","","","","","","","","","","",""
"337","4","pic_response","html-keyboard-response","214","306498","0.0-1.0-7.0-3.0-1.30","17:46:43","5","","","","","","","<div>
            <img class='stim' src=""pictures/furniture/3.jpg""></div><div class=""button_prompt"">
                    <b>请用数字键0-9回答</b>
                    </div>","","","","","","","","","","","","","","","","","","",""
"337","null","sub_response","html-keyboard-response","215","307500","0.0-1.0-7.0-3.0-2.30","17:46:43","5","","","","","","","<div style='text-align: center;'>
                            <span style=""color: green; font-size: 40px""><b>正确！+1 pts</b></span></div>
                            ","","learn","3","3","3","learn","3","3","[0, 1, 2, 3, 4, 5, 6, 7, 8, 9]","30","3","setsize","10S10A","furniture","1","1","3","1",""
"null","null","fixation","html-keyboard-response","216","308001","0.0-1.0-7.0-3.0-0.31","17:46:43","5","","","","","","","fixation","","","","","","","","","","","","","","","","","","",""
"744","4","pic_response","html-keyboard-response","217","308746","0.0-1.0-7.0-3.0-1.31","17:46:43","5","","","","","","","<div>
            <img class='stim' src=""pictures/furniture/4.jpg""></div><div class=""button_prompt"">
                    <b>请用数字键0-9回答</b>
                    </div>","","","","","","","","","","","","","","","","","","",""
"744","null","sub_response","html-keyboard-response","218","309746","0.0-1.0-7.0-3.0-2.31","17:46:43","5","","","","","","","<div style='text-align: center;'>
                            <span style=""color: red; font-size: 40px""><b>错误！+0 pts</b></span></div>
                            ","","learn","4","4","4","learn","4","4","[0, 1, 2, 3, 4, 5, 6, 7, 8, 9]","31","3","setsize","10S10A","furniture","1","0","3","0",""
"null","null","fixation","html-keyboard-response","219","310247","0.0-1.0-7.0-3.0-0.32","17:46:43","5","","","","","","","fixation","","","","","","","","","","","","","","","","","","",""
"936","3","pic_response","html-keyboard-response","220","311183","0.0-1.0-7.0-3.0-1.32","17:46:43","5","","","","","","","<div>
            <img class='stim' src=""pictures/furniture/2.jpg""></div><div class=""button_prompt"">
                    <b>请用数字键0-9回答</b>
                    </div>","","","","","","","","","","","","","","","","","","",""
"936","null","sub_response","html-keyboard-response","221","312185","0.0-1.0-7.0-3.0-2.32","17:46:43","5","","","","","","","<div style='text-align: center;'>
                            <span style=""color: green; font-size: 40px""><b>正确！+1 pts</b></span></div>
                            ","","learn","2","2","2","learn","2","2","[0, 1, 2, 3, 4, 5, 6, 7, 8, 9]","32","3","setsize","10S10A","furniture","1","1","2","1",""
"null","null","fixation","html-keyboard-response","222","312687","0.0-1.0-7.0-3.0-0.33","17:46:43","5","","","","","","","fixation","","","","","","","","","","","","","","","","","","",""
"1070","4","pic_response","html-keyboard-response","223","313757","0.0-1.0-7.0-3.0-1.33","17:46:43","5","","","","","","","<div>
            <img class='stim' src=""pictures/furniture/9.jpg""></div><div class=""button_prompt"">
                    <b>请用数字键0-9回答</b>
                    </div>","","","","","","","","","","","","","","","","","","",""
"1070","null","sub_response","html-keyboard-response","224","314758","0.0-1.0-7.0-3.0-2.33","17:46:43","5","","","","","","","<div style='text-align: center;'>
                            <span style=""color: red; font-size: 40px""><b>错误！+0 pts</b></span></div>
                            ","","learn","9","9","9","learn","9","9","[0, 1, 2, 3, 4, 5, 6, 7, 8, 9]","33","3","setsize","10S10A","furniture","1","0","3","0",""
"null","null","fixation","html-keyboard-response","225","315260","0.0-1.0-7.0-3.0-0.34","17:46:43","5","","","","","","","fixation","","","","","","","","","","","","","","","","","","",""
"1106","3","pic_response","html-keyboard-response","226","316366","0.0-1.0-7.0-3.0-1.34","17:46:43","5","","","","","","","<div>
            <img class='stim' src=""pictures/furniture/7.jpg""></div><div class=""button_prompt"">
                    <b>请用数字键0-9回答</b>
                    </div>","","","","","","","","","","","","","","","","","","",""
"1106","null","sub_response","html-keyboard-response","227","317368","0.0-1.0-7.0-3.0-2.34","17:46:43","5","","","","","","","<div style='text-align: center;'>
                            <span style=""color: red; font-size: 40px""><b>错误！+0 pts</b></span></div>
                            ","","learn","7","7","7","learn","7","7","[0, 1, 2, 3, 4, 5, 6, 7, 8, 9]","34","3","setsize","10S10A","furniture","1","0","2","0",""
"null","null","fixation","html-keyboard-response","228","317870","0.0-1.0-7.0-3.0-0.35","17:46:43","5","","","","","","","fixation","","","","","","","","","","","","","","","","","","",""
"755","6","pic_response","html-keyboard-response","229","318625","0.0-1.0-7.0-3.0-1.35","17:46:43","5","","","","","","","<div>
            <img class='stim' src=""pictures/furniture/5.jpg""></div><div class=""button_prompt"">
                    <b>请用数字键0-9回答</b>
                    </div>","","","","","","","","","","","","","","","","","","",""
"755","null","sub_response","html-keyboard-response","230","319627","0.0-1.0-7.0-3.0-2.35","17:46:43","5","","","","","","","<div style='text-align: center;'>
                            <span style=""color: green; font-size: 40px""><b>正确！+1 pts</b></span></div>
                            ","","learn","5","5","5","learn","5","5","[0, 1, 2, 3, 4, 5, 6, 7, 8, 9]","35","3","setsize","10S10A","furniture","1","1","5","1",""
"null","null","fixation","html-keyboard-response","231","320129","0.0-1.0-7.0-3.0-0.36","17:46:43","5","","","","","","","fixation","","","","","","","","","","","","","","","","","","",""
"872","9","pic_response","html-keyboard-response","232","321002","0.0-1.0-7.0-3.0-1.36","17:46:43","5","","","","","","","<div>
            <img class='stim' src=""pictures/furniture/8.jpg""></div><div class=""button_prompt"">
                    <b>请用数字键0-9回答</b>
                    </div>","","","","","","","","","","","","","","","","","","",""
"872","null","sub_response","html-keyboard-response","233","322004","0.0-1.0-7.0-3.0-2.36","17:46:43","5","","","","","","","<div style='text-align: center;'>
                            <span style=""color: green; font-size: 40px""><b>正确！+1 pts</b></span></div>
                            ","","learn","8","8","8","learn","8","8","[0, 1, 2, 3, 4, 5, 6, 7, 8, 9]","36","3","setsize","10S10A","furniture","1","2","8","1",""
"null","null","fixation","html-keyboard-response","234","322506","0.0-1.0-7.0-3.0-0.37","17:46:43","5","","","","","","","fixation","","","","","","","","","","","","","","","","","","",""
"1144","4","pic_response","html-keyboard-response","235","323650","0.0-1.0-7.0-3.0-1.37","17:46:43","5","","","","","","","<div>
            <img class='stim' src=""pictures/furniture/0.jpg""></div><div class=""button_prompt"">
                    <b>请用数字键0-9回答</b>
                    </div>","","","","","","","","","","","","","","","","","","",""
"1144","null","sub_response","html-keyboard-response","236","324657","0.0-1.0-7.0-3.0-2.37","17:46:43","5","","","","","","","<div style='text-align: center;'>
                            <span style=""color: red; font-size: 40px""><b>错误！+0 pts</b></span></div>
                            ","","learn","0","0","0","learn","0","0","[0, 1, 2, 3, 4, 5, 6, 7, 8, 9]","37","3","setsize","10S10A","furniture","1","0","3","0",""
"null","null","fixation","html-keyboard-response","237","325157","0.0-1.0-7.0-3.0-0.38","17:46:43","5","","","","","","","fixation","","","","","","","","","","","","","","","","","","",""
"730","3","pic_response","html-keyboard-response","238","325888","0.0-1.0-7.0-3.0-1.38","17:46:43","5","","","","","","","<div>
            <img class='stim' src=""pictures/furniture/6.jpg""></div><div class=""button_prompt"">
                    <b>请用数字键0-9回答</b>
                    </div>","","","","","","","","","","","","","","","","","","",""
"730","null","sub_response","html-keyboard-response","239","326888","0.0-1.0-7.0-3.0-2.38","17:46:43","5","","","","","","","<div style='text-align: center;'>
                            <span style=""color: red; font-size: 40px""><b>错误！+0 pts</b></span></div>
                            ","","learn","6","6","6","learn","6","6","[0, 1, 2, 3, 4, 5, 6, 7, 8, 9]","38","3","setsize","10S10A","furniture","1","0","2","0",""
"null","null","fixation","html-keyboard-response","240","327390","0.0-1.0-7.0-3.0-0.39","17:46:43","5","","","","","","","fixation","","","","","","","","","","","","","","","","","","",""
"1295","6","pic_response","html-keyboard-response","241","328685","0.0-1.0-7.0-3.0-1.39","17:46:43","5","","","","","","","<div>
            <img class='stim' src=""pictures/furniture/1.jpg""></div><div class=""button_prompt"">
                    <b>请用数字键0-9回答</b>
                    </div>","","","","","","","","","","","","","","","","","","",""
"1295","null","sub_response","html-keyboard-response","242","329686","0.0-1.0-7.0-3.0-2.39","17:46:43","5","","","","","","","<div style='text-align: center;'>
                            <span style=""color: red; font-size: 40px""><b>错误！+0 pts</b></span></div>
                            ","","learn","1","1","1","learn","1","1","[0, 1, 2, 3, 4, 5, 6, 7, 8, 9]","39","3","setsize","10S10A","furniture","1","0","5","0",""
"null","null","fixation","html-keyboard-response","243","330187","0.0-1.0-7.0-3.0-0.40","17:46:43","5","","","","","","","fixation","","","","","","","","","","","","","","","","","","",""
"678","6","pic_response","html-keyboard-response","244","330866","0.0-1.0-7.0-3.0-1.40","17:46:43","5","","","","","","","<div>
            <img class='stim' src=""pictures/furniture/0.jpg""></div><div class=""button_prompt"">
                    <b>请用数字键0-9回答</b>
                    </div>","","","","","","","","","","","","","","","","","","",""
"678","null","sub_response","html-keyboard-response","245","331867","0.0-1.0-7.0-3.0-2.40","17:46:43","5","","","","","","","<div style='text-align: center;'>
                            <span style=""color: red; font-size: 40px""><b>错误！+0 pts</b></span></div>
                            ","","learn","0","0","0","learn","0","0","[0, 1, 2, 3, 4, 5, 6, 7, 8, 9]","40","4","setsize","10S10A","furniture","1","0","5","0",""
"null","null","fixation","html-keyboard-response","246","332368","0.0-1.0-7.0-3.0-0.41","17:46:43","5","","","","","","","fixation","","","","","","","","","","","","","","","","","","",""
"593","9","pic_response","html-keyboard-response","247","332961","0.0-1.0-7.0-3.0-1.41","17:46:43","5","","","","","","","<div>
            <img class='stim' src=""pictures/furniture/4.jpg""></div><div class=""button_prompt"">
                    <b>请用数字键0-9回答</b>
                    </div>","","","","","","","","","","","","","","","","","","",""
"593","null","sub_response","html-keyboard-response","248","333962","0.0-1.0-7.0-3.0-2.41","17:46:43","5","","","","","","","<div style='text-align: center;'>
                            <span style=""color: red; font-size: 40px""><b>错误！+0 pts</b></span></div>
                            ","","learn","4","4","4","learn","4","4","[0, 1, 2, 3, 4, 5, 6, 7, 8, 9]","41","4","setsize","10S10A","furniture","1","0","8","0",""
"null","null","fixation","html-keyboard-response","249","334464","0.0-1.0-7.0-3.0-0.42","17:46:43","5","","","","","","","fixation","","","","","","","","","","","","","","","","","","",""
"317","4","pic_response","html-keyboard-response","250","334781","0.0-1.0-7.0-3.0-1.42","17:46:43","5","","","","","","","<div>
            <img class='stim' src=""pictures/furniture/7.jpg""></div><div class=""button_prompt"">
                    <b>请用数字键0-9回答</b>
                    </div>","","","","","","","","","","","","","","","","","","",""
"317","null","sub_response","html-keyboard-response","251","335782","0.0-1.0-7.0-3.0-2.42","17:46:43","5","","","","","","","<div style='text-align: center;'>
                            <span style=""color: red; font-size: 40px""><b>错误！+0 pts</b></span></div>
                            ","","learn","7","7","7","learn","7","7","[0, 1, 2, 3, 4, 5, 6, 7, 8, 9]","42","4","setsize","10S10A","furniture","1","0","3","0",""
"null","null","fixation","html-keyboard-response","252","336283","0.0-1.0-7.0-3.0-0.43","17:46:43","5","","","","","","","fixation","","","","","","","","","","","","","","","","","","",""
"237","2","pic_response","html-keyboard-response","253","336521","0.0-1.0-7.0-3.0-1.43","17:46:43","5","","","","","","","<div>
            <img class='stim' src=""pictures/furniture/8.jpg""></div><div class=""button_prompt"">
                    <b>请用数字键0-9回答</b>
                    </div>","","","","","","","","","","","","","","","","","","",""
"237","null","sub_response","html-keyboard-response","254","337522","0.0-1.0-7.0-3.0-2.43","17:46:43","5","","","","","","","<div style='text-align: center;'>
                            <span style=""color: red; font-size: 40px""><b>错误！+0 pts</b></span></div>
                            ","","learn","8","8","8","learn","8","8","[0, 1, 2, 3, 4, 5, 6, 7, 8, 9]","43","4","setsize","10S10A","furniture","1","0","1","0",""
"null","null","fixation","html-keyboard-response","255","338033","0.0-1.0-7.0-3.0-0.44","17:46:43","5","","","","","","","fixation","","","","","","","","","","","","","","","","","","",""
"549","9","pic_response","html-keyboard-response","256","338582","0.0-1.0-7.0-3.0-1.44","17:46:43","5","","","","","","","<div>
            <img class='stim' src=""pictures/furniture/2.jpg""></div><div class=""button_prompt"">
                    <b>请用数字键0-9回答</b>
                    </div>","","","","","","","","","","","","","","","","","","",""
"549","null","sub_response","html-keyboard-response","257","339584","0.0-1.0-7.0-3.0-2.44","17:46:43","5","","","","","","","<div style='text-align: center;'>
                            <span style=""color: red; font-size: 40px""><b>错误！+0 pts</b></span></div>
                            ","","learn","2","2","2","learn","2","2","[0, 1, 2, 3, 4, 5, 6, 7, 8, 9]","44","4","setsize","10S10A","furniture","1","0","8","0",""
"null","null","fixation","html-keyboard-response","258","340090","0.0-1.0-7.0-3.0-0.45","17:46:43","5","","","","","","","fixation","","","","","","","","","","","","","","","","","","",""
"1412","5","pic_response","html-keyboard-response","259","341503","0.0-1.0-7.0-3.0-1.45","17:46:43","5","","","","","","","<div>
            <img class='stim' src=""pictures/furniture/6.jpg""></div><div class=""button_prompt"">
                    <b>请用数字键0-9回答</b>
                    </div>","","","","","","","","","","","","","","","","","","",""
"1412","null","sub_response","html-keyboard-response","260","342504","0.0-1.0-7.0-3.0-2.45","17:46:43","5","","","","","","","<div style='text-align: center;'>
                            <span style=""color: red; font-size: 40px""><b>错误！+0 pts</b></span></div>
                            ","","learn","6","6","6","learn","6","6","[0, 1, 2, 3, 4, 5, 6, 7, 8, 9]","45","4","setsize","10S10A","furniture","1","0","4","0",""
"null","null","fixation","html-keyboard-response","261","343006","0.0-1.0-7.0-3.0-0.46","17:46:43","5","","","","","","","fixation","","","","","","","","","","","","","","","","","","",""
"365","4","pic_response","html-keyboard-response","262","343371","0.0-1.0-7.0-3.0-1.46","17:46:43","5","","","","","","","<div>
            <img class='stim' src=""pictures/furniture/3.jpg""></div><div class=""button_prompt"">
                    <b>请用数字键0-9回答</b>
                    </div>","","","","","","","","","","","","","","","","","","",""
"365","null","sub_response","html-keyboard-response","263","344373","0.0-1.0-7.0-3.0-2.46","17:46:43","5","","","","","","","<div style='text-align: center;'>
                            <span style=""color: green; font-size: 40px""><b>正确！+1 pts</b></span></div>
                            ","","learn","3","3","3","learn","3","3","[0, 1, 2, 3, 4, 5, 6, 7, 8, 9]","46","4","setsize","10S10A","furniture","1","1","3","1",""
"null","null","fixation","html-keyboard-response","264","344875","0.0-1.0-7.0-3.0-0.47","17:46:43","5","","","","","","","fixation","","","","","","","","","","","","","","","","","","",""
"1435","5","pic_response","html-keyboard-response","265","346311","0.0-1.0-7.0-3.0-1.47","17:46:43","5","","","","","","","<div>
            <img class='stim' src=""pictures/furniture/1.jpg""></div><div class=""button_prompt"">
                    <b>请用数字键0-9回答</b>
                    </div>","","","","","","","","","","","","","","","","","","",""
"1435","null","sub_response","html-keyboard-response","266","347312","0.0-1.0-7.0-3.0-2.47","17:46:43","5","","","","","","","<div style='text-align: center;'>
                            <span style=""color: red; font-size: 40px""><b>错误！+0 pts</b></span></div>
                            ","","learn","1","1","1","learn","1","1","[0, 1, 2, 3, 4, 5, 6, 7, 8, 9]","47","4","setsize","10S10A","furniture","1","0","4","0",""
"null","null","fixation","html-keyboard-response","267","347814","0.0-1.0-7.0-3.0-0.48","17:46:43","5","","","","","","","fixation","","","","","","","","","","","","","","","","","","",""
"978","6","pic_response","html-keyboard-response","268","348792","0.0-1.0-7.0-3.0-1.48","17:46:43","5","","","","","","","<div>
            <img class='stim' src=""pictures/furniture/5.jpg""></div><div class=""button_prompt"">
                    <b>请用数字键0-9回答</b>
                    </div>","","","","","","","","","","","","","","","","","","",""
"978","null","sub_response","html-keyboard-response","269","349794","0.0-1.0-7.0-3.0-2.48","17:46:43","5","","","","","","","<div style='text-align: center;'>
                            <span style=""color: green; font-size: 40px""><b>正确！+1 pts</b></span></div>
                            ","","learn","5","5","5","learn","5","5","[0, 1, 2, 3, 4, 5, 6, 7, 8, 9]","48","4","setsize","10S10A","furniture","1","1","5","1",""
"null","null","fixation","html-keyboard-response","270","350294","0.0-1.0-7.0-3.0-0.49","17:46:43","5","","","","","","","fixation","","","","","","","","","","","","","","","","","","",""
"1155","8","pic_response","html-keyboard-response","271","351450","0.0-1.0-7.0-3.0-1.49","17:46:43","5","","","","","","","<div>
            <img class='stim' src=""pictures/furniture/9.jpg""></div><div class=""button_prompt"">
                    <b>请用数字键0-9回答</b>
                    </div>","","","","","","","","","","","","","","","","","","",""
"1155","null","sub_response","html-keyboard-response","272","352450","0.0-1.0-7.0-3.0-2.49","17:46:43","5","","","","","","","<div style='text-align: center;'>
                            <span style=""color: red; font-size: 40px""><b>错误！+0 pts</b></span></div>
                            ","","learn","9","9","9","learn","9","9","[0, 1, 2, 3, 4, 5, 6, 7, 8, 9]","49","4","setsize","10S10A","furniture","1","0","7","0",""
"null","null","fixation","html-keyboard-response","273","352952","0.0-1.0-7.0-3.0-0.50","17:46:43","5","","","","","","","fixation","","","","","","","","","","","","","","","","","","",""
"1131","9","pic_response","html-keyboard-response","274","354083","0.0-1.0-7.0-3.0-1.50","17:46:43","5","","","","","","","<div>
            <img class='stim' src=""pictures/furniture/2.jpg""></div><div class=""button_prompt"">
                    <b>请用数字键0-9回答</b>
                    </div>","","","","","","","","","","","","","","","","","","",""
"1131","null","sub_response","html-keyboard-response","275","355084","0.0-1.0-7.0-3.0-2.50","17:46:43","5","","","","","","","<div style='text-align: center;'>
                            <span style=""color: red; font-size: 40px""><b>错误！+0 pts</b></span></div>
                            ","","learn","2","2","2","learn","2","2","[0, 1, 2, 3, 4, 5, 6, 7, 8, 9]","50","5","setsize","10S10A","furniture","1","0","8","0",""
"null","null","fixation","html-keyboard-response","276","355585","0.0-1.0-7.0-3.0-0.51","17:46:43","5","","","","","","","fixation","","","","","","","","","","","","","","","","","","",""
"881","6","pic_response","html-keyboard-response","277","356466","0.0-1.0-7.0-3.0-1.51","17:46:43","5","","","","","","","<div>
            <img class='stim' src=""pictures/furniture/6.jpg""></div><div class=""button_prompt"">
                    <b>请用数字键0-9回答</b>
                    </div>","","","","","","","","","","","","","","","","","","",""
"881","null","sub_response","html-keyboard-response","278","357467","0.0-1.0-7.0-3.0-2.51","17:46:43","5","","","","","","","<div style='text-align: center;'>
                            <span style=""color: red; font-size: 40px""><b>错误！+0 pts</b></span></div>
                            ","","learn","6","6","6","learn","6","6","[0, 1, 2, 3, 4, 5, 6, 7, 8, 9]","51","5","setsize","10S10A","furniture","1","0","5","0",""
"null","null","fixation","html-keyboard-response","279","357968","0.0-1.0-7.0-3.0-0.52","17:46:43","5","","","","","","","fixation","","","","","","","","","","","","","","","","","","",""
"736","6","pic_response","html-keyboard-response","280","358704","0.0-1.0-7.0-3.0-1.52","17:46:43","5","","","","","","","<div>
            <img class='stim' src=""pictures/furniture/3.jpg""></div><div class=""button_prompt"">
                    <b>请用数字键0-9回答</b>
                    </div>","","","","","","","","","","","","","","","","","","",""
"736","null","sub_response","html-keyboard-response","281","359705","0.0-1.0-7.0-3.0-2.52","17:46:43","5","","","","","","","<div style='text-align: center;'>
                            <span style=""color: red; font-size: 40px""><b>错误！+0 pts</b></span></div>
                            ","","learn","3","3","3","learn","3","3","[0, 1, 2, 3, 4, 5, 6, 7, 8, 9]","52","5","setsize","10S10A","furniture","1","0","5","0",""
"null","null","fixation","html-keyboard-response","282","360206","0.0-1.0-7.0-3.0-0.53","17:46:43","5","","","","","","","fixation","","","","","","","","","","","","","","","","","","",""
"637","4","pic_response","html-keyboard-response","283","360844","0.0-1.0-7.0-3.0-1.53","17:46:43","5","","","","","","","<div>
            <img class='stim' src=""pictures/furniture/7.jpg""></div><div class=""button_prompt"">
                    <b>请用数字键0-9回答</b>
                    </div>","","","","","","","","","","","","","","","","","","",""
"637","null","sub_response","html-keyboard-response","284","361846","0.0-1.0-7.0-3.0-2.53","17:46:43","5","","","","","","","<div style='text-align: center;'>
                            <span style=""color: red; font-size: 40px""><b>错误！+0 pts</b></span></div>
                            ","","learn","7","7","7","learn","7","7","[0, 1, 2, 3, 4, 5, 6, 7, 8, 9]","53","5","setsize","10S10A","furniture","1","0","3","0",""
"null","null","fixation","html-keyboard-response","285","362349","0.0-1.0-7.0-3.0-0.54","17:46:43","5","","","","","","","fixation","","","","","","","","","","","","","","","","","","",""
"979","6","pic_response","html-keyboard-response","286","363328","0.0-1.0-7.0-3.0-1.54","17:46:43","5","","","","","","","<div>
            <img class='stim' src=""pictures/furniture/5.jpg""></div><div class=""button_prompt"">
                    <b>请用数字键0-9回答</b>
                    </div>","","","","","","","","","","","","","","","","","","",""
"979","null","sub_response","html-keyboard-response","287","364329","0.0-1.0-7.0-3.0-2.54","17:46:43","5","","","","","","","<div style='text-align: center;'>
                            <span style=""color: green; font-size: 40px""><b>正确！+1 pts</b></span></div>
                            ","","learn","5","5","5","learn","5","5","[0, 1, 2, 3, 4, 5, 6, 7, 8, 9]","54","5","setsize","10S10A","furniture","1","1","5","1",""
"null","null","fixation","html-keyboard-response","288","364831","0.0-1.0-7.0-3.0-0.55","17:46:43","5","","","","","","","fixation","","","","","","","","","","","","","","","","","","",""
"462","9","pic_response","html-keyboard-response","289","365293","0.0-1.0-7.0-3.0-1.55","17:46:43","5","","","","","","","<div>
            <img class='stim' src=""pictures/furniture/1.jpg""></div><div class=""button_prompt"">
                    <b>请用数字键0-9回答</b>
                    </div>","","","","","","","","","","","","","","","","","","",""
"462","null","sub_response","html-keyboard-response","290","366294","0.0-1.0-7.0-3.0-2.55","17:46:43","5","","","","","","","<div style='text-align: center;'>
                            <span style=""color: red; font-size: 40px""><b>错误！+0 pts</b></span></div>
                            ","","learn","1","1","1","learn","1","1","[0, 1, 2, 3, 4, 5, 6, 7, 8, 9]","55","5","setsize","10S10A","furniture","1","0","8","0",""
"null","null","fixation","html-keyboard-response","291","366796","0.0-1.0-7.0-3.0-0.56","17:46:43","5","","","","","","","fixation","","","","","","","","","","","","","","","","","","",""
"688","9","pic_response","html-keyboard-response","292","367484","0.0-1.0-7.0-3.0-1.56","17:46:43","5","","","","","","","<div>
            <img class='stim' src=""pictures/furniture/8.jpg""></div><div class=""button_prompt"">
                    <b>请用数字键0-9回答</b>
                    </div>","","","","","","","","","","","","","","","","","","",""
"688","null","sub_response","html-keyboard-response","293","368486","0.0-1.0-7.0-3.0-2.56","17:46:43","5","","","","","","","<div style='text-align: center;'>
                            <span style=""color: green; font-size: 40px""><b>正确！+1 pts</b></span></div>
                            ","","learn","8","8","8","learn","8","8","[0, 1, 2, 3, 4, 5, 6, 7, 8, 9]","56","5","setsize","10S10A","furniture","1","1","8","1",""
"null","null","fixation","html-keyboard-response","294","368987","0.0-1.0-7.0-3.0-0.57","17:46:43","5","","","","","","","fixation","","","","","","","","","","","","","","","","","","",""
"925","8","pic_response","html-keyboard-response","295","369913","0.0-1.0-7.0-3.0-1.57","17:46:43","5","","","","","","","<div>
            <img class='stim' src=""pictures/furniture/0.jpg""></div><div class=""button_prompt"">
                    <b>请用数字键0-9回答</b>
                    </div>","","","","","","","","","","","","","","","","","","",""
"925","null","sub_response","html-keyboard-response","296","370913","0.0-1.0-7.0-3.0-2.57","17:46:43","5","","","","","","","<div style='text-align: center;'>
                            <span style=""color: red; font-size: 40px""><b>错误！+0 pts</b></span></div>
                            ","","learn","0","0","0","learn","0","0","[0, 1, 2, 3, 4, 5, 6, 7, 8, 9]","57","5","setsize","10S10A","furniture","1","0","7","0",""
"null","null","fixation","html-keyboard-response","297","371415","0.0-1.0-7.0-3.0-0.58","17:46:43","5","","","","","","","fixation","","","","","","","","","","","","","","","","","","",""
"786","9","pic_response","html-keyboard-response","298","372201","0.0-1.0-7.0-3.0-1.58","17:46:43","5","","","","","","","<div>
            <img class='stim' src=""pictures/furniture/9.jpg""></div><div class=""button_prompt"">
                    <b>请用数字键0-9回答</b>
                    </div>","","","","","","","","","","","","","","","","","","",""
"786","null","sub_response","html-keyboard-response","299","373202","0.0-1.0-7.0-3.0-2.58","17:46:43","5","","","","","","","<div style='text-align: center;'>
                            <span style=""color: red; font-size: 40px""><b>错误！+0 pts</b></span></div>
                            ","","learn","9","9","9","learn","9","9","[0, 1, 2, 3, 4, 5, 6, 7, 8, 9]","58","5","setsize","10S10A","furniture","1","0","8","0",""
"null","null","fixation","html-keyboard-response","300","373703","0.0-1.0-7.0-3.0-0.59","17:46:43","5","","","","","","","fixation","","","","","","","","","","","","","","","","","","",""
"770","7","pic_response","html-keyboard-response","301","374473","0.0-1.0-7.0-3.0-1.59","17:46:43","5","","","","","","","<div>
            <img class='stim' src=""pictures/furniture/4.jpg""></div><div class=""button_prompt"">
                    <b>请用数字键0-9回答</b>
                    </div>","","","","","","","","","","","","","","","","","","",""
"770","null","sub_response","html-keyboard-response","302","375474","0.0-1.0-7.0-3.0-2.59","17:46:43","5","","","","","","","<div style='text-align: center;'>
                            <span style=""color: red; font-size: 40px""><b>错误！+0 pts</b></span></div>
                            ","","learn","4","4","4","learn","4","4","[0, 1, 2, 3, 4, 5, 6, 7, 8, 9]","59","5","setsize","10S10A","furniture","1","0","6","0",""
"null","null","fixation","html-keyboard-response","303","375975","0.0-1.0-7.0-3.0-0.60","17:46:43","5","","","","","","","fixation","","","","","","","","","","","","","","","","","","",""
"2018","9","pic_response","html-keyboard-response","304","377994","0.0-1.0-7.0-3.0-1.60","17:46:43","5","","","","","","","<div>
            <img class='stim' src=""pictures/furniture/1.jpg""></div><div class=""button_prompt"">
                    <b>请用数字键0-9回答</b>
                    </div>","","","","","","","","","","","","","","","","","","",""
"2018","null","sub_response","html-keyboard-response","305","378996","0.0-1.0-7.0-3.0-2.60","17:46:43","5","","","","","","","<div style='text-align: center;'>
                            <span style=""color: red; font-size: 40px""><b>错误！+0 pts</b></span></div>
                            ","","learn","1","1","1","learn","1","1","[0, 1, 2, 3, 4, 5, 6, 7, 8, 9]","60","6","setsize","10S10A","furniture","1","0","8","0",""
"null","null","fixation","html-keyboard-response","306","379498","0.0-1.0-7.0-3.0-0.61","17:46:43","5","","","","","","","fixation","","","","","","","","","","","","","","","","","","",""
"1063","9","pic_response","html-keyboard-response","307","380561","0.0-1.0-7.0-3.0-1.61","17:46:43","5","","","","","","","<div>
            <img class='stim' src=""pictures/furniture/5.jpg""></div><div class=""button_prompt"">
                    <b>请用数字键0-9回答</b>
                    </div>","","","","","","","","","","","","","","","","","","",""
"1063","null","sub_response","html-keyboard-response","308","381562","0.0-1.0-7.0-3.0-2.61","17:46:43","5","","","","","","","<div style='text-align: center;'>
                            <span style=""color: red; font-size: 40px""><b>错误！+0 pts</b></span></div>
                            ","","learn","5","5","5","learn","5","5","[0, 1, 2, 3, 4, 5, 6, 7, 8, 9]","61","6","setsize","10S10A","furniture","1","0","8","0",""
"null","null","fixation","html-keyboard-response","309","382063","0.0-1.0-7.0-3.0-0.62","17:46:43","5","","","","","","","fixation","","","","","","","","","","","","","","","","","","",""
"766","9","pic_response","html-keyboard-response","310","382829","0.0-1.0-7.0-3.0-1.62","17:46:43","5","","","","","","","<div>
            <img class='stim' src=""pictures/furniture/8.jpg""></div><div class=""button_prompt"">
                    <b>请用数字键0-9回答</b>
                    </div>","","","","","","","","","","","","","","","","","","",""
"766","null","sub_response","html-keyboard-response","311","383830","0.0-1.0-7.0-3.0-2.62","17:46:43","5","","","","","","","<div style='text-align: center;'>
                            <span style=""color: green; font-size: 40px""><b>正确！+1 pts</b></span></div>
                            ","","learn","8","8","8","learn","8","8","[0, 1, 2, 3, 4, 5, 6, 7, 8, 9]","62","6","setsize","10S10A","furniture","1","1","8","1",""
"null","null","fixation","html-keyboard-response","312","384331","0.0-1.0-7.0-3.0-0.63","17:46:43","5","","","","","","","fixation","","","","","","","","","","","","","","","","","","",""
"1505","6","pic_response","html-keyboard-response","313","385837","0.0-1.0-7.0-3.0-1.63","17:46:43","5","","","","","","","<div>
            <img class='stim' src=""pictures/furniture/3.jpg""></div><div class=""button_prompt"">
                    <b>请用数字键0-9回答</b>
                    </div>","","","","","","","","","","","","","","","","","","",""
"1505","null","sub_response","html-keyboard-response","314","386839","0.0-1.0-7.0-3.0-2.63","17:46:43","5","","","","","","","<div style='text-align: center;'>
                            <span style=""color: red; font-size: 40px""><b>错误！+0 pts</b></span></div>
                            ","","learn","3","3","3","learn","3","3","[0, 1, 2, 3, 4, 5, 6, 7, 8, 9]","63","6","setsize","10S10A","furniture","1","0","5","0",""
"null","null","fixation","html-keyboard-response","315","387340","0.0-1.0-7.0-3.0-0.64","17:46:43","5","","","","","","","fixation","","","","","","","","","","","","","","","","","","",""
"965","6","pic_response","html-keyboard-response","316","388306","0.0-1.0-7.0-3.0-1.64","17:46:43","5","","","","","","","<div>
            <img class='stim' src=""pictures/furniture/0.jpg""></div><div class=""button_prompt"">
                    <b>请用数字键0-9回答</b>
                    </div>","","","","","","","","","","","","","","","","","","",""
"965","null","sub_response","html-keyboard-response","317","389307","0.0-1.0-7.0-3.0-2.64","17:46:43","5","","","","","","","<div style='text-align: center;'>
                            <span style=""color: red; font-size: 40px""><b>错误！+0 pts</b></span></div>
                            ","","learn","0","0","0","learn","0","0","[0, 1, 2, 3, 4, 5, 6, 7, 8, 9]","64","6","setsize","10S10A","furniture","1","0","5","0",""
"null","null","fixation","html-keyboard-response","318","389808","0.0-1.0-7.0-3.0-0.65","17:46:43","5","","","","","","","fixation","","","","","","","","","","","","","","","","","","",""
"1162","8","pic_response","html-keyboard-response","319","390970","0.0-1.0-7.0-3.0-1.65","17:46:43","5","","","","","","","<div>
