"rt","response","screen_id","trial_type","trial_index","time_elapsed","internal_node_id","start_time","n_Prac","success","timeout","failed_images","failed_audio","failed_video","view_history","stimulus","question_order","stage","s","word","word_id","phase","a_cor","a_real","a_ava","trial","tps","task_type","block_typ","pic_typ","block_id","cum_r","a","r","plugin_name"
"50899","{""sub_id"":""52"",""task_type"":""task1"",""name"":""林露"",""gender"":""F""}","basic_info","survey-html-form","0","50904","0.0-0.0","22:59:06","2","","","","","","","","","","","","","","","","","","","","","","","","","",""
"","","","preload","1","52518","0.0-1.0-0.0","22:59:06","2","true","false","[]","[]","[]","","","","","","","","","","","","","","","","","","","","",""
"","","","preload","2","52814","0.0-1.0-1.0","22:59:06","2","true","false","[]","[]","[]","","","","","","","","","","","","","","","","","","","","",""
"","","","fullscreen","3","55813","0.0-1.0-2.0","22:59:06","2","true","","","","","","","","","","","","","","","","","","","","","","","","",""
"66269","","instruct","instructions","4","122084","0.0-1.0-3.0-0.0","22:59:06","2","","","","","","[{""page_index"":0,""viewing_time"":21969},{""page_index"":1,""viewing_time"":26210},{""page_index"":2,""viewing_time"":18089}]","","","","","","","","","","","","","","","","","","","",""
"43476","{""Q0"":"""",""task1"":""<span style='font-size: 24px'>学习图片和数字的对应关系</span>"",""task2"":""<span style='font-size: 24px'> 图片下方标注为可用的数字键（数字键1-3或0-9） </span>"",""task3"":""<span style='font-size: 24px'> 看到图片选出正确对应的数字 </span>""}","question","survey-multi-choice","5","165567","0.0-1.0-3.0-1.0","22:59:06","2","","","","","","","","[0,1,2,3]","","","","","","","","","","","","","","","","","",""
"15626"," ","inst_q","html-keyboard-response","6","181195","0.0-1.0-3.0-2.0","22:59:06","2","","","","","","","inst","","1","","","","","","","","","","","","","","","","",""
"","","","preload","7","181643","0.0-1.0-4.0-0.0","22:59:06","2","true","false","[]","[]","[]","","","","","","","","","","","","","","","","","","","","",""
"8803"," ","","html-keyboard-response","8","190448","0.0-1.0-4.0-1.0","22:59:06","2","","","","","","","<div style='font-size: 32px; text-align: center;'
                    <p>请学习图片和数字之间的对应关系</p>
                    <p>我们将<span style='color: blue'><b> 告诉 </b></span>您选择的对错。请根据反馈学习。</p>
                    <p>请按""空格""继续实验。</p></div>","","","","","","","","","","","","","","","","","","",""
"7024"," ","inst","html-keyboard-response","9","197475","0.0-1.0-4.0-2.0","22:59:06","2","","","","","","","<img class='instruct_stim' src=""instruction/prac3.PNG""></div>","","","","","","","","","","","","","","","","","","",""
"null","null","fixation","html-keyboard-response","10","197981","0.0-1.0-4.0-3.0-0.0","22:59:06","2","","","","","","","fixation","","","","","","","","","","","","","","","","","","",""
"1266","1","pic_response","html-keyboard-response","11","199249","0.0-1.0-4.0-3.0-1.0","22:59:06","2","","","","","","","<div>
            <img class='stim' src=""pictures/prac/0.jpg""></div><div class=""button_prompt"">
                        <b>请用数字键1-3回答</b>
                        </div>","","","","","","","","","","","","","","","","","","",""
"1266","null","sub_response","html-keyboard-response","12","200253","0.0-1.0-4.0-3.0-2.0","22:59:06","2","","","","","","","<div style='text-align: center;'>
                            <span style=""color: green; font-size: 40px""><b>正确！+1 pts</b></span></div>
                            ","","learn","0","0","0","learn","0","0","[0, 1, 2]","0","0","setsize","99","prac","0","1","0","1",""
"null","null","fixation","html-keyboard-response","13","200760","0.0-1.0-4.0-3.0-0.1","22:59:06","2","","","","","","","fixation","","","","","","","","","","","","","","","","","","",""
"752","1","pic_response","html-keyboard-response","14","201513","0.0-1.0-4.0-3.0-1.1","22:59:06","2","","","","","","","<div>
            <img class='stim' src=""pictures/prac/2.jpg""></div><div class=""button_prompt"">
                        <b>请用数字键1-3回答</b>
                        </div>","","","","","","","","","","","","","","","","","","",""
"752","null","sub_response","html-keyboard-response","15","202518","0.0-1.0-4.0-3.0-2.1","22:59:06","2","","","","","","","<div style='text-align: center;'>
                            <span style=""color: red; font-size: 40px""><b>错误！+0 pts</b></span></div>
                            ","","learn","2","2","2","learn","2","2","[0, 1, 2]","1","0","setsize","99","prac","0","0","0","0",""
"null","null","fixation","html-keyboard-response","16","203023","0.0-1.0-4.0-3.0-0.2","22:59:06","2","","","","","","","fixation","","","","","","","","","","","","","","","","","","",""
"715","1","pic_response","html-keyboard-response","17","203739","0.0-1.0-4.0-3.0-1.2","22:59:06","2","","","","","","","<div>
            <img class='stim' src=""pictures/prac/1.jpg""></div><div class=""button_prompt"">
                        <b>请用数字键1-3回答</b>
                        </div>","","","","","","","","","","","","","","","","","","",""
"715","null","sub_response","html-keyboard-response","18","204743","0.0-1.0-4.0-3.0-2.2","22:59:06","2","","","","","","","<div style='text-align: center;'>
                            <span style=""color: green; font-size: 40px""><b>正确！+1 pts</b></span></div>
                            ","","learn","1","1","1","learn","0","0","[0, 1, 2]","2","0","setsize","99","prac","0","1","0","1",""
"null","null","fixation","html-keyboard-response","19","205256","0.0-1.0-4.0-3.0-0.3","22:59:06","2","","","","","","","fixation","","","","","","","","","","","","","","","","","","",""
"630","1","pic_response","html-keyboard-response","20","205888","0.0-1.0-4.0-3.0-1.3","22:59:06","2","","","","","","","<div>
            <img class='stim' src=""pictures/prac/1.jpg""></div><div class=""button_prompt"">
                        <b>请用数字键1-3回答</b>
                        </div>","","","","","","","","","","","","","","","","","","",""
"630","null","sub_response","html-keyboard-response","21","206894","0.0-1.0-4.0-3.0-2.3","22:59:06","2","","","","","","","<div style='text-align: center;'>
                            <span style=""color: green; font-size: 40px""><b>正确！+1 pts</b></span></div>
                            ","","learn","1","1","1","learn","0","0","[0, 1, 2]","3","1","setsize","99","prac","0","2","0","1",""
"null","null","fixation","html-keyboard-response","22","207400","0.0-1.0-4.0-3.0-0.4","22:59:06","2","","","","","","","fixation","","","","","","","","","","","","","","","","","","",""
"685","1","pic_response","html-keyboard-response","23","208086","0.0-1.0-4.0-3.0-1.4","22:59:06","2","","","","","","","<div>
            <img class='stim' src=""pictures/prac/0.jpg""></div><div class=""button_prompt"">
                        <b>请用数字键1-3回答</b>
                        </div>","","","","","","","","","","","","","","","","","","",""
"685","null","sub_response","html-keyboard-response","24","209088","0.0-1.0-4.0-3.0-2.4","22:59:06","2","","","","","","","<div style='text-align: center;'>
                            <span style=""color: green; font-size: 40px""><b>正确！+1 pts</b></span></div>
                            ","","learn","0","0","0","learn","0","0","[0, 1, 2]","4","1","setsize","99","prac","0","3","0","1",""
"null","null","fixation","html-keyboard-response","25","209590","0.0-1.0-4.0-3.0-0.5","22:59:06","2","","","","","","","fixation","","","","","","","","","","","","","","","","","","",""
"917","2","pic_response","html-keyboard-response","26","210508","0.0-1.0-4.0-3.0-1.5","22:59:06","2","","","","","","","<div>
            <img class='stim' src=""pictures/prac/2.jpg""></div><div class=""button_prompt"">
                        <b>请用数字键1-3回答</b>
                        </div>","","","","","","","","","","","","","","","","","","",""
"917","null","sub_response","html-keyboard-response","27","211510","0.0-1.0-4.0-3.0-2.5","22:59:06","2","","","","","","","<div style='text-align: center;'>
                            <span style=""color: red; font-size: 40px""><b>错误！+0 pts</b></span></div>
                            ","","learn","2","2","2","learn","2","2","[0, 1, 2]","5","1","setsize","99","prac","0","0","1","0",""
"","","","preload","28","211514","0.0-1.0-4.1-0.1","22:59:06","2","true","false","[]","[]","[]","","","","","","","","","","","","","","","","","","","","",""
"7991"," ","","html-keyboard-response","29","219506","0.0-1.0-4.1-1.1","22:59:06","2","","","","","","","<div style='font-size: 32px; text-align: center;'
                    <p>请学习图片和数字之间的对应关系</p>
                    <p>我们将<span style='color: blue'><b> 告诉 </b></span>您选择的对错。请根据反馈学习。</p>
                    <p>请按""空格""继续实验。</p></div>","","","","","","","","","","","","","","","","","","",""
"1303"," ","inst","html-keyboard-response","30","220810","0.0-1.0-4.1-2.1","22:59:06","2","","","","","","","<img class='instruct_stim' src=""instruction/prac3.PNG""></div>","","","","","","","","","","","","","","","","","","",""
"null","null","fixation","html-keyboard-response","31","221313","0.0-1.0-4.1-3.1-0.6","22:59:06","2","","","","","","","fixation","","","","","","","","","","","","","","","","","","",""
"1296","1","pic_response","html-keyboard-response","32","222610","0.0-1.0-4.1-3.1-1.6","22:59:06","2","","","","","","","<div>
            <img class='stim' src=""pictures/prac/0.jpg""></div><div class=""button_prompt"">
                        <b>请用数字键1-3回答</b>
                        </div>","","","","","","","","","","","","","","","","","","",""
"1296","null","sub_response","html-keyboard-response","33","223616","0.0-1.0-4.1-3.1-2.6","22:59:06","2","","","","","","","<div style='text-align: center;'>
                            <span style=""color: green; font-size: 40px""><b>正确！+1 pts</b></span></div>
                            ","","learn","0","0","0","learn","0","0","[0, 1, 2]","0","0","setsize","99","prac","0","1","0","1",""
"null","null","fixation","html-keyboard-response","34","224123","0.0-1.0-4.1-3.1-0.7","22:59:06","2","","","","","","","fixation","","","","","","","","","","","","","","","","","","",""
"761","3","pic_response","html-keyboard-response","35","224885","0.0-1.0-4.1-3.1-1.7","22:59:06","2","","","","","","","<div>
            <img class='stim' src=""pictures/prac/2.jpg""></div><div class=""button_prompt"">
                        <b>请用数字键1-3回答</b>
                        </div>","","","","","","","","","","","","","","","","","","",""
"761","null","sub_response","html-keyboard-response","36","225889","0.0-1.0-4.1-3.1-2.7","22:59:06","2","","","","","","","<div style='text-align: center;'>
                            <span style=""color: green; font-size: 40px""><b>正确！+1 pts</b></span></div>
                            ","","learn","2","2","2","learn","2","2","[0, 1, 2]","1","0","setsize","99","prac","0","2","2","1",""
"null","null","fixation","html-keyboard-response","37","226392","0.0-1.0-4.1-3.1-0.8","22:59:06","2","","","","","","","fixation","","","","","","","","","","","","","","","","","","",""
"1712","1","pic_response","html-keyboard-response","38","228105","0.0-1.0-4.1-3.1-1.8","22:59:06","2","","","","","","","<div>
            <img class='stim' src=""pictures/prac/1.jpg""></div><div class=""button_prompt"">
                        <b>请用数字键1-3回答</b>
                        </div>","","","","","","","","","","","","","","","","","","",""
"1712","null","sub_response","html-keyboard-response","39","229110","0.0-1.0-4.1-3.1-2.8","22:59:06","2","","","","","","","<div style='text-align: center;'>
                            <span style=""color: green; font-size: 40px""><b>正确！+1 pts</b></span></div>
                            ","","learn","1","1","1","learn","0","0","[0, 1, 2]","2","0","setsize","99","prac","0","3","0","1",""
"null","null","fixation","html-keyboard-response","40","229613","0.0-1.0-4.1-3.1-0.9","22:59:06","2","","","","","","","fixation","","","","","","","","","","","","","","","","","","",""
"924","1","pic_response","html-keyboard-response","41","230538","0.0-1.0-4.1-3.1-1.9","22:59:06","2","","","","","","","<div>
            <img class='stim' src=""pictures/prac/1.jpg""></div><div class=""button_prompt"">
                        <b>请用数字键1-3回答</b>
                        </div>","","","","","","","","","","","","","","","","","","",""
"924","null","sub_response","html-keyboard-response","42","231543","0.0-1.0-4.1-3.1-2.9","22:59:06","2","","","","","","","<div style='text-align: center;'>
                            <span style=""color: green; font-size: 40px""><b>正确！+1 pts</b></span></div>
                            ","","learn","1","1","1","learn","0","0","[0, 1, 2]","3","1","setsize","99","prac","0","4","0","1",""
"null","null","fixation","html-keyboard-response","43","232049","0.0-1.0-4.1-3.1-0.10","22:59:06","2","","","","","","","fixation","","","","","","","","","","","","","","","","","","",""
"968","1","pic_response","html-keyboard-response","44","233018","0.0-1.0-4.1-3.1-1.10","22:59:06","2","","","","","","","<div>
            <img class='stim' src=""pictures/prac/0.jpg""></div><div class=""button_prompt"">
                        <b>请用数字键1-3回答</b>
                        </div>","","","","","","","","","","","","","","","","","","",""
"968","null","sub_response","html-keyboard-response","45","234028","0.0-1.0-4.1-3.1-2.10","22:59:06","2","","","","","","","<div style='text-align: center;'>
                            <span style=""color: green; font-size: 40px""><b>正确！+1 pts</b></span></div>
                            ","","learn","0","0","0","learn","0","0","[0, 1, 2]","4","1","setsize","99","prac","0","5","0","1",""
"null","null","fixation","html-keyboard-response","46","234531","0.0-1.0-4.1-3.1-0.11","22:59:06","2","","","","","","","fixation","","","","","","","","","","","","","","","","","","",""
"782","3","pic_response","html-keyboard-response","47","235314","0.0-1.0-4.1-3.1-1.11","22:59:06","2","","","","","","","<div>
            <img class='stim' src=""pictures/prac/2.jpg""></div><div class=""button_prompt"">
                        <b>请用数字键1-3回答</b>
                        </div>","","","","","","","","","","","","","","","","","","",""
"782","null","sub_response","html-keyboard-response","48","236324","0.0-1.0-4.1-3.1-2.11","22:59:06","2","","","","","","","<div style='text-align: center;'>
                            <span style=""color: green; font-size: 40px""><b>正确！+1 pts</b></span></div>
                            ","","learn","2","2","2","learn","2","2","[0, 1, 2]","5","1","setsize","99","prac","0","6","2","1",""
"44366"," ","","html-keyboard-response","49","280692","0.0-1.0-5.0","22:59:06","2","","","","","","","<div style=""font-size: 25px""><p>距下一个实验开始还有</p><div style=""font-size: 50px; color: blue""><p><span id=""clock"">1:00</span></div></p><p>按""空格""跳过休息</p></div>","","","","","","","","","","","","","","","","","","",""
"1493"," ","","html-keyboard-response","50","282186","0.0-1.0-6.0","22:59:06","2","","","","","","","<div style='font-size: 32px; text-align: center;'
                    <p>请按""空格""继续正式实验。</p></div>","","","","","","","","","","","","","","","","","","",""
"","","","preload","51","283355","0.0-1.0-7.0-0.0","22:59:06","2","true","false","[]","[]","[]","","","","","","","","","","","","","","","","","","","","",""
"12678"," ","","html-keyboard-response","52","296034","0.0-1.0-7.0-1.0","22:59:06","2","","","","","","","<div style='font-size: 32px; text-align: center;'
                    <p>请学习图片和数字之间的对应关系</p>
                    <p>我们将<span style='color: blue'><b> 告诉 </b></span>您选择的对错。请根据反馈学习。</p>
                    <p>请按""空格""继续实验。</p></div>","","","","","","","","","","","","","","","","","","",""
"2672"," ","inst","html-keyboard-response","53","298707","0.0-1.0-7.0-2.0","22:59:06","2","","","","","","","<img class='instruct_stim' src=""instruction/food3.PNG""></div>","","","","","","","","","","","","","","","","","","",""
"null","null","fixation","html-keyboard-response","54","299219","0.0-1.0-7.0-3.0-0.0","22:59:06","2","","","","","","","fixation","","","","","","","","","","","","","","","","","","",""
"2117","1","pic_response","html-keyboard-response","55","301337","0.0-1.0-7.0-3.0-1.0","22:59:06","2","","","","","","","<div>
            <img class='stim' src=""pictures/food/0.jpg""></div><div class=""button_prompt"">
                        <b>请用数字键1-3回答</b>
                        </div>","","","","","","","","","","","","","","","","","","",""
"2117","null","sub_response","html-keyboard-response","56","302342","0.0-1.0-7.0-3.0-2.0","22:59:06","2","","","","","","","<div style='text-align: center;'>
                            <span style=""color: green; font-size: 40px""><b>正确！+1 pts</b></span></div>
                            ","","learn","0","0","0","learn","0","0","[0, 1, 2]","0","0","setsize","3S3A","food","1","7","0","1",""
"null","null","fixation","html-keyboard-response","57","302846","0.0-1.0-7.0-3.0-0.1","22:59:06","2","","","","","","","fixation","","","","","","","","","","","","","","","","","","",""
"582","1","pic_response","html-keyboard-response","58","303429","0.0-1.0-7.0-3.0-1.1","22:59:06","2","","","","","","","<div>
            <img class='stim' src=""pictures/food/1.jpg""></div><div class=""button_prompt"">
                        <b>请用数字键1-3回答</b>
                        </div>","","","","","","","","","","","","","","","","","","",""
"582","null","sub_response","html-keyboard-response","59","304439","0.0-1.0-7.0-3.0-2.1","22:59:06","2","","","","","","","<div style='text-align: center;'>
                            <span style=""color: green; font-size: 40px""><b>正确！+1 pts</b></span></div>
                            ","","learn","1","1","1","learn","0","0","[0, 1, 2]","1","0","setsize","3S3A","food","1","8","0","1",""
"null","null","fixation","html-keyboard-response","60","304944","0.0-1.0-7.0-3.0-0.2","22:59:06","2","","","","","","","fixation","","","","","","","","","","","","","","","","","","",""
"425","1","pic_response","html-keyboard-response","61","305370","0.0-1.0-7.0-3.0-1.2","22:59:06","2","","","","","","","<div>
            <img class='stim' src=""pictures/food/2.jpg""></div><div class=""button_prompt"">
                        <b>请用数字键1-3回答</b>
                        </div>","","","","","","","","","","","","","","","","","","",""
"425","null","sub_response","html-keyboard-response","62","306380","0.0-1.0-7.0-3.0-2.2","22:59:06","2","","","","","","","<div style='text-align: center;'>
                            <span style=""color: red; font-size: 40px""><b>错误！+0 pts</b></span></div>
                            ","","learn","2","2","2","learn","2","2","[0, 1, 2]","2","0","setsize","3S3A","food","1","0","0","0",""
"null","null","fixation","html-keyboard-response","63","306884","0.0-1.0-7.0-3.0-0.3","22:59:06","2","","","","","","","fixation","","","","","","","","","","","","","","","","","","",""
"629","1","pic_response","html-keyboard-response","64","307514","0.0-1.0-7.0-3.0-1.3","22:59:06","2","","","","","","","<div>
            <img class='stim' src=""pictures/food/0.jpg""></div><div class=""button_prompt"">
                        <b>请用数字键1-3回答</b>
                        </div>","","","","","","","","","","","","","","","","","","",""
"629","null","sub_response","html-keyboard-response","65","308516","0.0-1.0-7.0-3.0-2.3","22:59:06","2","","","","","","","<div style='text-align: center;'>
                            <span style=""color: green; font-size: 40px""><b>正确！+1 pts</b></span></div>
                            ","","learn","0","0","0","learn","0","0","[0, 1, 2]","3","1","setsize","3S3A","food","1","1","0","1",""
"null","null","fixation","html-keyboard-response","66","309021","0.0-1.0-7.0-3.0-0.4","22:59:06","2","","","","","","","fixation","","","","","","","","","","","","","","","","","","",""
"779","1","pic_response","html-keyboard-response","67","309802","0.0-1.0-7.0-3.0-1.4","22:59:06","2","","","","","","","<div>
            <img class='stim' src=""pictures/food/1.jpg""></div><div class=""button_prompt"">
                        <b>请用数字键1-3回答</b>
                        </div>","","","","","","","","","","","","","","","","","","",""
"779","null","sub_response","html-keyboard-response","68","310809","0.0-1.0-7.0-3.0-2.4","22:59:06","2","","","","","","","<div style='text-align: center;'>
                            <span style=""color: green; font-size: 40px""><b>正确！+1 pts</b></span></div>
                            ","","learn","1","1","1","learn","0","0","[0, 1, 2]","4","1","setsize","3S3A","food","1","2","0","1",""
"null","null","fixation","html-keyboard-response","69","311323","0.0-1.0-7.0-3.0-0.5","22:59:06","2","","","","","","","fixation","","","","","","","","","","","","","","","","","","",""
"1189","2","pic_response","html-keyboard-response","70","312514","0.0-1.0-7.0-3.0-1.5","22:59:06","2","","","","","","","<div>
            <img class='stim' src=""pictures/food/2.jpg""></div><div class=""button_prompt"">
                        <b>请用数字键1-3回答</b>
                        </div>","","","","","","","","","","","","","","","","","","",""
"1189","null","sub_response","html-keyboard-response","71","313519","0.0-1.0-7.0-3.0-2.5","22:59:06","2","","","","","","","<div style='text-align: center;'>
                            <span style=""color: red; font-size: 40px""><b>错误！+0 pts</b></span></div>
                            ","","learn","2","2","2","learn","2","2","[0, 1, 2]","5","1","setsize","3S3A","food","1","0","1","0",""
"null","null","fixation","html-keyboard-response","72","314023","0.0-1.0-7.0-3.0-0.6","22:59:06","2","","","","","","","fixation","","","","","","","","","","","","","","","","","","",""
"2033","3","pic_response","html-keyboard-response","73","316057","0.0-1.0-7.0-3.0-1.6","22:59:06","2","","","","","","","<div>
            <img class='stim' src=""pictures/food/2.jpg""></div><div class=""button_prompt"">
                        <b>请用数字键1-3回答</b>
                        </div>","","","","","","","","","","","","","","","","","","",""
"2033","null","sub_response","html-keyboard-response","74","317061","0.0-1.0-7.0-3.0-2.6","22:59:06","2","","","","","","","<div style='text-align: center;'>
                            <span style=""color: green; font-size: 40px""><b>正确！+1 pts</b></span></div>
                            ","","learn","2","2","2","learn","2","2","[0, 1, 2]","6","2","setsize","3S3A","food","1","1","2","1",""
"null","null","fixation","html-keyboard-response","75","317564","0.0-1.0-7.0-3.0-0.7","22:59:06","2","","","","","","","fixation","","","","","","","","","","","","","","","","","","",""
"815","1","pic_response","html-keyboard-response","76","318380","0.0-1.0-7.0-3.0-1.7","22:59:06","2","","","","","","","<div>
            <img class='stim' src=""pictures/food/0.jpg""></div><div class=""button_prompt"">
                        <b>请用数字键1-3回答</b>
                        </div>","","","","","","","","","","","","","","","","","","",""
"815","null","sub_response","html-keyboard-response","77","319381","0.0-1.0-7.0-3.0-2.7","22:59:06","2","","","","","","","<div style='text-align: center;'>
                            <span style=""color: green; font-size: 40px""><b>正确！+1 pts</b></span></div>
                            ","","learn","0","0","0","learn","0","0","[0, 1, 2]","7","2","setsize","3S3A","food","1","2","0","1",""
"null","null","fixation","html-keyboard-response","78","319884","0.0-1.0-7.0-3.0-0.8","22:59:06","2","","","","","","","fixation","","","","","","","","","","","","","","","","","","",""
"725","1","pic_response","html-keyboard-response","79","320611","0.0-1.0-7.0-3.0-1.8","22:59:06","2","","","","","","","<div>
            <img class='stim' src=""pictures/food/1.jpg""></div><div class=""button_prompt"">
                        <b>请用数字键1-3回答</b>
                        </div>","","","","","","","","","","","","","","","","","","",""
"725","null","sub_response","html-keyboard-response","80","321615","0.0-1.0-7.0-3.0-2.8","22:59:06","2","","","","","","","<div style='text-align: center;'>
                            <span style=""color: green; font-size: 40px""><b>正确！+1 pts</b></span></div>
                            ","","learn","1","1","1","learn","0","0","[0, 1, 2]","8","2","setsize","3S3A","food","1","3","0","1",""
"null","null","fixation","html-keyboard-response","81","322127","0.0-1.0-7.0-3.0-0.9","22:59:06","2","","","","","","","fixation","","","","","","","","","","","","","","","","","","",""
"1269","1","pic_response","html-keyboard-response","82","323397","0.0-1.0-7.0-3.0-1.9","22:59:06","2","","","","","","","<div>
            <img class='stim' src=""pictures/food/1.jpg""></div><div class=""button_prompt"">
                        <b>请用数字键1-3回答</b>
                        </div>","","","","","","","","","","","","","","","","","","",""
"1269","null","sub_response","html-keyboard-response","83","324399","0.0-1.0-7.0-3.0-2.9","22:59:06","2","","","","","","","<div style='text-align: center;'>
                            <span style=""color: green; font-size: 40px""><b>正确！+1 pts</b></span></div>
                            ","","learn","1","1","1","learn","0","0","[0, 1, 2]","9","3","setsize","3S3A","food","1","4","0","1",""
"null","null","fixation","html-keyboard-response","84","324903","0.0-1.0-7.0-3.0-0.10","22:59:06","2","","","","","","","fixation","","","","","","","","","","","","","","","","","","",""
"1695","3","pic_response","html-keyboard-response","85","326599","0.0-1.0-7.0-3.0-1.10","22:59:06","2","","","","","","","<div>
            <img class='stim' src=""pictures/food/2.jpg""></div><div class=""button_prompt"">
                        <b>请用数字键1-3回答</b>
                        </div>","","","","","","","","","","","","","","","","","","",""
"1695","null","sub_response","html-keyboard-response","86","327600","0.0-1.0-7.0-3.0-2.10","22:59:06","2","","","","","","","<div style='text-align: center;'>
                            <span style=""color: green; font-size: 40px""><b>正确！+1 pts</b></span></div>
                            ","","learn","2","2","2","learn","2","2","[0, 1, 2]","10","3","setsize","3S3A","food","1","5","2","1",""
"null","null","fixation","html-keyboard-response","87","328114","0.0-1.0-7.0-3.0-0.11","22:59:06","2","","","","","","","fixation","","","","","","","","","","","","","","","","","","",""
"1367","1","pic_response","html-keyboard-response","88","329482","0.0-1.0-7.0-3.0-1.11","22:59:06","2","","","","","","","<div>
            <img class='stim' src=""pictures/food/0.jpg""></div><div class=""button_prompt"">
                        <b>请用数字键1-3回答</b>
                        </div>","","","","","","","","","","","","","","","","","","",""
"1367","null","sub_response","html-keyboard-response","89","330488","0.0-1.0-7.0-3.0-2.11","22:59:06","2","","","","","","","<div style='text-align: center;'>
                            <span style=""color: green; font-size: 40px""><b>正确！+1 pts</b></span></div>
                            ","","learn","0","0","0","learn","0","0","[0, 1, 2]","11","3","setsize","3S3A","food","1","6","0","1",""
"null","null","fixation","html-keyboard-response","90","330991","0.0-1.0-7.0-3.0-0.12","22:59:06","2","","","","","","","fixation","","","","","","","","","","","","","","","","","","",""
"914","1","pic_response","html-keyboard-response","91","331906","0.0-1.0-7.0-3.0-1.12","22:59:06","2","","","","","","","<div>
            <img class='stim' src=""pictures/food/0.jpg""></div><div class=""button_prompt"">
                        <b>请用数字键1-3回答</b>
                        </div>","","","","","","","","","","","","","","","","","","",""
"914","null","sub_response","html-keyboard-response","92","332909","0.0-1.0-7.0-3.0-2.12","22:59:06","2","","","","","","","<div style='text-align: center;'>
                            <span style=""color: green; font-size: 40px""><b>正确！+1 pts</b></span></div>
                            ","","learn","0","0","0","learn","0","0","[0, 1, 2]","12","4","setsize","3S3A","food","1","7","0","1",""
"null","null","fixation","html-keyboard-response","93","333416","0.0-1.0-7.0-3.0-0.13","22:59:06","2","","","","","","","fixation","","","","","","","","","","","","","","","","","","",""
"1168","1","pic_response","html-keyboard-response","94","334586","0.0-1.0-7.0-3.0-1.13","22:59:06","2","","","","","","","<div>
            <img class='stim' src=""pictures/food/1.jpg""></div><div class=""button_prompt"">
                        <b>请用数字键1-3回答</b>
                        </div>","","","","","","","","","","","","","","","","","","",""
"1168","null","sub_response","html-keyboard-response","95","335590","0.0-1.0-7.0-3.0-2.13","22:59:06","2","","","","","","","<div style='text-align: center;'>
                            <span style=""color: green; font-size: 40px""><b>正确！+1 pts</b></span></div>
                            ","","learn","1","1","1","learn","0","0","[0, 1, 2]","13","4","setsize","3S3A","food","1","8","0","1",""
"null","null","fixation","html-keyboard-response","96","336097","0.0-1.0-7.0-3.0-0.14","22:59:06","2","","","","","","","fixation","","","","","","","","","","","","","","","","","","",""
"999","3","pic_response","html-keyboard-response","97","337098","0.0-1.0-7.0-3.0-1.14","22:59:06","2","","","","","","","<div>
            <img class='stim' src=""pictures/food/2.jpg""></div><div class=""button_prompt"">
                        <b>请用数字键1-3回答</b>
                        </div>","","","","","","","","","","","","","","","","","","",""
"999","null","sub_response","html-keyboard-response","98","338102","0.0-1.0-7.0-3.0-2.14","22:59:06","2","","","","","","","<div style='text-align: center;'>
                            <span style=""color: green; font-size: 40px""><b>正确！+1 pts</b></span></div>
                            ","","learn","2","2","2","learn","2","2","[0, 1, 2]","14","4","setsize","3S3A","food","1","9","2","1",""
"null","null","fixation","html-keyboard-response","99","338606","0.0-1.0-7.0-3.0-0.15","22:59:06","2","","","","","","","fixation","","","","","","","","","","","","","","","","","","",""
"1029","1","pic_response","html-keyboard-response","100","339635","0.0-1.0-7.0-3.0-1.15","22:59:06","2","","","","","","","<div>
            <img class='stim' src=""pictures/food/0.jpg""></div><div class=""button_prompt"">
                        <b>请用数字键1-3回答</b>
                        </div>","","","","","","","","","","","","","","","","","","",""
"1029","null","sub_response","html-keyboard-response","101","340639","0.0-1.0-7.0-3.0-2.15","22:59:06","2","","","","","","","<div style='text-align: center;'>
                            <span style=""color: green; font-size: 40px""><b>正确！+1 pts</b></span></div>
                            ","","learn","0","0","0","learn","0","0","[0, 1, 2]","15","5","setsize","3S3A","food","1","10","0","1",""
"null","null","fixation","html-keyboard-response","102","341143","0.0-1.0-7.0-3.0-0.16","22:59:06","2","","","","","","","fixation","","","","","","","","","","","","","","","","","","",""
"745","1","pic_response","html-keyboard-response","103","341889","0.0-1.0-7.0-3.0-1.16","22:59:06","2","","","","","","","<div>
            <img class='stim' src=""pictures/food/1.jpg""></div><div class=""button_prompt"">
                        <b>请用数字键1-3回答</b>
                        </div>","","","","","","","","","","","","","","","","","","",""
"745","null","sub_response","html-keyboard-response","104","342894","0.0-1.0-7.0-3.0-2.16","22:59:06","2","","","","","","","<div style='text-align: center;'>
                            <span style=""color: green; font-size: 40px""><b>正确！+1 pts</b></span></div>
                            ","","learn","1","1","1","learn","0","0","[0, 1, 2]","16","5","setsize","3S3A","food","1","11","0","1",""
"null","null","fixation","html-keyboard-response","105","343396","0.0-1.0-7.0-3.0-0.17","22:59:06","2","","","","","","","fixation","","","","","","","","","","","","","","","","","","",""
"1143","3","pic_response","html-keyboard-response","106","344541","0.0-1.0-7.0-3.0-1.17","22:59:06","2","","","","","","","<div>
            <img class='stim' src=""pictures/food/2.jpg""></div><div class=""button_prompt"">
                        <b>请用数字键1-3回答</b>
                        </div>","","","","","","","","","","","","","","","","","","",""
"1143","null","sub_response","html-keyboard-response","107","345545","0.0-1.0-7.0-3.0-2.17","22:59:06","2","","","","","","","<div style='text-align: center;'>
                            <span style=""color: green; font-size: 40px""><b>正确！+1 pts</b></span></div>
                            ","","learn","2","2","2","learn","2","2","[0, 1, 2]","17","5","setsize","3S3A","food","1","12","2","1",""
"null","null","fixation","html-keyboard-response","108","346050","0.0-1.0-7.0-3.0-0.18","22:59:06","2","","","","","","","fixation","","","","","","","","","","","","","","","","","","",""
"665","1","pic_response","html-keyboard-response","109","346716","0.0-1.0-7.0-3.0-1.18","22:59:06","2","","","","","","","<div>
            <img class='stim' src=""pictures/food/1.jpg""></div><div class=""button_prompt"">
                        <b>请用数字键1-3回答</b>
                        </div>","","","","","","","","","","","","","","","","","","",""
"665","null","sub_response","html-keyboard-response","110","347733","0.0-1.0-7.0-3.0-2.18","22:59:06","2","","","","","","","<div style='text-align: center;'>
                            <span style=""color: green; font-size: 40px""><b>正确！+1 pts</b></span></div>
                            ","","learn","1","1","1","learn","0","0","[0, 1, 2]","18","6","setsize","3S3A","food","1","13","0","1",""
"null","null","fixation","html-keyboard-response","111","348245","0.0-1.0-7.0-3.0-0.19","22:59:06","2","","","","","","","fixation","","","","","","","","","","","","","","","","","","",""
"531","1","pic_response","html-keyboard-response","112","348777","0.0-1.0-7.0-3.0-1.19","22:59:06","2","","","","","","","<div>
            <img class='stim' src=""pictures/food/0.jpg""></div><div class=""button_prompt"">
                        <b>请用数字键1-3回答</b>
                        </div>","","","","","","","","","","","","","","","","","","",""
"531","null","sub_response","html-keyboard-response","113","349782","0.0-1.0-7.0-3.0-2.19","22:59:06","2","","","","","","","<div style='text-align: center;'>
                            <span style=""color: green; font-size: 40px""><b>正确！+1 pts</b></span></div>
                            ","","learn","0","0","0","learn","0","0","[0, 1, 2]","19","6","setsize","3S3A","food","1","14","0","1",""
"null","null","fixation","html-keyboard-response","114","350287","0.0-1.0-7.0-3.0-0.20","22:59:06","2","","","","","","","fixation","","","","","","","","","","","","","","","","","","",""
"761","3","pic_response","html-keyboard-response","115","351049","0.0-1.0-7.0-3.0-1.20","22:59:06","2","","","","","","","<div>
            <img class='stim' src=""pictures/food/2.jpg""></div><div class=""button_prompt"">
                        <b>请用数字键1-3回答</b>
                        </div>","","","","","","","","","","","","","","","","","","",""
"761","null","sub_response","html-keyboard-response","116","352061","0.0-1.0-7.0-3.0-2.20","22:59:06","2","","","","","","","<div style='text-align: center;'>
                            <span style=""color: green; font-size: 40px""><b>正确！+1 pts</b></span></div>
                            ","","learn","2","2","2","learn","2","2","[0, 1, 2]","20","6","setsize","3S3A","food","1","15","2","1",""
"null","null","fixation","html-keyboard-response","117","352564","0.0-1.0-7.0-3.0-0.21","22:59:06","2","","","","","","","fixation","","","","","","","","","","","","","","","","","","",""
"862","3","pic_response","html-keyboard-response","118","353427","0.0-1.0-7.0-3.0-1.21","22:59:06","2","","","","","","","<div>
            <img class='stim' src=""pictures/food/2.jpg""></div><div class=""button_prompt"">
                        <b>请用数字键1-3回答</b>
                        </div>","","","","","","","","","","","","","","","","","","",""
"862","null","sub_response","html-keyboard-response","119","354440","0.0-1.0-7.0-3.0-2.21","22:59:06","2","","","","","","","<div style='text-align: center;'>
                            <span style=""color: green; font-size: 40px""><b>正确！+1 pts</b></span></div>
                            ","","learn","2","2","2","learn","2","2","[0, 1, 2]","21","7","setsize","3S3A","food","1","16","2","1",""
"null","null","fixation","html-keyboard-response","120","354941","0.0-1.0-7.0-3.0-0.22","22:59:06","2","","","","","","","fixation","","","","","","","","","","","","","","","","","","",""
"1112","1","pic_response","html-keyboard-response","121","356054","0.0-1.0-7.0-3.0-1.22","22:59:06","2","","","","","","","<div>
            <img class='stim' src=""pictures/food/1.jpg""></div><div class=""button_prompt"">
                        <b>请用数字键1-3回答</b>
                        </div>","","","","","","","","","","","","","","","","","","",""
"1112","null","sub_response","html-keyboard-response","122","357057","0.0-1.0-7.0-3.0-2.22","22:59:06","2","","","","","","","<div style='text-align: center;'>
                            <span style=""color: green; font-size: 40px""><b>正确！+1 pts</b></span></div>
                            ","","learn","1","1","1","learn","0","0","[0, 1, 2]","22","7","setsize","3S3A","food","1","17","0","1",""
"null","null","fixation","html-keyboard-response","123","357558","0.0-1.0-7.0-3.0-0.23","22:59:06","2","","","","","","","fixation","","","","","","","","","","","","","","","","","","",""
"679","1","pic_response","html-keyboard-response","124","358239","0.0-1.0-7.0-3.0-1.23","22:59:06","2","","","","","","","<div>
            <img class='stim' src=""pictures/food/0.jpg""></div><div class=""button_prompt"">
                        <b>请用数字键1-3回答</b>
                        </div>","","","","","","","","","","","","","","","","","","",""
"679","null","sub_response","html-keyboard-response","125","359244","0.0-1.0-7.0-3.0-2.23","22:59:06","2","","","","","","","<div style='text-align: center;'>
                            <span style=""color: green; font-size: 40px""><b>正确！+1 pts</b></span></div>
                            ","","learn","0","0","0","learn","0","0","[0, 1, 2]","23","7","setsize","3S3A","food","1","18","0","1",""
"null","null","fixation","html-keyboard-response","126","359751","0.0-1.0-7.0-3.0-0.24","22:59:06","2","","","","","","","fixation","","","","","","","","","","","","","","","","","","",""
"1513","3","pic_response","html-keyboard-response","127","361266","0.0-1.0-7.0-3.0-1.24","22:59:06","2","","","","","","","<div>
            <img class='stim' src=""pictures/food/2.jpg""></div><div class=""button_prompt"">
                        <b>请用数字键1-3回答</b>
                        </div>","","","","","","","","","","","","","","","","","","",""
"1513","null","sub_response","html-keyboard-response","128","362270","0.0-1.0-7.0-3.0-2.24","22:59:06","2","","","","","","","<div style='text-align: center;'>
                            <span style=""color: green; font-size: 40px""><b>正确！+1 pts</b></span></div>
                            ","","learn","2","2","2","learn","2","2","[0, 1, 2]","24","8","setsize","3S3A","food","1","19","2","1",""
"null","null","fixation","html-keyboard-response","129","362774","0.0-1.0-7.0-3.0-0.25","22:59:06","2","","","","","","","fixation","","","","","","","","","","","","","","","","","","",""
"1429","1","pic_response","html-keyboard-response","130","364204","0.0-1.0-7.0-3.0-1.25","22:59:06","2","","","","","","","<div>
            <img class='stim' src=""pictures/food/1.jpg""></div><div class=""button_prompt"">
                        <b>请用数字键1-3回答</b>
                        </div>","","","","","","","","","","","","","","","","","","",""
"1429","null","sub_response","html-keyboard-response","131","365210","0.0-1.0-7.0-3.0-2.25","22:59:06","2","","","","","","","<div style='text-align: center;'>
                            <span style=""color: green; font-size: 40px""><b>正确！+1 pts</b></span></div>
                            ","","learn","1","1","1","learn","0","0","[0, 1, 2]","25","8","setsize","3S3A","food","1","20","0","1",""
"null","null","fixation","html-keyboard-response","132","365718","0.0-1.0-7.0-3.0-0.26","22:59:06","2","","","","","","","fixation","","","","","","","","","","","","","","","","","","",""
"597","1","pic_response","html-keyboard-response","133","366316","0.0-1.0-7.0-3.0-1.26","22:59:06","2","","","","","","","<div>
            <img class='stim' src=""pictures/food/0.jpg""></div><div class=""button_prompt"">
                        <b>请用数字键1-3回答</b>
                        </div>","","","","","","","","","","","","","","","","","","",""
"597","null","sub_response","html-keyboard-response","134","367324","0.0-1.0-7.0-3.0-2.26","22:59:06","2","","","","","","","<div style='text-align: center;'>
                            <span style=""color: green; font-size: 40px""><b>正确！+1 pts</b></span></div>
                            ","","learn","0","0","0","learn","0","0","[0, 1, 2]","26","8","setsize","3S3A","food","1","21","0","1",""
"null","null","fixation","html-keyboard-response","135","367828","0.0-1.0-7.0-3.0-0.27","22:59:06","2","","","","","","","fixation","","","","","","","","","","","","","","","","","","",""
"700","1","pic_response","html-keyboard-response","136","368530","0.0-1.0-7.0-3.0-1.27","22:59:06","2","","","","","","","<div>
            <img class='stim' src=""pictures/food/1.jpg""></div><div class=""button_prompt"">
                        <b>请用数字键1-3回答</b>
                        </div>","","","","","","","","","","","","","","","","","","",""
"700","null","sub_response","html-keyboard-response","137","369534","0.0-1.0-7.0-3.0-2.27","22:59:06","2","","","","","","","<div style='text-align: center;'>
                            <span style=""color: green; font-size: 40px""><b>正确！+1 pts</b></span></div>
                            ","","learn","1","1","1","learn","0","0","[0, 1, 2]","27","9","setsize","3S3A","food","1","22","0","1",""
"null","null","fixation","html-keyboard-response","138","370044","0.0-1.0-7.0-3.0-0.28","22:59:06","2","","","","","","","fixation","","","","","","","","","","","","","","","","","","",""
"749","1","pic_response","html-keyboard-response","139","370794","0.0-1.0-7.0-3.0-1.28","22:59:06","2","","","","","","","<div>
            <img class='stim' src=""pictures/food/0.jpg""></div><div class=""button_prompt"">
                        <b>请用数字键1-3回答</b>
                        </div>","","","","","","","","","","","","","","","","","","",""
"749","null","sub_response","html-keyboard-response","140","371801","0.0-1.0-7.0-3.0-2.28","22:59:06","2","","","","","","","<div style='text-align: center;'>
                            <span style=""color: green; font-size: 40px""><b>正确！+1 pts</b></span></div>
                            ","","learn","0","0","0","learn","0","0","[0, 1, 2]","28","9","setsize","3S3A","food","1","23","0","1",""
"null","null","fixation","html-keyboard-response","141","372311","0.0-1.0-7.0-3.0-0.29","22:59:06","2","","","","","","","fixation","","","","","","","","","","","","","","","","","","",""
"2322","3","pic_response","html-keyboard-response","142","374634","0.0-1.0-7.0-3.0-1.29","22:59:06","2","","","","","","","<div>
            <img class='stim' src=""pictures/food/2.jpg""></div><div class=""button_prompt"">
                        <b>请用数字键1-3回答</b>
                        </div>","","","","","","","","","","","","","","","","","","",""
"2322","null","sub_response","html-keyboard-response","143","375636","0.0-1.0-7.0-3.0-2.29","22:59:06","2","","","","","","","<div style='text-align: center;'>
                            <span style=""color: green; font-size: 40px""><b>正确！+1 pts</b></span></div>
                            ","","learn","2","2","2","learn","2","2","[0, 1, 2]","29","9","setsize","3S3A","food","1","24","2","1",""
"null","null","fixation","html-keyboard-response","144","376139","0.0-1.0-7.0-3.0-0.30","22:59:06","2","","","","","","","fixation","","","","","","","","","","","","","","","","","","",""
"2112","1","pic_response","html-keyboard-response","145","378252","0.0-1.0-7.0-3.0-1.30","22:59:06","2","","","","","","","<div>
            <img class='stim' src=""pictures/food/0.jpg""></div><div class=""button_prompt"">
                        <b>请用数字键1-3回答</b>
                        </div>","","","","","","","","","","","","","","","","","","",""
"2112","null","sub_response","html-keyboard-response","146","379265","0.0-1.0-7.0-3.0-2.30","22:59:06","2","","","","","","","<div style='text-align: center;'>
                            <span style=""color: green; font-size: 40px""><b>正确！+1 pts</b></span></div>
                            ","","learn","0","0","0","learn","0","0","[0, 1, 2]","30","10","setsize","3S3A","food","1","25","0","1",""
"null","null","fixation","html-keyboard-response","147","379769","0.0-1.0-7.0-3.0-0.31","22:59:06","2","","","","","","","fixation","","","","","","","","","","","","","","","","","","",""
"1253","3","pic_response","html-keyboard-response","148","381022","0.0-1.0-7.0-3.0-1.31","22:59:06","2","","","","","","","<div>
            <img class='stim' src=""pictures/food/2.jpg""></div><div class=""button_prompt"">
                        <b>请用数字键1-3回答</b>
                        </div>","","","","","","","","","","","","","","","","","","",""
"1253","null","sub_response","html-keyboard-response","149","382029","0.0-1.0-7.0-3.0-2.31","22:59:06","2","","","","","","","<div style='text-align: center;'>
                            <span style=""color: green; font-size: 40px""><b>正确！+1 pts</b></span></div>
                            ","","learn","2","2","2","learn","2","2","[0, 1, 2]","31","10","setsize","3S3A","food","1","26","2","1",""
"null","null","fixation","html-keyboard-response","150","382533","0.0-1.0-7.0-3.0-0.32","22:59:06","2","","","","","","","fixation","","","","","","","","","","","","","","","","","","",""
"1192","1","pic_response","html-keyboard-response","151","383726","0.0-1.0-7.0-3.0-1.32","22:59:06","2","","","","","","","<div>
            <img class='stim' src=""pictures/food/1.jpg""></div><div class=""button_prompt"">
                        <b>请用数字键1-3回答</b>
                        </div>","","","","","","","","","","","","","","","","","","",""
"1192","null","sub_response","html-keyboard-response","152","384731","0.0-1.0-7.0-3.0-2.32","22:59:06","2","","","","","","","<div style='text-align: center;'>
                            <span style=""color: green; font-size: 40px""><b>正确！+1 pts</b></span></div>
                            ","","learn","1","1","1","learn","0","0","[0, 1, 2]","32","10","setsize","3S3A","food","1","27","0","1",""
"null","null","fixation","html-keyboard-response","153","385236","0.0-1.0-7.0-3.0-0.33","22:59:06","2","","","","","","","fixation","","","","","","","","","","","","","","","","","","",""
"749","1","pic_response","html-keyboard-response","154","385986","0.0-1.0-7.0-3.0-1.33","22:59:06","2","","","","","","","<div>
            <img class='stim' src=""pictures/food/0.jpg""></div><div class=""button_prompt"">
                        <b>请用数字键1-3回答</b>
                        </div>","","","","","","","","","","","","","","","","","","",""
"749","null","sub_response","html-keyboard-response","155","386995","0.0-1.0-7.0-3.0-2.33","22:59:06","2","","","","","","","<div style='text-align: center;'>
                            <span style=""color: green; font-size: 40px""><b>正确！+1 pts</b></span></div>
                            ","","learn","0","0","0","learn","0","0","[0, 1, 2]","33","11","setsize","3S3A","food","1","28","0","1",""
"null","null","fixation","html-keyboard-response","156","387501","0.0-1.0-7.0-3.0-0.34","22:59:06","2","","","","","","","fixation","","","","","","","","","","","","","","","","","","",""
"1140","1","pic_response","html-keyboard-response","157","388642","0.0-1.0-7.0-3.0-1.34","22:59:06","2","","","","","","","<div>
            <img class='stim' src=""pictures/food/1.jpg""></div><div class=""button_prompt"">
                        <b>请用数字键1-3回答</b>
                        </div>","","","","","","","","","","","","","","","","","","",""
"1140","null","sub_response","html-keyboard-response","158","389645","0.0-1.0-7.0-3.0-2.34","22:59:06","2","","","","","","","<div style='text-align: center;'>
                            <span style=""color: green; font-size: 40px""><b>正确！+1 pts</b></span></div>
                            ","","learn","1","1","1","learn","0","0","[0, 1, 2]","34","11","setsize","3S3A","food","1","29","0","1",""
"null","null","fixation","html-keyboard-response","159","390153","0.0-1.0-7.0-3.0-0.35","22:59:06","2","","","","","","","fixation","","","","","","","","","","","","","","","","","","",""
"1047","3","pic_response","html-keyboard-response","160","391202","0.0-1.0-7.0-3.0-1.35","22:59:06","2","","","","","","","<div>
            <img class='stim' src=""pictures/food/2.jpg""></div><div class=""button_prompt"">
                        <b>请用数字键1-3回答</b>
                        </div>","","","","","","","","","","","","","","","","","","",""
"1047","null","sub_response","html-keyboard-response","161","392206","0.0-1.0-7.0-3.0-2.35","22:59:06","2","","","","","","","<div style='text-align: center;'>
                            <span style=""color: green; font-size: 40px""><b>正确！+1 pts</b></span></div>
                            ","","learn","2","2","2","learn","2","2","[0, 1, 2]","35","11","setsize","3S3A","food","1","30","2","1",""
"null","null","fixation","html-keyboard-response","162","392709","0.0-1.0-7.0-3.0-0.36","22:59:06","2","","","","","","","fixation","","","","","","","","","","","","","","","","","","",""
"596","1","pic_response","html-keyboard-response","163","393305","0.0-1.0-7.0-3.0-1.36","22:59:06","2","","","","","","","<div>
            <img class='stim' src=""pictures/food/0.jpg""></div><div class=""button_prompt"">
                        <b>请用数字键1-3回答</b>
                        </div>","","","","","","","","","","","","","","","","","","",""
"596","null","sub_response","html-keyboard-response","164","394319","0.0-1.0-7.0-3.0-2.36","22:59:06","2","","","","","","","<div style='text-align: center;'>
                            <span style=""color: green; font-size: 40px""><b>正确！+1 pts</b></span></div>
                            ","","learn","0","0","0","learn","0","0","[0, 1, 2]","36","12","setsize","3S3A","food","1","31","0","1",""
"null","null","fixation","html-keyboard-response","165","394827","0.0-1.0-7.0-3.0-0.37","22:59:06","2","","","","","","","fixation","","","","","","","","","","","","","","","","","","",""
"553","1","pic_response","html-keyboard-response","166","395381","0.0-1.0-7.0-3.0-1.37","22:59:06","2","","","","","","","<div>
            <img class='stim' src=""pictures/food/1.jpg""></div><div class=""button_prompt"">
                        <b>请用数字键1-3回答</b>
                        </div>","","","","","","","","","","","","","","","","","","",""
"553","null","sub_response","html-keyboard-response","167","396388","0.0-1.0-7.0-3.0-2.37","22:59:06","2","","","","","","","<div style='text-align: center;'>
                            <span style=""color: green; font-size: 40px""><b>正确！+1 pts</b></span></div>
                            ","","learn","1","1","1","learn","0","0","[0, 1, 2]","37","12","setsize","3S3A","food","1","32","0","1",""
"null","null","fixation","html-keyboard-response","168","396893","0.0-1.0-7.0-3.0-0.38","22:59:06","2","","","","","","","fixation","","","","","","","","","","","","","","","","","","",""
"691","3","pic_response","html-keyboard-response","169","397586","0.0-1.0-7.0-3.0-1.38","22:59:06","2","","","","","","","<div>
            <img class='stim' src=""pictures/food/2.jpg""></div><div class=""button_prompt"">
                        <b>请用数字键1-3回答</b>
                        </div>","","","","","","","","","","","","","","","","","","",""
"691","null","sub_response","html-keyboard-response","170","398600","0.0-1.0-7.0-3.0-2.38","22:59:06","2","","","","","","","<div style='text-align: center;'>
                            <span style=""color: green; font-size: 40px""><b>正确！+1 pts</b></span></div>
                            ","","learn","2","2","2","learn","2","2","[0, 1, 2]","38","12","setsize","3S3A","food","1","33","2","1",""
"null","null","fixation","html-keyboard-response","171","399107","0.0-1.0-7.0-3.0-0.39","22:59:06","2","","","","","","","fixation","","","","","","","","","","","","","","","","","","",""
"845","3","pic_response","html-keyboard-response","172","399953","0.0-1.0-7.0-3.0-1.39","22:59:06","2","","","","","","","<div>
            <img class='stim' src=""pictures/food/2.jpg""></div><div class=""button_prompt"">
                        <b>请用数字键1-3回答</b>
                        </div>","","","","","","","","","","","","","","","","","","",""
"845","null","sub_response","html-keyboard-response","173","400956","0.0-1.0-7.0-3.0-2.39","22:59:06","2","","","","","","","<div style='text-align: center;'>
                            <span style=""color: green; font-size: 40px""><b>正确！+1 pts</b></span></div>
                            ","","learn","2","2","2","learn","2","2","[0, 1, 2]","39","13","setsize","3S3A","food","1","34","2","1",""
"null","null","fixation","html-keyboard-response","174","401460","0.0-1.0-7.0-3.0-0.40","22:59:06","2","","","","","","","fixation","","","","","","","","","","","","","","","","","","",""
"953","1","pic_response","html-keyboard-response","175","402414","0.0-1.0-7.0-3.0-1.40","22:59:06","2","","","","","","","<div>
            <img class='stim' src=""pictures/food/1.jpg""></div><div class=""button_prompt"">
                        <b>请用数字键1-3回答</b>
                        </div>","","","","","","","","","","","","","","","","","","",""
"953","null","sub_response","html-keyboard-response","176","403417","0.0-1.0-7.0-3.0-2.40","22:59:06","2","","","","","","","<div style='text-align: center;'>
                            <span style=""color: green; font-size: 40px""><b>正确！+1 pts</b></span></div>
                            ","","learn","1","1","1","learn","0","0","[0, 1, 2]","40","13","setsize","3S3A","food","1","35","0","1",""
"null","null","fixation","html-keyboard-response","177","403927","0.0-1.0-7.0-3.0-0.41","22:59:06","2","","","","","","","fixation","","","","","","","","","","","","","","","","","","",""
"582","1","pic_response","html-keyboard-response","178","404510","0.0-1.0-7.0-3.0-1.41","22:59:06","2","","","","","","","<div>
            <img class='stim' src=""pictures/food/0.jpg""></div><div class=""button_prompt"">
                        <b>请用数字键1-3回答</b>
                        </div>","","","","","","","","","","","","","","","","","","",""
"582","null","sub_response","html-keyboard-response","179","405518","0.0-1.0-7.0-3.0-2.41","22:59:06","2","","","","","","","<div style='text-align: center;'>
                            <span style=""color: green; font-size: 40px""><b>正确！+1 pts</b></span></div>
                            ","","learn","0","0","0","learn","0","0","[0, 1, 2]","41","13","setsize","3S3A","food","1","36","0","1",""
"null","null","fixation","html-keyboard-response","180","406022","0.0-1.0-7.0-3.0-0.42","22:59:06","2","","","","","","","fixation","","","","","","","","","","","","","","","","","","",""
"539","1","pic_response","html-keyboard-response","181","406561","0.0-1.0-7.0-3.0-1.42","22:59:06","2","","","","","","","<div>
            <img class='stim' src=""pictures/food/1.jpg""></div><div class=""button_prompt"">
                        <b>请用数字键1-3回答</b>
                        </div>","","","","","","","","","","","","","","","","","","",""
"539","null","sub_response","html-keyboard-response","182","407569","0.0-1.0-7.0-3.0-2.42","22:59:06","2","","","","","","","<div style='text-align: center;'>
                            <span style=""color: green; font-size: 40px""><b>正确！+1 pts</b></span></div>
                            ","","learn","1","1","1","learn","0","0","[0, 1, 2]","42","14","setsize","3S3A","food","1","37","0","1",""
"null","null","fixation","html-keyboard-response","183","408071","0.0-1.0-7.0-3.0-0.43","22:59:06","2","","","","","","","fixation","","","","","","","","","","","","","","","","","","",""
"770","1","pic_response","html-keyboard-response","184","408842","0.0-1.0-7.0-3.0-1.43","22:59:06","2","","","","","","","<div>
            <img class='stim' src=""pictures/food/0.jpg""></div><div class=""button_prompt"">
                        <b>请用数字键1-3回答</b>
                        </div>","","","","","","","","","","","","","","","","","","",""
"770","null","sub_response","html-keyboard-response","185","409847","0.0-1.0-7.0-3.0-2.43","22:59:06","2","","","","","","","<div style='text-align: center;'>
                            <span style=""color: green; font-size: 40px""><b>正确！+1 pts</b></span></div>
                            ","","learn","0","0","0","learn","0","0","[0, 1, 2]","43","14","setsize","3S3A","food","1","38","0","1",""
"null","null","fixation","html-keyboard-response","186","410351","0.0-1.0-7.0-3.0-0.44","22:59:06","2","","","","","","","fixation","","","","","","","","","","","","","","","","","","",""
"953","3","pic_response","html-keyboard-response","187","411306","0.0-1.0-7.0-3.0-1.44","22:59:06","2","","","","","","","<div>
            <img class='stim' src=""pictures/food/2.jpg""></div><div class=""button_prompt"">
                        <b>请用数字键1-3回答</b>
                        </div>","","","","","","","","","","","","","","","","","","",""
"953","null","sub_response","html-keyboard-response","188","412319","0.0-1.0-7.0-3.0-2.44","22:59:06","2","","","","","","","<div style='text-align: center;'>
                            <span style=""color: green; font-size: 40px""><b>正确！+1 pts</b></span></div>
                            ","","learn","2","2","2","learn","2","2","[0, 1, 2]","44","14","setsize","3S3A","food","1","39","2","1",""
"null","null","fixation","html-keyboard-response","189","412823","0.0-1.0-7.0-3.0-0.45","22:59:06","2","","","","","","","fixation","","","","","","","","","","","","","","","","","","",""
"1005","1","pic_response","html-keyboard-response","190","413829","0.0-1.0-7.0-3.0-1.45","22:59:06","2","","","","","","","<div>
            <img class='stim' src=""pictures/food/1.jpg""></div><div class=""button_prompt"">
                        <b>请用数字键1-3回答</b>
                        </div>","","","","","","","","","","","","","","","","","","",""
"1005","null","sub_response","html-keyboard-response","191","414845","0.0-1.0-7.0-3.0-2.45","22:59:06","2","","","","","","","<div style='text-align: center;'>
                            <span style=""color: green; font-size: 40px""><b>正确！+1 pts</b></span></div>
                            ","","learn","1","1","1","learn","0","0","[0, 1, 2]","45","15","setsize","3S3A","food","1","40","0","1",""
"38308"," ","","html-keyboard-response","192","453154","0.0-1.0-8.0","22:59:06","2","","","","","","","<div style=""font-size: 25px""><p>距下一个实验开始还有</p><div style=""font-size: 50px; color: blue""><p><span id=""clock"">1:00</span></div></p><p>按""空格""跳过休息</p></div>","","","","","","","","","","","","","","","","","","",""
"","","","preload","193","453712","0.0-1.0-9.0-0.0","22:59:06","2","true","false","[]","[]","[]","","","","","","","","","","","","","","","","","","","","",""
"945"," ","","html-keyboard-response","194","454658","0.0-1.0-9.0-1.0","22:59:06","2","","","","","","","<div style='font-size: 32px; text-align: center;'
                    <p>请学习图片和数字之间的对应关系</p>
                    <p>我们将<span style='color: blue'><b> 告诉 </b></span>您选择的对错。请根据反馈学习。</p>
                    <p>请按""空格""继续实验。</p></div>","","","","","","","","","","","","","","","","","","",""
"17495"," ","inst","html-keyboard-response","195","472154","0.0-1.0-9.0-2.0","22:59:06","2","","","","","","","<img class='instruct_stim' src=""instruction/furniture10.PNG""></div>","","","","","","","","","","","","","","","","","","",""
"null","null","fixation","html-keyboard-response","196","472657","0.0-1.0-9.0-3.0-0.0","22:59:06","2","","","","","","","fixation","","","","","","","","","","","","","","","","","","",""
"1303","1","pic_response","html-keyboard-response","197","473962","0.0-1.0-9.0-3.0-1.0","22:59:06","2","","","","","","","<div>
            <img class='stim' src=""pictures/furniture/9.jpg""></div><div class=""button_prompt"">
                        <b>请用数字键1-3回答</b>
                        </div>","","","","","","","","","","","","","","","","","","",""
"1303","null","sub_response","html-keyboard-response","198","474967","0.0-1.0-9.0-3.0-2.0","22:59:06","2","","","","","","","<div style='text-align: center;'>
                            <span style=""color: red; font-size: 40px""><b>错误！+0 pts</b></span></div>
                            ","","learn","9","9","9","learn","2","2","[0, 1, 2]","0","0","setsize","10S3A","furniture","2","0","0","0",""
"null","null","fixation","html-keyboard-response","199","475471","0.0-1.0-9.0-3.0-0.1","22:59:06","2","","","","","","","fixation","","","","","","","","","","","","","","","","","","",""
"833","2","pic_response","html-keyboard-response","200","476305","0.0-1.0-9.0-3.0-1.1","22:59:06","2","","","","","","","<div>
            <img class='stim' src=""pictures/furniture/5.jpg""></div><div class=""button_prompt"">
                        <b>请用数字键1-3回答</b>
                        </div>","","","","","","","","","","","","","","","","","","",""
"833","null","sub_response","html-keyboard-response","201","477310","0.0-1.0-9.0-3.0-2.1","22:59:06","2","","","","","","","<div style='text-align: center;'>
                            <span style=""color: green; font-size: 40px""><b>正确！+1 pts</b></span></div>
                            ","","learn","5","5","5","learn","1","1","[0, 1, 2]","1","0","setsize","10S3A","furniture","2","1","1","1",""
"null","null","fixation","html-keyboard-response","202","477823","0.0-1.0-9.0-3.0-0.2","22:59:06","2","","","","","","","fixation","","","","","","","","","","","","","","","","","","",""
"626","1","pic_response","html-keyboard-response","203","478450","0.0-1.0-9.0-3.0-1.2","22:59:06","2","","","","","","","<div>
            <img class='stim' src=""pictures/furniture/1.jpg""></div><div class=""button_prompt"">
                        <b>请用数字键1-3回答</b>
                        </div>","","","","","","","","","","","","","","","","","","",""
"626","null","sub_response","html-keyboard-response","204","479457","0.0-1.0-9.0-3.0-2.2","22:59:06","2","","","","","","","<div style='text-align: center;'>
                            <span style=""color: green; font-size: 40px""><b>正确！+1 pts</b></span></div>
                            ","","learn","1","1","1","learn","0","0","[0, 1, 2]","2","0","setsize","10S3A","furniture","2","2","0","1",""
"null","null","fixation","html-keyboard-response","205","479961","0.0-1.0-9.0-3.0-0.3","22:59:06","2","","","","","","","fixation","","","","","","","","","","","","","","","","","","",""
"760","2","pic_response","html-keyboard-response","206","480722","0.0-1.0-9.0-3.0-1.3","22:59:06","2","","","","","","","<div>
            <img class='stim' src=""pictures/furniture/4.jpg""></div><div class=""button_prompt"">
                        <b>请用数字键1-3回答</b>
                        </div>","","","","","","","","","","","","","","","","","","",""
"760","null","sub_response","html-keyboard-response","207","481724","0.0-1.0-9.0-3.0-2.3","22:59:06","2","","","","","","","<div style='text-align: center;'>
                            <span style=""color: green; font-size: 40px""><b>正确！+1 pts</b></span></div>
                            ","","learn","4","4","4","learn","1","1","[0, 1, 2]","3","0","setsize","10S3A","furniture","2","3","1","1",""
"null","null","fixation","html-keyboard-response","208","482225","0.0-1.0-9.0-3.0-0.4","22:59:06","2","","","","","","","fixation","","","","","","","","","","","","","","","","","","",""
"408","3","pic_response","html-keyboard-response","209","482634","0.0-1.0-9.0-3.0-1.4","22:59:06","2","","","","","","","<div>
            <img class='stim' src=""pictures/furniture/6.jpg""></div><div class=""button_prompt"">
                        <b>请用数字键1-3回答</b>
                        </div>","","","","","","","","","","","","","","","","","","",""
"408","null","sub_response","html-keyboard-response","210","483636","0.0-1.0-9.0-3.0-2.4","22:59:06","2","","","","","","","<div style='text-align: center;'>
                            <span style=""color: green; font-size: 40px""><b>正确！+1 pts</b></span></div>
                            ","","learn","6","6","6","learn","2","2","[0, 1, 2]","4","0","setsize","10S3A","furniture","2","4","2","1",""
"null","null","fixation","html-keyboard-response","211","484146","0.0-1.0-9.0-3.0-0.5","22:59:06","2","","","","","","","fixation","","","","","","","","","","","","","","","","","","",""
"646","3","pic_response","html-keyboard-response","212","484794","0.0-1.0-9.0-3.0-1.5","22:59:06","2","","","","","","","<div>
            <img class='stim' src=""pictures/furniture/8.jpg""></div><div class=""button_prompt"">
                        <b>请用数字键1-3回答</b>
                        </div>","","","","","","","","","","","","","","","","","","",""
"646","null","sub_response","html-keyboard-response","213","485799","0.0-1.0-9.0-3.0-2.5","22:59:06","2","","","","","","","<div style='text-align: center;'>
                            <span style=""color: green; font-size: 40px""><b>正确！+1 pts</b></span></div>
                            ","","learn","8","8","8","learn","2","2","[0, 1, 2]","5","0","setsize","10S3A","furniture","2","5","2","1",""
"null","null","fixation","html-keyboard-response","214","486303","0.0-1.0-9.0-3.0-0.6","22:59:06","2","","","","","","","fixation","","","","","","","","","","","","","","","","","","",""
"305","2","pic_response","html-keyboard-response","215","486609","0.0-1.0-9.0-3.0-1.6","22:59:06","2","","","","","","","<div>
            <img class='stim' src=""pictures/furniture/2.jpg""></div><div class=""button_prompt"">
                        <b>请用数字键1-3回答</b>
                        </div>","","","","","","","","","","","","","","","","","","",""
"305","null","sub_response","html-keyboard-response","216","487612","0.0-1.0-9.0-3.0-2.6","22:59:06","2","","","","","","","<div style='text-align: center;'>
                            <span style=""color: red; font-size: 40px""><b>错误！+0 pts</b></span></div>
                            ","","learn","2","2","2","learn","0","0","[0, 1, 2]","6","0","setsize","10S3A","furniture","2","0","1","0",""
"null","null","fixation","html-keyboard-response","217","488125","0.0-1.0-9.0-3.0-0.7","22:59:06","2","","","","","","","fixation","","","","","","","","","","","","","","","","","","",""
"771","1","pic_response","html-keyboard-response","218","488897","0.0-1.0-9.0-3.0-1.7","22:59:06","2","","","","","","","<div>
            <img class='stim' src=""pictures/furniture/7.jpg""></div><div class=""button_prompt"">
                        <b>请用数字键1-3回答</b>
                        </div>","","","","","","","","","","","","","","","","","","",""
"771","null","sub_response","html-keyboard-response","219","489901","0.0-1.0-9.0-3.0-2.7","22:59:06","2","","","","","","","<div style='text-align: center;'>
                            <span style=""color: red; font-size: 40px""><b>错误！+0 pts</b></span></div>
                            ","","learn","7","7","7","learn","2","2","[0, 1, 2]","7","0","setsize","10S3A","furniture","2","0","0","0",""
"null","null","fixation","html-keyboard-response","220","490403","0.0-1.0-9.0-3.0-0.8","22:59:06","2","","","","","","","fixation","","","","","","","","","","","","","","","","","","",""
"646","1","pic_response","html-keyboard-response","221","491050","0.0-1.0-9.0-3.0-1.8","22:59:06","2","","","","","","","<div>
            <img class='stim' src=""pictures/furniture/0.jpg""></div><div class=""button_prompt"">
                        <b>请用数字键1-3回答</b>
                        </div>","","","","","","","","","","","","","","","","","","",""
"646","null","sub_response","html-keyboard-response","222","492057","0.0-1.0-9.0-3.0-2.8","22:59:06","2","","","","","","","<div style='text-align: center;'>
                            <span style=""color: green; font-size: 40px""><b>正确！+1 pts</b></span></div>
                            ","","learn","0","0","0","learn","0","0","[0, 1, 2]","8","0","setsize","10S3A","furniture","2","1","0","1",""
"null","null","fixation","html-keyboard-response","223","492559","0.0-1.0-9.0-3.0-0.9","22:59:06","2","","","","","","","fixation","","","","","","","","","","","","","","","","","","",""
"884","1","pic_response","html-keyboard-response","224","493444","0.0-1.0-9.0-3.0-1.9","22:59:06","2","","","","","","","<div>
            <img class='stim' src=""pictures/furniture/3.jpg""></div><div class=""button_prompt"">
                        <b>请用数字键1-3回答</b>
                        </div>","","","","","","","","","","","","","","","","","","",""
"884","null","sub_response","html-keyboard-response","225","494449","0.0-1.0-9.0-3.0-2.9","22:59:06","2","","","","","","","<div style='text-align: center;'>
                            <span style=""color: red; font-size: 40px""><b>错误！+0 pts</b></span></div>
                            ","","learn","3","3","3","learn","1","1","[0, 1, 2]","9","0","setsize","10S3A","furniture","2","0","0","0",""
"null","null","fixation","html-keyboard-response","226","494965","0.0-1.0-9.0-3.0-0.10","22:59:06","2","","","","","","","fixation","","","","","","","","","","","","","","","","","","",""
"979","2","pic_response","html-keyboard-response","227","495946","0.0-1.0-9.0-3.0-1.10","22:59:06","2","","","","","","","<div>
            <img class='stim' src=""pictures/furniture/8.jpg""></div><div class=""button_prompt"">
                        <b>请用数字键1-3回答</b>
                        </div>","","","","","","","","","","","","","","","","","","",""
"979","null","sub_response","html-keyboard-response","228","496951","0.0-1.0-9.0-3.0-2.10","22:59:06","2","","","","","","","<div style='text-align: center;'>
                            <span style=""color: red; font-size: 40px""><b>错误！+0 pts</b></span></div>
                            ","","learn","8","8","8","learn","2","2","[0, 1, 2]","10","1","setsize","10S3A","furniture","2","0","1","0",""
"null","null","fixation","html-keyboard-response","229","497452","0.0-1.0-9.0-3.0-0.11","22:59:06","2","","","","","","","fixation","","","","","","","","","","","","","","","","","","",""
"1004","1","pic_response","html-keyboard-response","230","498458","0.0-1.0-9.0-3.0-1.11","22:59:06","2","","","","","","","<div>
            <img class='stim' src=""pictures/furniture/4.jpg""></div><div class=""button_prompt"">
                        <b>请用数字键1-3回答</b>
                        </div>","","","","","","","","","","","","","","","","","","",""
"1004","null","sub_response","html-keyboard-response","231","499463","0.0-1.0-9.0-3.0-2.11","22:59:06","2","","","","","","","<div style='text-align: center;'>
                            <span style=""color: red; font-size: 40px""><b>错误！+0 pts</b></span></div>
                            ","","learn","4","4","4","learn","1","1","[0, 1, 2]","11","1","setsize","10S3A","furniture","2","0","0","0",""
"null","null","fixation","html-keyboard-response","232","499969","0.0-1.0-9.0-3.0-0.12","22:59:06","2","","","","","","","fixation","","","","","","","","","","","","","","","","","","",""
"875","2","pic_response","html-keyboard-response","233","500845","0.0-1.0-9.0-3.0-1.12","22:59:06","2","","","","","","","<div>
            <img class='stim' src=""pictures/furniture/5.jpg""></div><div class=""button_prompt"">
                        <b>请用数字键1-3回答</b>
                        </div>","","","","","","","","","","","","","","","","","","",""
"875","null","sub_response","html-keyboard-response","234","501847","0.0-1.0-9.0-3.0-2.12","22:59:06","2","","","","","","","<div style='text-align: center;'>
                            <span style=""color: green; font-size: 40px""><b>正确！+1 pts</b></span></div>
                            ","","learn","5","5","5","learn","1","1","[0, 1, 2]","12","1","setsize","10S3A","furniture","2","1","1","1",""
"null","null","fixation","html-keyboard-response","235","502354","0.0-1.0-9.0-3.0-0.13","22:59:06","2","","","","","","","fixation","","","","","","","","","","","","","","","","","","",""
"728","1","pic_response","html-keyboard-response","236","503083","0.0-1.0-9.0-3.0-1.13","22:59:06","2","","","","","","","<div>
            <img class='stim' src=""pictures/furniture/0.jpg""></div><div class=""button_prompt"">
                        <b>请用数字键1-3回答</b>
                        </div>","","","","","","","","","","","","","","","","","","",""
"728","null","sub_response","html-keyboard-response","237","504087","0.0-1.0-9.0-3.0-2.13","22:59:06","2","","","","","","","<div style='text-align: center;'>
                            <span style=""color: green; font-size: 40px""><b>正确！+1 pts</b></span></div>
                            ","","learn","0","0","0","learn","0","0","[0, 1, 2]","13","1","setsize","10S3A","furniture","2","2","0","1",""
"null","null","fixation","html-keyboard-response","238","504592","0.0-1.0-9.0-3.0-0.14","22:59:06","2","","","","","","","fixation","","","","","","","","","","","","","","","","","","",""
"1753","3","pic_response","html-keyboard-response","239","506346","0.0-1.0-9.0-3.0-1.14","22:59:06","2","","","","","","","<div>
            <img class='stim' src=""pictures/furniture/7.jpg""></div><div class=""button_prompt"">
                        <b>请用数字键1-3回答</b>
                        </div>","","","","","","","","","","","","","","","","","","",""
"1753","null","sub_response","html-keyboard-response","240","507350","0.0-1.0-9.0-3.0-2.14","22:59:06","2","","","","","","","<div style='text-align: center;'>
                            <span style=""color: green; font-size: 40px""><b>正确！+1 pts</b></span></div>
                            ","","learn","7","7","7","learn","2","2","[0, 1, 2]","14","1","setsize","10S3A","furniture","2","3","2","1",""
"null","null","fixation","html-keyboard-response","241","507853","0.0-1.0-9.0-3.0-0.15","22:59:06","2","","","","","","","fixation","","","","","","","","","","","","","","","","","","",""
"1171","1","pic_response","html-keyboard-response","242","509025","0.0-1.0-9.0-3.0-1.15","22:59:06","2","","","","","","","<div>
            <img class='stim' src=""pictures/furniture/1.jpg""></div><div class=""button_prompt"">
                        <b>请用数字键1-3回答</b>
                        </div>","","","","","","","","","","","","","","","","","","",""
"1171","null","sub_response","html-keyboard-response","243","510031","0.0-1.0-9.0-3.0-2.15","22:59:06","2","","","","","","","<div style='text-align: center;'>
                            <span style=""color: green; font-size: 40px""><b>正确！+1 pts</b></span></div>
                            ","","learn","1","1","1","learn","0","0","[0, 1, 2]","15","1","setsize","10S3A","furniture","2","4","0","1",""
"null","null","fixation","html-keyboard-response","244","510539","0.0-1.0-9.0-3.0-0.16","22:59:06","2","","","","","","","fixation","","","","","","","","","","","","","","","","","","",""
"893","1","pic_response","html-keyboard-response","245","511434","0.0-1.0-9.0-3.0-1.16","22:59:06","2","","","","","","","<div>
            <img class='stim' src=""pictures/furniture/3.jpg""></div><div class=""button_prompt"">
                        <b>请用数字键1-3回答</b>
                        </div>","","","","","","","","","","","","","","","","","","",""
"893","null","sub_response","html-keyboard-response","246","512436","0.0-1.0-9.0-3.0-2.16","22:59:06","2","","","","","","","<div style='text-align: center;'>
                            <span style=""color: red; font-size: 40px""><b>错误！+0 pts</b></span></div>
                            ","","learn","3","3","3","learn","1","1","[0, 1, 2]","16","1","setsize","10S3A","furniture","2","0","0","0",""
"null","null","fixation","html-keyboard-response","247","512939","0.0-1.0-9.0-3.0-0.17","22:59:06","2","","","","","","","fixation","","","","","","","","","","","","","","","","","","",""
"1101","3","pic_response","html-keyboard-response","248","514042","0.0-1.0-9.0-3.0-1.17","22:59:06","2","","","","","","","<div>
            <img class='stim' src=""pictures/furniture/6.jpg""></div><div class=""button_prompt"">
                        <b>请用数字键1-3回答</b>
                        </div>","","","","","","","","","","","","","","","","","","",""
"1101","null","sub_response","html-keyboard-response","249","515047","0.0-1.0-9.0-3.0-2.17","22:59:06","2","","","","","","","<div style='text-align: center;'>
                            <span style=""color: green; font-size: 40px""><b>正确！+1 pts</b></span></div>
                            ","","learn","6","6","6","learn","2","2","[0, 1, 2]","17","1","setsize","10S3A","furniture","2","1","2","1",""
"null","null","fixation","html-keyboard-response","250","515550","0.0-1.0-9.0-3.0-0.18","22:59:06","2","","","","","","","fixation","","","","","","","","","","","","","","","","","","",""
"2331","3","pic_response","html-keyboard-response","251","517883","0.0-1.0-9.0-3.0-1.18","22:59:06","2","","","","","","","<div>
            <img class='stim' src=""pictures/furniture/9.jpg""></div><div class=""button_prompt"">
                        <b>请用数字键1-3回答</b>
                        </div>","","","","","","","","","","","","","","","","","","",""
"2331","null","sub_response","html-keyboard-response","252","518885","0.0-1.0-9.0-3.0-2.18","22:59:06","2","","","","","","","<div style='text-align: center;'>
                            <span style=""color: green; font-size: 40px""><b>正确！+1 pts</b></span></div>
                            ","","learn","9","9","9","learn","2","2","[0, 1, 2]","18","1","setsize","10S3A","furniture","2","2","2","1",""
"null","null","fixation","html-keyboard-response","253","519389","0.0-1.0-9.0-3.0-0.19","22:59:06","2","","","","","","","fixation","","","","","","","","","","","","","","","","","","",""
"2460","2","pic_response","html-keyboard-response","254","521850","0.0-1.0-9.0-3.0-1.19","22:59:06","2","","","","","","","<div>
            <img class='stim' src=""pictures/furniture/2.jpg""></div><div class=""button_prompt"">
                        <b>请用数字键1-3回答</b>
                        </div>","","","","","","","","","","","","","","","","","","",""
"2460","null","sub_response","html-keyboard-response","255","522853","0.0-1.0-9.0-3.0-2.19","22:59:06","2","","","","","","","<div style='text-align: center;'>
                            <span style=""color: red; font-size: 40px""><b>错误！+0 pts</b></span></div>
                            ","","learn","2","2","2","learn","0","0","[0, 1, 2]","19","1","setsize","10S3A","furniture","2","0","1","0",""
"null","null","fixation","html-keyboard-response","256","523358","0.0-1.0-9.0-3.0-0.20","22:59:06","2","","","","","","","fixation","","","","","","","","","","","","","","","","","","",""
"1266","2","pic_response","html-keyboard-response","257","524625","0.0-1.0-9.0-3.0-1.20","22:59:06","2","","","","","","","<div>
            <img class='stim' src=""pictures/furniture/4.jpg""></div><div class=""button_prompt"">
                        <b>请用数字键1-3回答</b>
                        </div>","","","","","","","","","","","","","","","","","","",""
"1266","null","sub_response","html-keyboard-response","258","525635","0.0-1.0-9.0-3.0-2.20","22:59:06","2","","","","","","","<div style='text-align: center;'>
                            <span style=""color: green; font-size: 40px""><b>正确！+1 pts</b></span></div>
                            ","","learn","4","4","4","learn","1","1","[0, 1, 2]","20","2","setsize","10S3A","furniture","2","1","1","1",""
"null","null","fixation","html-keyboard-response","259","526138","0.0-1.0-9.0-3.0-0.21","22:59:06","2","","","","","","","fixation","","","","","","","","","","","","","","","","","","",""
"1257","1","pic_response","html-keyboard-response","260","527396","0.0-1.0-9.0-3.0-1.21","22:59:06","2","","","","","","","<div>
            <img class='stim' src=""pictures/furniture/0.jpg""></div><div class=""button_prompt"">
                        <b>请用数字键1-3回答</b>
                        </div>","","","","","","","","","","","","","","","","","","",""
"1257","null","sub_response","html-keyboard-response","261","528401","0.0-1.0-9.0-3.0-2.21","22:59:06","2","","","","","","","<div style='text-align: center;'>
                            <span style=""color: green; font-size: 40px""><b>正确！+1 pts</b></span></div>
                            ","","learn","0","0","0","learn","0","0","[0, 1, 2]","21","2","setsize","10S3A","furniture","2","2","0","1",""
"null","null","fixation","html-keyboard-response","262","528906","0.0-1.0-9.0-3.0-0.22","22:59:06","2","","","","","","","fixation","","","","","","","","","","","","","","","","","","",""
"611","3","pic_response","html-keyboard-response","263","529518","0.0-1.0-9.0-3.0-1.22","22:59:06","2","","","","","","","<div>
            <img class='stim' src=""pictures/furniture/9.jpg""></div><div class=""button_prompt"">
                        <b>请用数字键1-3回答</b>
                        </div>","","","","","","","","","","","","","","","","","","",""
"611","null","sub_response","html-keyboard-response","264","530530","0.0-1.0-9.0-3.0-2.22","22:59:06","2","","","","","","","<div style='text-align: center;'>
                            <span style=""color: green; font-size: 40px""><b>正确！+1 pts</b></span></div>
                            ","","learn","9","9","9","learn","2","2","[0, 1, 2]","22","2","setsize","10S3A","furniture","2","3","2","1",""
"null","null","fixation","html-keyboard-response","265","531034","0.0-1.0-9.0-3.0-0.23","22:59:06","2","","","","","","","fixation","","","","","","","","","","","","","","","","","","",""
"871","1","pic_response","html-keyboard-response","266","531905","0.0-1.0-9.0-3.0-1.23","22:59:06","2","","","","","","","<div>
            <img class='stim' src=""pictures/furniture/7.jpg""></div><div class=""button_prompt"">
                        <b>请用数字键1-3回答</b>
                        </div>","","","","","","","","","","","","","","","","","","",""
"871","null","sub_response","html-keyboard-response","267","532908","0.0-1.0-9.0-3.0-2.23","22:59:06","2","","","","","","","<div style='text-align: center;'>
                            <span style=""color: red; font-size: 40px""><b>错误！+0 pts</b></span></div>
                            ","","learn","7","7","7","learn","2","2","[0, 1, 2]","23","2","setsize","10S3A","furniture","2","0","0","0",""
"null","null","fixation","html-keyboard-response","268","533414","0.0-1.0-9.0-3.0-0.24","22:59:06","2","","","","","","","fixation","","","","","","","","","","","","","","","","","","",""
"1125","3","pic_response","html-keyboard-response","269","534539","0.0-1.0-9.0-3.0-1.24","22:59:06","2","","","","","","","<div>
            <img class='stim' src=""pictures/furniture/2.jpg""></div><div class=""button_prompt"">
                        <b>请用数字键1-3回答</b>
                        </div>","","","","","","","","","","","","","","","","","","",""
"1125","null","sub_response","html-keyboard-response","270","535544","0.0-1.0-9.0-3.0-2.24","22:59:06","2","","","","","","","<div style='text-align: center;'>
                            <span style=""color: red; font-size: 40px""><b>错误！+0 pts</b></span></div>
                            ","","learn","2","2","2","learn","0","0","[0, 1, 2]","24","2","setsize","10S3A","furniture","2","0","2","0",""
"null","null","fixation","html-keyboard-response","271","536049","0.0-1.0-9.0-3.0-0.25","22:59:06","2","","","","","","","fixation","","","","","","","","","","","","","","","","","","",""
"711","3","pic_response","html-keyboard-response","272","536761","0.0-1.0-9.0-3.0-1.25","22:59:06","2","","","","","","","<div>
            <img class='stim' src=""pictures/furniture/8.jpg""></div><div class=""button_prompt"">
                        <b>请用数字键1-3回答</b>
                        </div>","","","","","","","","","","","","","","","","","","",""
"711","null","sub_response","html-keyboard-response","273","537763","0.0-1.0-9.0-3.0-2.25","22:59:06","2","","","","","","","<div style='text-align: center;'>
                            <span style=""color: green; font-size: 40px""><b>正确！+1 pts</b></span></div>
                            ","","learn","8","8","8","learn","2","2","[0, 1, 2]","25","2","setsize","10S3A","furniture","2","1","2","1",""
"null","null","fixation","html-keyboard-response","274","538266","0.0-1.0-9.0-3.0-0.26","22:59:06","2","","","","","","","fixation","","","","","","","","","","","","","","","","","","",""
"1238","2","pic_response","html-keyboard-response","275","539506","0.0-1.0-9.0-3.0-1.26","22:59:06","2","","","","","","","<div>
            <img class='stim' src=""pictures/furniture/5.jpg""></div><div class=""button_prompt"">
                        <b>请用数字键1-3回答</b>
                        </div>","","","","","","","","","","","","","","","","","","",""
"1238","null","sub_response","html-keyboard-response","276","540510","0.0-1.0-9.0-3.0-2.26","22:59:06","2","","","","","","","<div style='text-align: center;'>
                            <span style=""color: green; font-size: 40px""><b>正确！+1 pts</b></span></div>
                            ","","learn","5","5","5","learn","1","1","[0, 1, 2]","26","2","setsize","10S3A","furniture","2","2","1","1",""
"null","null","fixation","html-keyboard-response","277","541013","0.0-1.0-9.0-3.0-0.27","22:59:06","2","","","","","","","fixation","","","","","","","","","","","","","","","","","","",""
"1708","2","pic_response","html-keyboard-response","278","542722","0.0-1.0-9.0-3.0-1.27","22:59:06","2","","","","","","","<div>
            <img class='stim' src=""pictures/furniture/3.jpg""></div><div class=""button_prompt"">
                        <b>请用数字键1-3回答</b>
                        </div>","","","","","","","","","","","","","","","","","","",""
"1708","null","sub_response","html-keyboard-response","279","543725","0.0-1.0-9.0-3.0-2.27","22:59:06","2","","","","","","","<div style='text-align: center;'>
                            <span style=""color: green; font-size: 40px""><b>正确！+1 pts</b></span></div>
                            ","","learn","3","3","3","learn","1","1","[0, 1, 2]","27","2","setsize","10S3A","furniture","2","3","1","1",""
"null","null","fixation","html-keyboard-response","280","544230","0.0-1.0-9.0-3.0-0.28","22:59:06","2","","","","","","","fixation","","","","","","","","","","","","","","","","","","",""
"706","1","pic_response","html-keyboard-response","281","544937","0.0-1.0-9.0-3.0-1.28","22:59:06","2","","","","","","","<div>
            <img class='stim' src=""pictures/furniture/1.jpg""></div><div class=""button_prompt"">
                        <b>请用数字键1-3回答</b>
                        </div>","","","","","","","","","","","","","","","","","","",""
"706","null","sub_response","html-keyboard-response","282","545941","0.0-1.0-9.0-3.0-2.28","22:59:06","2","","","","","","","<div style='text-align: center;'>
                            <span style=""color: green; font-size: 40px""><b>正确！+1 pts</b></span></div>
                            ","","learn","1","1","1","learn","0","0","[0, 1, 2]","28","2","setsize","10S3A","furniture","2","4","0","1",""
"null","null","fixation","html-keyboard-response","283","546454","0.0-1.0-9.0-3.0-0.29","22:59:06","2","","","","","","","fixation","","","","","","","","","","","","","","","","","","",""
"659","3","pic_response","html-keyboard-response","284","547114","0.0-1.0-9.0-3.0-1.29","22:59:06","2","","","","","","","<div>
            <img class='stim' src=""pictures/furniture/6.jpg""></div><div class=""button_prompt"">
                        <b>请用数字键1-3回答</b>
                        </div>","","","","","","","","","","","","","","","","","","",""
"659","null","sub_response","html-keyboard-response","285","548126","0.0-1.0-9.0-3.0-2.29","22:59:06","2","","","","","","","<div style='text-align: center;'>
                            <span style=""color: green; font-size: 40px""><b>正确！+1 pts</b></span></div>
                            ","","learn","6","6","6","learn","2","2","[0, 1, 2]","29","2","setsize","10S3A","furniture","2","5","2","1",""
"null","null","fixation","html-keyboard-response","286","548630","0.0-1.0-9.0-3.0-0.30","22:59:06","2","","","","","","","fixation","","","","","","","","","","","","","","","","","","",""
"794","2","pic_response","html-keyboard-response","287","549426","0.0-1.0-9.0-3.0-1.30","22:59:06","2","","","","","","","<div>
            <img class='stim' src=""pictures/furniture/3.jpg""></div><div class=""button_prompt"">
                        <b>请用数字键1-3回答</b>
                        </div>","","","","","","","","","","","","","","","","","","",""
"794","null","sub_response","html-keyboard-response","288","550431","0.0-1.0-9.0-3.0-2.30","22:59:06","2","","","","","","","<div style='text-align: center;'>
                            <span style=""color: green; font-size: 40px""><b>正确！+1 pts</b></span></div>
                            ","","learn","3","3","3","learn","1","1","[0, 1, 2]","30","3","setsize","10S3A","furniture","2","6","1","1",""
"null","null","fixation","html-keyboard-response","289","550932","0.0-1.0-9.0-3.0-0.31","22:59:06","2","","","","","","","fixation","","","","","","","","","","","","","","","","","","",""
"876","2","pic_response","html-keyboard-response","290","551809","0.0-1.0-9.0-3.0-1.31","22:59:06","2","","","","","","","<div>
            <img class='stim' src=""pictures/furniture/7.jpg""></div><div class=""button_prompt"">
                        <b>请用数字键1-3回答</b>
                        </div>","","","","","","","","","","","","","","","","","","",""
"876","null","sub_response","html-keyboard-response","291","552813","0.0-1.0-9.0-3.0-2.31","22:59:06","2","","","","","","","<div style='text-align: center;'>
                            <span style=""color: red; font-size: 40px""><b>错误！+0 pts</b></span></div>
                            ","","learn","7","7","7","learn","2","2","[0, 1, 2]","31","3","setsize","10S3A","furniture","2","0","1","0",""
"null","null","fixation","html-keyboard-response","292","553316","0.0-1.0-9.0-3.0-0.32","22:59:06","2","","","","","","","fixation","","","","","","","","","","","","","","","","","","",""
"809","2","pic_response","html-keyboard-response","293","554126","0.0-1.0-9.0-3.0-1.32","22:59:06","2","","","","","","","<div>
            <img class='stim' src=""pictures/furniture/2.jpg""></div><div class=""button_prompt"">
                        <b>请用数字键1-3回答</b>
                        </div>","","","","","","","","","","","","","","","","","","",""
"809","null","sub_response","html-keyboard-response","294","555128","0.0-1.0-9.0-3.0-2.32","22:59:06","2","","","","","","","<div style='text-align: center;'>
                            <span style=""color: red; font-size: 40px""><b>错误！+0 pts</b></span></div>
                            ","","learn","2","2","2","learn","0","0","[0, 1, 2]","32","3","setsize","10S3A","furniture","2","0","1","0",""
"null","null","fixation","html-keyboard-response","295","555644","0.0-1.0-9.0-3.0-0.33","22:59:06","2","","","","","","","fixation","","","","","","","","","","","","","","","","","","",""
"750","3","pic_response","html-keyboard-response","296","556396","0.0-1.0-9.0-3.0-1.33","22:59:06","2","","","","","","","<div>
            <img class='stim' src=""pictures/furniture/9.jpg""></div><div class=""button_prompt"">
                        <b>请用数字键1-3回答</b>
                        </div>","","","","","","","","","","","","","","","","","","",""
"750","null","sub_response","html-keyboard-response","297","557401","0.0-1.0-9.0-3.0-2.33","22:59:06","2","","","","","","","<div style='text-align: center;'>
                            <span style=""color: green; font-size: 40px""><b>正确！+1 pts</b></span></div>
                            ","","learn","9","9","9","learn","2","2","[0, 1, 2]","33","3","setsize","10S3A","furniture","2","1","2","1",""
"null","null","fixation","html-keyboard-response","298","557903","0.0-1.0-9.0-3.0-0.34","22:59:06","2","","","","","","","fixation","","","","","","","","","","","","","","","","","","",""
"775","2","pic_response","html-keyboard-response","299","558679","0.0-1.0-9.0-3.0-1.34","22:59:06","2","","","","","","","<div>
            <img class='stim' src=""pictures/furniture/4.jpg""></div><div class=""button_prompt"">
                        <b>请用数字键1-3回答</b>
                        </div>","","","","","","","","","","","","","","","","","","",""
"775","null","sub_response","html-keyboard-response","300","559683","0.0-1.0-9.0-3.0-2.34","22:59:06","2","","","","","","","<div style='text-align: center;'>
                            <span style=""color: green; font-size: 40px""><b>正确！+1 pts</b></span></div>
                            ","","learn","4","4","4","learn","1","1","[0, 1, 2]","34","3","setsize","10S3A","furniture","2","2","1","1",""
"null","null","fixation","html-keyboard-response","301","560188","0.0-1.0-9.0-3.0-0.35","22:59:06","2","","","","","","","fixation","","","","","","","","","","","","","","","","","","",""
"1444","3","pic_response","html-keyboard-response","302","561633","0.0-1.0-9.0-3.0-1.35","22:59:06","2","","","","","","","<div>
            <img class='stim' src=""pictures/furniture/8.jpg""></div><div class=""button_prompt"">
                        <b>请用数字键1-3回答</b>
                        </div>","","","","","","","","","","","","","","","","","","",""
"1444","null","sub_response","html-keyboard-response","303","562637","0.0-1.0-9.0-3.0-2.35","22:59:06","2","","","","","","","<div style='text-align: center;'>
                            <span style=""color: green; font-size: 40px""><b>正确！+1 pts</b></span></div>
                            ","","learn","8","8","8","learn","2","2","[0, 1, 2]","35","3","setsize","10S3A","furniture","2","3","2","1",""
"null","null","fixation","html-keyboard-response","304","563140","0.0-1.0-9.0-3.0-0.36","22:59:06","2","","","","","","","fixation","","","","","","","","","","","","","","","","","","",""
"1478","2","pic_response","html-keyboard-response","305","564619","0.0-1.0-9.0-3.0-1.36","22:59:06","2","","","","","","","<div>
            <img class='stim' src=""pictures/furniture/5.jpg""></div><div class=""button_prompt"">
                        <b>请用数字键1-3回答</b>
                        </div>","","","","","","","","","","","","","","","","","","",""
"1478","null","sub_response","html-keyboard-response","306","565622","0.0-1.0-9.0-3.0-2.36","22:59:06","2","","","","","","","<div style='text-align: center;'>
                            <span style=""color: green; font-size: 40px""><b>正确！+1 pts</b></span></div>
                            ","","learn","5","5","5","learn","1","1","[0, 1, 2]","36","3","setsize","10S3A","furniture","2","4","1","1",""
"null","null","fixation","html-keyboard-response","307","566130","0.0-1.0-9.0-3.0-0.37","22:59:06","2","","","","","","","fixation","","","","","","","","","","","","","","","","","","",""
"1202","3","pic_response","html-keyboard-response","308","567334","0.0-1.0-9.0-3.0-1.37","22:59:06","2","","","","","","","<div>
            <img class='stim' src=""pictures/furniture/6.jpg""></div><div class=""button_prompt"">
                        <b>请用数字键1-3回答</b>
                        </div>","","","","","","","","","","","","","","","","","","",""
"1202","null","sub_response","html-keyboard-response","309","568337","0.0-1.0-9.0-3.0-2.37","22:59:06","2","","","","","","","<div style='text-align: center;'>
                            <span style=""color: green; font-size: 40px""><b>正确！+1 pts</b></span></div>
                            ","","learn","6","6","6","learn","2","2","[0, 1, 2]","37","3","setsize","10S3A","furniture","2","5","2","1",""
"null","null","fixation","html-keyboard-response","310","568853","0.0-1.0-9.0-3.0-0.38","22:59:06","2","","","","","","","fixation","","","","","","","","","","","","","","","","","","",""
"787","1","pic_response","html-keyboard-response","311","569641","0.0-1.0-9.0-3.0-1.38","22:59:06","2","","","","","","","<div>
            <img class='stim' src=""pictures/furniture/1.jpg""></div><div class=""button_prompt"">
                        <b>请用数字键1-3回答</b>
                        </div>","","","","","","","","","","","","","","","","","","",""
"787","null","sub_response","html-keyboard-response","312","570658","0.0-1.0-9.0-3.0-2.38","22:59:06","2","","","","","","","<div style='text-align: center;'>
                            <span style=""color: green; font-size: 40px""><b>正确！+1 pts</b></span></div>
                            ","","learn","1","1","1","learn","0","0","[0, 1, 2]","38","3","setsize","10S3A","furniture","2","6","0","1",""
"null","null","fixation","html-keyboard-response","313","571160","0.0-1.0-9.0-3.0-0.39","22:59:06","2","","","","","","","fixation","","","","","","","","","","","","","","","","","","",""
"1020","1","pic_response","html-keyboard-response","314","572182","0.0-1.0-9.0-3.0-1.39","22:59:06","2","","","","","","","<div>
            <img class='stim' src=""pictures/furniture/0.jpg""></div><div class=""button_prompt"">
                        <b>请用数字键1-3回答</b>
                        </div>","","","","","","","","","","","","","","","","","","",""
"1020","null","sub_response","html-keyboard-response","315","573186","0.0-1.0-9.0-3.0-2.39","22:59:06","2","","","","","","","<div style='text-align: center;'>
                            <span style=""color: green; font-size: 40px""><b>正确！+1 pts</b></span></div>
                            ","","learn","0","0","0","learn","0","0","[0, 1, 2]","39","3","setsize","10S3A","furniture","2","7","0","1",""
"null","null","fixation","html-keyboard-response","316","573691","0.0-1.0-9.0-3.0-0.40","22:59:06","2","","","","","","","fixation","","","","","","","","","","","","","","","","","","",""
"1298","3","pic_response","html-keyboard-response","317","574991","0.0-1.0-9.0-3.0-1.40","22:59:06","2","","","","","","","<div>
            <img class='stim' src=""pictures/furniture/8.jpg""></div><div class=""button_prompt"">
                        <b>请用数字键1-3回答</b>
                        </div>","","","","","","","","","","","","","","","","","","",""
"1298","null","sub_response","html-keyboard-response","318","575997","0.0-1.0-9.0-3.0-2.40","22:59:06","2","","","","","","","<div style='text-align: center;'>
                            <span style=""color: green; font-size: 40px""><b>正确！+1 pts</b></span></div>
                            ","","learn","8","8","8","learn","2","2","[0, 1, 2]","40","4","setsize","10S3A","furniture","2","8","2","1",""
"null","null","fixation","html-keyboard-response","319","576502","0.0-1.0-9.0-3.0-0.41","22:59:06","2","","","","","","","fixation","","","","","","","","","","","","","","","","","","",""
"1804","2","pic_response","html-keyboard-response","320","578307","0.0-1.0-9.0-3.0-1.41","22:59:06","2","","","","","","","<div>
            <img class='stim' src=""pictures/furniture/5.jpg""></div><div class=""button_prompt"">
                        <b>请用数字键1-3回答</b>
