"rt","response","screen_id","trial_type","trial_index","time_elapsed","internal_node_id","start_time","n_Prac","success","timeout","failed_images","failed_audio","failed_video","view_history","stimulus","question_order","stage","s","word","word_id","phase","a_cor","a_real","a_ava","trial","tps","task_type","block_typ","pic_typ","block_id","cum_r","a","r","plugin_name"
"75598","{""sub_id"":""1"",""task_type"":""task1"",""name"":""xmt"",""gender"":""F""}","basic_info","survey-html-form","0","75601","0.0-0.0","06:31:32","6","","","","","","","","","","","","","","","","","","","","","","","","","",""
"","","","preload","1","76658","0.0-1.0-0.0","06:31:32","6","true","false","[]","[]","[]","","","","","","","","","","","","","","","","","","","","",""
"","","","preload","2","76959","0.0-1.0-1.0","06:31:32","6","true","false","[]","[]","[]","","","","","","","","","","","","","","","","","","","","",""
"","","","fullscreen","3","80125","0.0-1.0-2.0","06:31:32","6","true","","","","","","","","","","","","","","","","","","","","","","","","",""
"14194","","instruct","instructions","4","94320","0.0-1.0-3.0-0.0","06:31:32","6","","","","","","[{""page_index"":0,""viewing_time"":5291},{""page_index"":1,""viewing_time"":3721},{""page_index"":2,""viewing_time"":5182}]","","","","","","","","","","","","","","","","","","","",""
"28231","{""Q0"":"""",""task1"":""<span style='font-size: 24px'>学习图片和数字的对应关系</span>"",""task2"":""<span style='font-size: 24px'> 数字键1-3 </span>"",""task3"":""<span style='font-size: 24px'> 看到图片选出正确对应的数字 </span>""}","question","survey-multi-choice","5","122552","0.0-1.0-3.0-1.0","06:31:32","6","","","","","","","","[0,1,2,3]","","","","","","","","","","","","","","","","","",""
"2825"," ","inst_q","html-keyboard-response","6","125378","0.0-1.0-3.0-2.0","06:31:32","6","","","","","","","inst","","1","","","","","","","","","","","","","","","","",""
"5227","","instruct","instructions","7","130606","0.0-1.0-3.1-0.1","06:31:32","6","","","","","","[{""page_index"":0,""viewing_time"":2150},{""page_index"":1,""viewing_time"":1793},{""page_index"":2,""viewing_time"":1283}]","","","","","","","","","","","","","","","","","","","",""
"3305","{""Q0"":"""",""task1"":""<span style='font-size: 24px'>学习图片和数字的对应关系</span>"",""task2"":""<span style='font-size: 24px'> 图片下方标注为可用的数字键（数字键1-3或0-9） </span>"",""task3"":""<span style='font-size: 24px'> 看到图片选出正确对应的数字 </span>""}","question","survey-multi-choice","8","133912","0.0-1.0-3.1-1.1","06:31:32","6","","","","","","","","[0,1,2,3]","","","","","","","","","","","","","","","","","",""
"2771"," ","inst_q","html-keyboard-response","9","136684","0.0-1.0-3.1-2.1","06:31:32","6","","","","","","","inst","","1","","","","","","","","","","","","","","","","",""
"","","","preload","10","136834","0.0-1.0-4.0-0.0","06:31:32","6","true","false","[]","[]","[]","","","","","","","","","","","","","","","","","","","","",""
"2157"," ","","html-keyboard-response","11","138992","0.0-1.0-4.0-1.0","06:31:32","6","","","","","","","<div style='font-size: 32px; text-align: center;'
                    <p>请学习图片和数字之间的对应关系</p>
                    <p>我们将<span style='color: blue'><b> 告诉 </b></span>您选择的对错。请根据反馈学习。</p>
                    <p>请按""空格""继续实验。</p></div>","","","","","","","","","","","","","","","","","","",""
"3394"," ","inst","html-keyboard-response","12","142387","0.0-1.0-4.0-2.0","06:31:32","6","","","","","","","<img class='instruct_stim' src=""instruction/prac3.PNG""></div>","","","","","","","","","","","","","","","","","","",""
"null","null","fixation","html-keyboard-response","13","142893","0.0-1.0-4.0-3.0-0.0","06:31:32","6","","","","","","","fixation","","","","","","","","","","","","","","","","","","",""
"1018","2","pic_response","html-keyboard-response","14","143912","0.0-1.0-4.0-3.0-1.0","06:31:32","6","","","","","","","<div>
            <img class='stim' src=""pictures/prac/2.jpg""></div><div class=""button_prompt"">
                        <b>请用数字键1-3回答</b>
                        </div>","","","","","","","","","","","","","","","","","","",""
"1018","null","sub_response","html-keyboard-response","15","144922","0.0-1.0-4.0-3.0-2.0","06:31:32","6","","","","","","","<div style='text-align: center;'>
                            <span style=""color: red; font-size: 40px""><b>错误！+0 pts</b></span></div>
                            ","","learn","2","2","2","learn","2","2","[0, 1, 2]","0","0","setsize","99","prac","0","0","1","0",""
"null","null","fixation","html-keyboard-response","16","145427","0.0-1.0-4.0-3.0-0.1","06:31:32","6","","","","","","","fixation","","","","","","","","","","","","","","","","","","",""
"665","1","pic_response","html-keyboard-response","17","146094","0.0-1.0-4.0-3.0-1.1","06:31:32","6","","","","","","","<div>
            <img class='stim' src=""pictures/prac/0.jpg""></div><div class=""button_prompt"">
                        <b>请用数字键1-3回答</b>
                        </div>","","","","","","","","","","","","","","","","","","",""
"665","null","sub_response","html-keyboard-response","18","147099","0.0-1.0-4.0-3.0-2.1","06:31:32","6","","","","","","","<div style='text-align: center;'>
                            <span style=""color: green; font-size: 40px""><b>正确！+1 pts</b></span></div>
                            ","","learn","0","0","0","learn","0","0","[0, 1, 2]","1","0","setsize","99","prac","0","1","0","1",""
"null","null","fixation","html-keyboard-response","19","147611","0.0-1.0-4.0-3.0-0.2","06:31:32","6","","","","","","","fixation","","","","","","","","","","","","","","","","","","",""
"1008","3","pic_response","html-keyboard-response","20","148620","0.0-1.0-4.0-3.0-1.2","06:31:32","6","","","","","","","<div>
            <img class='stim' src=""pictures/prac/1.jpg""></div><div class=""button_prompt"">
                        <b>请用数字键1-3回答</b>
                        </div>","","","","","","","","","","","","","","","","","","",""
"1008","null","sub_response","html-keyboard-response","21","149628","0.0-1.0-4.0-3.0-2.2","06:31:32","6","","","","","","","<div style='text-align: center;'>
                            <span style=""color: red; font-size: 40px""><b>错误！+0 pts</b></span></div>
                            ","","learn","1","1","1","learn","0","0","[0, 1, 2]","2","0","setsize","99","prac","0","0","2","0",""
"null","null","fixation","html-keyboard-response","22","150133","0.0-1.0-4.0-3.0-0.3","06:31:32","6","","","","","","","fixation","","","","","","","","","","","","","","","","","","",""
"582","2","pic_response","html-keyboard-response","23","150715","0.0-1.0-4.0-3.0-1.3","06:31:32","6","","","","","","","<div>
            <img class='stim' src=""pictures/prac/1.jpg""></div><div class=""button_prompt"">
                        <b>请用数字键1-3回答</b>
                        </div>","","","","","","","","","","","","","","","","","","",""
"582","null","sub_response","html-keyboard-response","24","151720","0.0-1.0-4.0-3.0-2.3","06:31:32","6","","","","","","","<div style='text-align: center;'>
                            <span style=""color: red; font-size: 40px""><b>错误！+0 pts</b></span></div>
                            ","","learn","1","1","1","learn","0","0","[0, 1, 2]","3","1","setsize","99","prac","0","0","1","0",""
"null","null","fixation","html-keyboard-response","25","152228","0.0-1.0-4.0-3.0-0.4","06:31:32","6","","","","","","","fixation","","","","","","","","","","","","","","","","","","",""
"1023","1","pic_response","html-keyboard-response","26","153252","0.0-1.0-4.0-3.0-1.4","06:31:32","6","","","","","","","<div>
            <img class='stim' src=""pictures/prac/2.jpg""></div><div class=""button_prompt"">
                        <b>请用数字键1-3回答</b>
                        </div>","","","","","","","","","","","","","","","","","","",""
"1023","null","sub_response","html-keyboard-response","27","154260","0.0-1.0-4.0-3.0-2.4","06:31:32","6","","","","","","","<div style='text-align: center;'>
                            <span style=""color: red; font-size: 40px""><b>错误！+0 pts</b></span></div>
                            ","","learn","2","2","2","learn","2","2","[0, 1, 2]","4","1","setsize","99","prac","0","0","0","0",""
"null","null","fixation","html-keyboard-response","28","154773","0.0-1.0-4.0-3.0-0.5","06:31:32","6","","","","","","","fixation","","","","","","","","","","","","","","","","","","",""
"751","1","pic_response","html-keyboard-response","29","155525","0.0-1.0-4.0-3.0-1.5","06:31:32","6","","","","","","","<div>
            <img class='stim' src=""pictures/prac/0.jpg""></div><div class=""button_prompt"">
                        <b>请用数字键1-3回答</b>
                        </div>","","","","","","","","","","","","","","","","","","",""
"751","null","sub_response","html-keyboard-response","30","156536","0.0-1.0-4.0-3.0-2.5","06:31:32","6","","","","","","","<div style='text-align: center;'>
                            <span style=""color: green; font-size: 40px""><b>正确！+1 pts</b></span></div>
                            ","","learn","0","0","0","learn","0","0","[0, 1, 2]","5","1","setsize","99","prac","0","1","0","1",""
"","","","preload","31","156539","0.0-1.0-4.1-0.1","06:31:32","6","true","false","[]","[]","[]","","","","","","","","","","","","","","","","","","","","",""
"2252"," ","","html-keyboard-response","32","158792","0.0-1.0-4.1-1.1","06:31:32","6","","","","","","","<div style='font-size: 32px; text-align: center;'
                    <p>请学习图片和数字之间的对应关系</p>
                    <p>我们将<span style='color: blue'><b> 告诉 </b></span>您选择的对错。请根据反馈学习。</p>
                    <p>请按""空格""继续实验。</p></div>","","","","","","","","","","","","","","","","","","",""
"1862"," ","inst","html-keyboard-response","33","160654","0.0-1.0-4.1-2.1","06:31:32","6","","","","","","","<img class='instruct_stim' src=""instruction/prac3.PNG""></div>","","","","","","","","","","","","","","","","","","",""
"null","null","fixation","html-keyboard-response","34","161161","0.0-1.0-4.1-3.1-0.6","06:31:32","6","","","","","","","fixation","","","","","","","","","","","","","","","","","","",""
"1093","2","pic_response","html-keyboard-response","35","162255","0.0-1.0-4.1-3.1-1.6","06:31:32","6","","","","","","","<div>
            <img class='stim' src=""pictures/prac/2.jpg""></div><div class=""button_prompt"">
                        <b>请用数字键1-3回答</b>
                        </div>","","","","","","","","","","","","","","","","","","",""
"1093","null","sub_response","html-keyboard-response","36","163266","0.0-1.0-4.1-3.1-2.6","06:31:32","6","","","","","","","<div style='text-align: center;'>
                            <span style=""color: red; font-size: 40px""><b>错误！+0 pts</b></span></div>
                            ","","learn","2","2","2","learn","2","2","[0, 1, 2]","0","0","setsize","99","prac","0","0","1","0",""
"null","null","fixation","html-keyboard-response","37","163770","0.0-1.0-4.1-3.1-0.7","06:31:32","6","","","","","","","fixation","","","","","","","","","","","","","","","","","","",""
"680","1","pic_response","html-keyboard-response","38","164450","0.0-1.0-4.1-3.1-1.7","06:31:32","6","","","","","","","<div>
            <img class='stim' src=""pictures/prac/0.jpg""></div><div class=""button_prompt"">
                        <b>请用数字键1-3回答</b>
                        </div>","","","","","","","","","","","","","","","","","","",""
"680","null","sub_response","html-keyboard-response","39","165467","0.0-1.0-4.1-3.1-2.7","06:31:32","6","","","","","","","<div style='text-align: center;'>
                            <span style=""color: green; font-size: 40px""><b>正确！+1 pts</b></span></div>
                            ","","learn","0","0","0","learn","0","0","[0, 1, 2]","1","0","setsize","99","prac","0","1","0","1",""
"null","null","fixation","html-keyboard-response","40","165970","0.0-1.0-4.1-3.1-0.8","06:31:32","6","","","","","","","fixation","","","","","","","","","","","","","","","","","","",""
"895","2","pic_response","html-keyboard-response","41","166866","0.0-1.0-4.1-3.1-1.8","06:31:32","6","","","","","","","<div>
            <img class='stim' src=""pictures/prac/1.jpg""></div><div class=""button_prompt"">
                        <b>请用数字键1-3回答</b>
                        </div>","","","","","","","","","","","","","","","","","","",""
"895","null","sub_response","html-keyboard-response","42","167875","0.0-1.0-4.1-3.1-2.8","06:31:32","6","","","","","","","<div style='text-align: center;'>
                            <span style=""color: red; font-size: 40px""><b>错误！+0 pts</b></span></div>
                            ","","learn","1","1","1","learn","0","0","[0, 1, 2]","2","0","setsize","99","prac","0","0","1","0",""
"null","null","fixation","html-keyboard-response","43","168383","0.0-1.0-4.1-3.1-0.9","06:31:32","6","","","","","","","fixation","","","","","","","","","","","","","","","","","","",""
"896","3","pic_response","html-keyboard-response","44","169280","0.0-1.0-4.1-3.1-1.9","06:31:32","6","","","","","","","<div>
            <img class='stim' src=""pictures/prac/1.jpg""></div><div class=""button_prompt"">
                        <b>请用数字键1-3回答</b>
                        </div>","","","","","","","","","","","","","","","","","","",""
"896","null","sub_response","html-keyboard-response","45","170289","0.0-1.0-4.1-3.1-2.9","06:31:32","6","","","","","","","<div style='text-align: center;'>
                            <span style=""color: red; font-size: 40px""><b>错误！+0 pts</b></span></div>
                            ","","learn","1","1","1","learn","0","0","[0, 1, 2]","3","1","setsize","99","prac","0","0","2","0",""
"null","null","fixation","html-keyboard-response","46","170802","0.0-1.0-4.1-3.1-0.10","06:31:32","6","","","","","","","fixation","","","","","","","","","","","","","","","","","","",""
"1230","3","pic_response","html-keyboard-response","47","172034","0.0-1.0-4.1-3.1-1.10","06:31:32","6","","","","","","","<div>
            <img class='stim' src=""pictures/prac/2.jpg""></div><div class=""button_prompt"">
                        <b>请用数字键1-3回答</b>
                        </div>","","","","","","","","","","","","","","","","","","",""
"1230","null","sub_response","html-keyboard-response","48","173036","0.0-1.0-4.1-3.1-2.10","06:31:32","6","","","","","","","<div style='text-align: center;'>
                            <span style=""color: green; font-size: 40px""><b>正确！+1 pts</b></span></div>
                            ","","learn","2","2","2","learn","2","2","[0, 1, 2]","4","1","setsize","99","prac","0","1","2","1",""
"null","null","fixation","html-keyboard-response","49","173544","0.0-1.0-4.1-3.1-0.11","06:31:32","6","","","","","","","fixation","","","","","","","","","","","","","","","","","","",""
"972","1","pic_response","html-keyboard-response","50","174517","0.0-1.0-4.1-3.1-1.11","06:31:32","6","","","","","","","<div>
            <img class='stim' src=""pictures/prac/0.jpg""></div><div class=""button_prompt"">
                        <b>请用数字键1-3回答</b>
                        </div>","","","","","","","","","","","","","","","","","","",""
"972","null","sub_response","html-keyboard-response","51","175522","0.0-1.0-4.1-3.1-2.11","06:31:32","6","","","","","","","<div style='text-align: center;'>
                            <span style=""color: green; font-size: 40px""><b>正确！+1 pts</b></span></div>
                            ","","learn","0","0","0","learn","0","0","[0, 1, 2]","5","1","setsize","99","prac","0","2","0","1",""
"","","","preload","52","175525","0.0-1.0-4.2-0.2","06:31:32","6","true","false","[]","[]","[]","","","","","","","","","","","","","","","","","","","","",""
"2484"," ","","html-keyboard-response","53","178009","0.0-1.0-4.2-1.2","06:31:32","6","","","","","","","<div style='font-size: 32px; text-align: center;'
                    <p>请学习图片和数字之间的对应关系</p>
                    <p>我们将<span style='color: blue'><b> 告诉 </b></span>您选择的对错。请根据反馈学习。</p>
                    <p>请按""空格""继续实验。</p></div>","","","","","","","","","","","","","","","","","","",""
"3023"," ","inst","html-keyboard-response","54","181033","0.0-1.0-4.2-2.2","06:31:32","6","","","","","","","<img class='instruct_stim' src=""instruction/prac3.PNG""></div>","","","","","","","","","","","","","","","","","","",""
"null","null","fixation","html-keyboard-response","55","181534","0.0-1.0-4.2-3.2-0.12","06:31:32","6","","","","","","","fixation","","","","","","","","","","","","","","","","","","",""
"1327","1","pic_response","html-keyboard-response","56","182862","0.0-1.0-4.2-3.2-1.12","06:31:32","6","","","","","","","<div>
            <img class='stim' src=""pictures/prac/2.jpg""></div><div class=""button_prompt"">
                        <b>请用数字键1-3回答</b>
                        </div>","","","","","","","","","","","","","","","","","","",""
"1327","null","sub_response","html-keyboard-response","57","183879","0.0-1.0-4.2-3.2-2.12","06:31:32","6","","","","","","","<div style='text-align: center;'>
                            <span style=""color: red; font-size: 40px""><b>错误！+0 pts</b></span></div>
                            ","","learn","2","2","2","learn","2","2","[0, 1, 2]","0","0","setsize","99","prac","0","0","0","0",""
"null","null","fixation","html-keyboard-response","58","184382","0.0-1.0-4.2-3.2-0.13","06:31:32","6","","","","","","","fixation","","","","","","","","","","","","","","","","","","",""
"604","1","pic_response","html-keyboard-response","59","184986","0.0-1.0-4.2-3.2-1.13","06:31:32","6","","","","","","","<div>
            <img class='stim' src=""pictures/prac/0.jpg""></div><div class=""button_prompt"">
                        <b>请用数字键1-3回答</b>
                        </div>","","","","","","","","","","","","","","","","","","",""
"604","null","sub_response","html-keyboard-response","60","186000","0.0-1.0-4.2-3.2-2.13","06:31:32","6","","","","","","","<div style='text-align: center;'>
                            <span style=""color: green; font-size: 40px""><b>正确！+1 pts</b></span></div>
                            ","","learn","0","0","0","learn","0","0","[0, 1, 2]","1","0","setsize","99","prac","0","1","0","1",""
"null","null","fixation","html-keyboard-response","61","186510","0.0-1.0-4.2-3.2-0.14","06:31:32","6","","","","","","","fixation","","","","","","","","","","","","","","","","","","",""
"1464","3","pic_response","html-keyboard-response","62","187974","0.0-1.0-4.2-3.2-1.14","06:31:32","6","","","","","","","<div>
            <img class='stim' src=""pictures/prac/1.jpg""></div><div class=""button_prompt"">
                        <b>请用数字键1-3回答</b>
                        </div>","","","","","","","","","","","","","","","","","","",""
"1464","null","sub_response","html-keyboard-response","63","188976","0.0-1.0-4.2-3.2-2.14","06:31:32","6","","","","","","","<div style='text-align: center;'>
                            <span style=""color: red; font-size: 40px""><b>错误！+0 pts</b></span></div>
                            ","","learn","1","1","1","learn","0","0","[0, 1, 2]","2","0","setsize","99","prac","0","0","2","0",""
"null","null","fixation","html-keyboard-response","64","189485","0.0-1.0-4.2-3.2-0.15","06:31:32","6","","","","","","","fixation","","","","","","","","","","","","","","","","","","",""
"650","1","pic_response","html-keyboard-response","65","190136","0.0-1.0-4.2-3.2-1.15","06:31:32","6","","","","","","","<div>
            <img class='stim' src=""pictures/prac/1.jpg""></div><div class=""button_prompt"">
                        <b>请用数字键1-3回答</b>
                        </div>","","","","","","","","","","","","","","","","","","",""
"650","null","sub_response","html-keyboard-response","66","191140","0.0-1.0-4.2-3.2-2.15","06:31:32","6","","","","","","","<div style='text-align: center;'>
                            <span style=""color: green; font-size: 40px""><b>正确！+1 pts</b></span></div>
                            ","","learn","1","1","1","learn","0","0","[0, 1, 2]","3","1","setsize","99","prac","0","1","0","1",""
"null","null","fixation","html-keyboard-response","67","191655","0.0-1.0-4.2-3.2-0.16","06:31:32","6","","","","","","","fixation","","","","","","","","","","","","","","","","","","",""
"929","2","pic_response","html-keyboard-response","68","192585","0.0-1.0-4.2-3.2-1.16","06:31:32","6","","","","","","","<div>
            <img class='stim' src=""pictures/prac/2.jpg""></div><div class=""button_prompt"">
                        <b>请用数字键1-3回答</b>
                        </div>","","","","","","","","","","","","","","","","","","",""
"929","null","sub_response","html-keyboard-response","69","193592","0.0-1.0-4.2-3.2-2.16","06:31:32","6","","","","","","","<div style='text-align: center;'>
                            <span style=""color: red; font-size: 40px""><b>错误！+0 pts</b></span></div>
                            ","","learn","2","2","2","learn","2","2","[0, 1, 2]","4","1","setsize","99","prac","0","0","1","0",""
"null","null","fixation","html-keyboard-response","70","194105","0.0-1.0-4.2-3.2-0.17","06:31:32","6","","","","","","","fixation","","","","","","","","","","","","","","","","","","",""
"602","1","pic_response","html-keyboard-response","71","194708","0.0-1.0-4.2-3.2-1.17","06:31:32","6","","","","","","","<div>
            <img class='stim' src=""pictures/prac/0.jpg""></div><div class=""button_prompt"">
                        <b>请用数字键1-3回答</b>
                        </div>","","","","","","","","","","","","","","","","","","",""
"602","null","sub_response","html-keyboard-response","72","195716","0.0-1.0-4.2-3.2-2.17","06:31:32","6","","","","","","","<div style='text-align: center;'>
                            <span style=""color: green; font-size: 40px""><b>正确！+1 pts</b></span></div>
                            ","","learn","0","0","0","learn","0","0","[0, 1, 2]","5","1","setsize","99","prac","0","1","0","1",""
"","","","preload","73","195718","0.0-1.0-4.3-0.3","06:31:32","6","true","false","[]","[]","[]","","","","","","","","","","","","","","","","","","","","",""
"692"," ","","html-keyboard-response","74","196411","0.0-1.0-4.3-1.3","06:31:32","6","","","","","","","<div style='font-size: 32px; text-align: center;'
                    <p>请学习图片和数字之间的对应关系</p>
                    <p>我们将<span style='color: blue'><b> 告诉 </b></span>您选择的对错。请根据反馈学习。</p>
                    <p>请按""空格""继续实验。</p></div>","","","","","","","","","","","","","","","","","","",""
"2064"," ","inst","html-keyboard-response","75","198475","0.0-1.0-4.3-2.3","06:31:32","6","","","","","","","<img class='instruct_stim' src=""instruction/prac3.PNG""></div>","","","","","","","","","","","","","","","","","","",""
"null","null","fixation","html-keyboard-response","76","198978","0.0-1.0-4.3-3.3-0.18","06:31:32","6","","","","","","","fixation","","","","","","","","","","","","","","","","","","",""
"1377","3","pic_response","html-keyboard-response","77","200355","0.0-1.0-4.3-3.3-1.18","06:31:32","6","","","","","","","<div>
            <img class='stim' src=""pictures/prac/2.jpg""></div><div class=""button_prompt"">
                        <b>请用数字键1-3回答</b>
                        </div>","","","","","","","","","","","","","","","","","","",""
"1377","null","sub_response","html-keyboard-response","78","201365","0.0-1.0-4.3-3.3-2.18","06:31:32","6","","","","","","","<div style='text-align: center;'>
                            <span style=""color: green; font-size: 40px""><b>正确！+1 pts</b></span></div>
                            ","","learn","2","2","2","learn","2","2","[0, 1, 2]","0","0","setsize","99","prac","0","2","2","1",""
"null","null","fixation","html-keyboard-response","79","201870","0.0-1.0-4.3-3.3-0.19","06:31:32","6","","","","","","","fixation","","","","","","","","","","","","","","","","","","",""
"663","1","pic_response","html-keyboard-response","80","202533","0.0-1.0-4.3-3.3-1.19","06:31:32","6","","","","","","","<div>
            <img class='stim' src=""pictures/prac/0.jpg""></div><div class=""button_prompt"">
                        <b>请用数字键1-3回答</b>
                        </div>","","","","","","","","","","","","","","","","","","",""
"663","null","sub_response","html-keyboard-response","81","203536","0.0-1.0-4.3-3.3-2.19","06:31:32","6","","","","","","","<div style='text-align: center;'>
                            <span style=""color: green; font-size: 40px""><b>正确！+1 pts</b></span></div>
                            ","","learn","0","0","0","learn","0","0","[0, 1, 2]","1","0","setsize","99","prac","0","3","0","1",""
"null","null","fixation","html-keyboard-response","82","204044","0.0-1.0-4.3-3.3-0.20","06:31:32","6","","","","","","","fixation","","","","","","","","","","","","","","","","","","",""
"1390","2","pic_response","html-keyboard-response","83","205435","0.0-1.0-4.3-3.3-1.20","06:31:32","6","","","","","","","<div>
            <img class='stim' src=""pictures/prac/1.jpg""></div><div class=""button_prompt"">
                        <b>请用数字键1-3回答</b>
                        </div>","","","","","","","","","","","","","","","","","","",""
"1390","null","sub_response","html-keyboard-response","84","206441","0.0-1.0-4.3-3.3-2.20","06:31:32","6","","","","","","","<div style='text-align: center;'>
                            <span style=""color: red; font-size: 40px""><b>错误！+0 pts</b></span></div>
                            ","","learn","1","1","1","learn","0","0","[0, 1, 2]","2","0","setsize","99","prac","0","0","1","0",""
"null","null","fixation","html-keyboard-response","85","206946","0.0-1.0-4.3-3.3-0.21","06:31:32","6","","","","","","","fixation","","","","","","","","","","","","","","","","","","",""
"594","3","pic_response","html-keyboard-response","86","207540","0.0-1.0-4.3-3.3-1.21","06:31:32","6","","","","","","","<div>
            <img class='stim' src=""pictures/prac/1.jpg""></div><div class=""button_prompt"">
                        <b>请用数字键1-3回答</b>
                        </div>","","","","","","","","","","","","","","","","","","",""
"594","null","sub_response","html-keyboard-response","87","208546","0.0-1.0-4.3-3.3-2.21","06:31:32","6","","","","","","","<div style='text-align: center;'>
                            <span style=""color: red; font-size: 40px""><b>错误！+0 pts</b></span></div>
                            ","","learn","1","1","1","learn","0","0","[0, 1, 2]","3","1","setsize","99","prac","0","0","2","0",""
"null","null","fixation","html-keyboard-response","88","209048","0.0-1.0-4.3-3.3-0.22","06:31:32","6","","","","","","","fixation","","","","","","","","","","","","","","","","","","",""
"891","3","pic_response","html-keyboard-response","89","209940","0.0-1.0-4.3-3.3-1.22","06:31:32","6","","","","","","","<div>
            <img class='stim' src=""pictures/prac/2.jpg""></div><div class=""button_prompt"">
                        <b>请用数字键1-3回答</b>
                        </div>","","","","","","","","","","","","","","","","","","",""
"891","null","sub_response","html-keyboard-response","90","210942","0.0-1.0-4.3-3.3-2.22","06:31:32","6","","","","","","","<div style='text-align: center;'>
                            <span style=""color: green; font-size: 40px""><b>正确！+1 pts</b></span></div>
                            ","","learn","2","2","2","learn","2","2","[0, 1, 2]","4","1","setsize","99","prac","0","1","2","1",""
"null","null","fixation","html-keyboard-response","91","211449","0.0-1.0-4.3-3.3-0.23","06:31:32","6","","","","","","","fixation","","","","","","","","","","","","","","","","","","",""
"428","1","pic_response","html-keyboard-response","92","211877","0.0-1.0-4.3-3.3-1.23","06:31:32","6","","","","","","","<div>
            <img class='stim' src=""pictures/prac/0.jpg""></div><div class=""button_prompt"">
                        <b>请用数字键1-3回答</b>
                        </div>","","","","","","","","","","","","","","","","","","",""
"428","null","sub_response","html-keyboard-response","93","212882","0.0-1.0-4.3-3.3-2.23","06:31:32","6","","","","","","","<div style='text-align: center;'>
                            <span style=""color: green; font-size: 40px""><b>正确！+1 pts</b></span></div>
                            ","","learn","0","0","0","learn","0","0","[0, 1, 2]","5","1","setsize","99","prac","0","2","0","1",""
"","","","preload","94","212885","0.0-1.0-4.4-0.4","06:31:32","6","true","false","[]","[]","[]","","","","","","","","","","","","","","","","","","","","",""
"584"," ","","html-keyboard-response","95","213469","0.0-1.0-4.4-1.4","06:31:32","6","","","","","","","<div style='font-size: 32px; text-align: center;'
                    <p>请学习图片和数字之间的对应关系</p>
                    <p>我们将<span style='color: blue'><b> 告诉 </b></span>您选择的对错。请根据反馈学习。</p>
                    <p>请按""空格""继续实验。</p></div>","","","","","","","","","","","","","","","","","","",""
"1881"," ","inst","html-keyboard-response","96","215351","0.0-1.0-4.4-2.4","06:31:32","6","","","","","","","<img class='instruct_stim' src=""instruction/prac3.PNG""></div>","","","","","","","","","","","","","","","","","","",""
"null","null","fixation","html-keyboard-response","97","215858","0.0-1.0-4.4-3.4-0.24","06:31:32","6","","","","","","","fixation","","","","","","","","","","","","","","","","","","",""
"null","null","pic_response","html-keyboard-response","98","218860","0.0-1.0-4.4-3.4-1.24","06:31:32","6","","","","","","","<div>
            <img class='stim' src=""pictures/prac/2.jpg""></div><div class=""button_prompt"">
                        <b>请用数字键1-3回答</b>
                        </div>","","","","","","","","","","","","","","","","","","",""
"null","null","sub_response","html-keyboard-response","99","219863","0.0-1.0-4.4-3.4-2.24","06:31:32","6","","","","","","","<div style='text-align: center;'>
                            <span style=""color: red; font-size: 40px""><b>错误！+0 pts</b></span></div>
                            ","","learn","2","2","2","learn","2","2","[0, 1, 2]","0","0","setsize","99","prac","0","0","999","0",""
"null","null","fixation","html-keyboard-response","100","220371","0.0-1.0-4.4-3.4-0.25","06:31:32","6","","","","","","","fixation","","","","","","","","","","","","","","","","","","",""
"611","1","pic_response","html-keyboard-response","101","220983","0.0-1.0-4.4-3.4-1.25","06:31:32","6","","","","","","","<div>
            <img class='stim' src=""pictures/prac/0.jpg""></div><div class=""button_prompt"">
                        <b>请用数字键1-3回答</b>
                        </div>","","","","","","","","","","","","","","","","","","",""
"611","null","sub_response","html-keyboard-response","102","221985","0.0-1.0-4.4-3.4-2.25","06:31:32","6","","","","","","","<div style='text-align: center;'>
                            <span style=""color: green; font-size: 40px""><b>正确！+1 pts</b></span></div>
                            ","","learn","0","0","0","learn","0","0","[0, 1, 2]","1","0","setsize","99","prac","0","1","0","1",""
"null","null","fixation","html-keyboard-response","103","222486","0.0-1.0-4.4-3.4-0.26","06:31:32","6","","","","","","","fixation","","","","","","","","","","","","","","","","","","",""
"1298","1","pic_response","html-keyboard-response","104","223784","0.0-1.0-4.4-3.4-1.26","06:31:32","6","","","","","","","<div>
            <img class='stim' src=""pictures/prac/1.jpg""></div><div class=""button_prompt"">
                        <b>请用数字键1-3回答</b>
                        </div>","","","","","","","","","","","","","","","","","","",""
"1298","null","sub_response","html-keyboard-response","105","224787","0.0-1.0-4.4-3.4-2.26","06:31:32","6","","","","","","","<div style='text-align: center;'>
                            <span style=""color: green; font-size: 40px""><b>正确！+1 pts</b></span></div>
                            ","","learn","1","1","1","learn","0","0","[0, 1, 2]","2","0","setsize","99","prac","0","2","0","1",""
"null","null","fixation","html-keyboard-response","106","225289","0.0-1.0-4.4-3.4-0.27","06:31:32","6","","","","","","","fixation","","","","","","","","","","","","","","","","","","",""
"688","1","pic_response","html-keyboard-response","107","225977","0.0-1.0-4.4-3.4-1.27","06:31:32","6","","","","","","","<div>
            <img class='stim' src=""pictures/prac/1.jpg""></div><div class=""button_prompt"">
                        <b>请用数字键1-3回答</b>
                        </div>","","","","","","","","","","","","","","","","","","",""
"688","null","sub_response","html-keyboard-response","108","226982","0.0-1.0-4.4-3.4-2.27","06:31:32","6","","","","","","","<div style='text-align: center;'>
                            <span style=""color: green; font-size: 40px""><b>正确！+1 pts</b></span></div>
                            ","","learn","1","1","1","learn","0","0","[0, 1, 2]","3","1","setsize","99","prac","0","3","0","1",""
"null","null","fixation","html-keyboard-response","109","227485","0.0-1.0-4.4-3.4-0.28","06:31:32","6","","","","","","","fixation","","","","","","","","","","","","","","","","","","",""
"915","2","pic_response","html-keyboard-response","110","228401","0.0-1.0-4.4-3.4-1.28","06:31:32","6","","","","","","","<div>
            <img class='stim' src=""pictures/prac/2.jpg""></div><div class=""button_prompt"">
                        <b>请用数字键1-3回答</b>
                        </div>","","","","","","","","","","","","","","","","","","",""
"915","null","sub_response","html-keyboard-response","111","229409","0.0-1.0-4.4-3.4-2.28","06:31:32","6","","","","","","","<div style='text-align: center;'>
                            <span style=""color: red; font-size: 40px""><b>错误！+0 pts</b></span></div>
                            ","","learn","2","2","2","learn","2","2","[0, 1, 2]","4","1","setsize","99","prac","0","0","1","0",""
"null","null","fixation","html-keyboard-response","112","229912","0.0-1.0-4.4-3.4-0.29","06:31:32","6","","","","","","","fixation","","","","","","","","","","","","","","","","","","",""
"427","1","pic_response","html-keyboard-response","113","230340","0.0-1.0-4.4-3.4-1.29","06:31:32","6","","","","","","","<div>
            <img class='stim' src=""pictures/prac/0.jpg""></div><div class=""button_prompt"">
                        <b>请用数字键1-3回答</b>
                        </div>","","","","","","","","","","","","","","","","","","",""
"427","null","sub_response","html-keyboard-response","114","231348","0.0-1.0-4.4-3.4-2.29","06:31:32","6","","","","","","","<div style='text-align: center;'>
                            <span style=""color: green; font-size: 40px""><b>正确！+1 pts</b></span></div>
                            ","","learn","0","0","0","learn","0","0","[0, 1, 2]","5","1","setsize","99","prac","0","1","0","1",""
"","","","preload","115","231350","0.0-1.0-4.5-0.5","06:31:32","6","true","false","[]","[]","[]","","","","","","","","","","","","","","","","","","","","",""
"526"," ","","html-keyboard-response","116","231877","0.0-1.0-4.5-1.5","06:31:32","6","","","","","","","<div style='font-size: 32px; text-align: center;'
                    <p>请学习图片和数字之间的对应关系</p>
                    <p>我们将<span style='color: blue'><b> 告诉 </b></span>您选择的对错。请根据反馈学习。</p>
                    <p>请按""空格""继续实验。</p></div>","","","","","","","","","","","","","","","","","","",""
"1360"," ","inst","html-keyboard-response","117","233237","0.0-1.0-4.5-2.5","06:31:32","6","","","","","","","<img class='instruct_stim' src=""instruction/prac3.PNG""></div>","","","","","","","","","","","","","","","","","","",""
"null","null","fixation","html-keyboard-response","118","233739","0.0-1.0-4.5-3.5-0.30","06:31:32","6","","","","","","","fixation","","","","","","","","","","","","","","","","","","",""
"916","1","pic_response","html-keyboard-response","119","234655","0.0-1.0-4.5-3.5-1.30","06:31:32","6","","","","","","","<div>
            <img class='stim' src=""pictures/prac/2.jpg""></div><div class=""button_prompt"">
                        <b>请用数字键1-3回答</b>
                        </div>","","","","","","","","","","","","","","","","","","",""
"916","null","sub_response","html-keyboard-response","120","235660","0.0-1.0-4.5-3.5-2.30","06:31:32","6","","","","","","","<div style='text-align: center;'>
                            <span style=""color: red; font-size: 40px""><b>错误！+0 pts</b></span></div>
                            ","","learn","2","2","2","learn","2","2","[0, 1, 2]","0","0","setsize","99","prac","0","0","0","0",""
"null","null","fixation","html-keyboard-response","121","236169","0.0-1.0-4.5-3.5-0.31","06:31:32","6","","","","","","","fixation","","","","","","","","","","","","","","","","","","",""
"366","1","pic_response","html-keyboard-response","122","236535","0.0-1.0-4.5-3.5-1.31","06:31:32","6","","","","","","","<div>
            <img class='stim' src=""pictures/prac/0.jpg""></div><div class=""button_prompt"">
                        <b>请用数字键1-3回答</b>
                        </div>","","","","","","","","","","","","","","","","","","",""
"366","null","sub_response","html-keyboard-response","123","237546","0.0-1.0-4.5-3.5-2.31","06:31:32","6","","","","","","","<div style='text-align: center;'>
                            <span style=""color: green; font-size: 40px""><b>正确！+1 pts</b></span></div>
                            ","","learn","0","0","0","learn","0","0","[0, 1, 2]","1","0","setsize","99","prac","0","1","0","1",""
"null","null","fixation","html-keyboard-response","124","238061","0.0-1.0-4.5-3.5-0.32","06:31:32","6","","","","","","","fixation","","","","","","","","","","","","","","","","","","",""
"370","1","pic_response","html-keyboard-response","125","238432","0.0-1.0-4.5-3.5-1.32","06:31:32","6","","","","","","","<div>
            <img class='stim' src=""pictures/prac/1.jpg""></div><div class=""button_prompt"">
                        <b>请用数字键1-3回答</b>
                        </div>","","","","","","","","","","","","","","","","","","",""
"370","null","sub_response","html-keyboard-response","126","239439","0.0-1.0-4.5-3.5-2.32","06:31:32","6","","","","","","","<div style='text-align: center;'>
                            <span style=""color: green; font-size: 40px""><b>正确！+1 pts</b></span></div>
                            ","","learn","1","1","1","learn","0","0","[0, 1, 2]","2","0","setsize","99","prac","0","2","0","1",""
"null","null","fixation","html-keyboard-response","127","239947","0.0-1.0-4.5-3.5-0.33","06:31:32","6","","","","","","","fixation","","","","","","","","","","","","","","","","","","",""
"757","1","pic_response","html-keyboard-response","128","240705","0.0-1.0-4.5-3.5-1.33","06:31:32","6","","","","","","","<div>
            <img class='stim' src=""pictures/prac/1.jpg""></div><div class=""button_prompt"">
                        <b>请用数字键1-3回答</b>
                        </div>","","","","","","","","","","","","","","","","","","",""
"757","null","sub_response","html-keyboard-response","129","241719","0.0-1.0-4.5-3.5-2.33","06:31:32","6","","","","","","","<div style='text-align: center;'>
                            <span style=""color: green; font-size: 40px""><b>正确！+1 pts</b></span></div>
                            ","","learn","1","1","1","learn","0","0","[0, 1, 2]","3","1","setsize","99","prac","0","3","0","1",""
"null","null","fixation","html-keyboard-response","130","242224","0.0-1.0-4.5-3.5-0.34","06:31:32","6","","","","","","","fixation","","","","","","","","","","","","","","","","","","",""
"843","3","pic_response","html-keyboard-response","131","243067","0.0-1.0-4.5-3.5-1.34","06:31:32","6","","","","","","","<div>
            <img class='stim' src=""pictures/prac/2.jpg""></div><div class=""button_prompt"">
                        <b>请用数字键1-3回答</b>
                        </div>","","","","","","","","","","","","","","","","","","",""
"843","null","sub_response","html-keyboard-response","132","244071","0.0-1.0-4.5-3.5-2.34","06:31:32","6","","","","","","","<div style='text-align: center;'>
                            <span style=""color: green; font-size: 40px""><b>正确！+1 pts</b></span></div>
                            ","","learn","2","2","2","learn","2","2","[0, 1, 2]","4","1","setsize","99","prac","0","4","2","1",""
"null","null","fixation","html-keyboard-response","133","244578","0.0-1.0-4.5-3.5-0.35","06:31:32","6","","","","","","","fixation","","","","","","","","","","","","","","","","","","",""
"555","1","pic_response","html-keyboard-response","134","245133","0.0-1.0-4.5-3.5-1.35","06:31:32","6","","","","","","","<div>
            <img class='stim' src=""pictures/prac/0.jpg""></div><div class=""button_prompt"">
                        <b>请用数字键1-3回答</b>
                        </div>","","","","","","","","","","","","","","","","","","",""
"555","null","sub_response","html-keyboard-response","135","246135","0.0-1.0-4.5-3.5-2.35","06:31:32","6","","","","","","","<div style='text-align: center;'>
                            <span style=""color: green; font-size: 40px""><b>正确！+1 pts</b></span></div>
                            ","","learn","0","0","0","learn","0","0","[0, 1, 2]","5","1","setsize","99","prac","0","5","0","1",""
"22211"," ","","html-keyboard-response","136","268347","0.0-1.0-5.0","06:31:32","6","","","","","","","<div style=""font-size: 25px""><p>距下一个实验开始还有</p><div style=""font-size: 50px; color: blue""><p><span id=""clock"">1:00</span></div></p><p>按""空格""跳过休息</p></div>","","","","","","","","","","","","","","","","","","",""
"634"," ","","html-keyboard-response","137","268982","0.0-1.0-6.0","06:31:32","6","","","","","","","<div style='font-size: 32px; text-align: center;'
                    <p>请按""空格""继续正式实验。</p></div>","","","","","","","","","","","","","","","","","","",""
"","","","preload","138","269334","0.0-1.0-7.0-0.0","06:31:32","6","true","false","[]","[]","[]","","","","","","","","","","","","","","","","","","","","",""
"1594"," ","","html-keyboard-response","139","270929","0.0-1.0-7.0-1.0","06:31:32","6","","","","","","","<div style='font-size: 32px; text-align: center;'
                    <p>请学习图片和数字之间的对应关系</p>
                    <p>我们将<span style='color: blue'><b> 告诉 </b></span>您选择的对错。请根据反馈学习。</p>
                    <p>请按""空格""继续实验。</p></div>","","","","","","","","","","","","","","","","","","",""
"2017"," ","inst","html-keyboard-response","140","272947","0.0-1.0-7.0-2.0","06:31:32","6","","","","","","","<img class='instruct_stim' src=""instruction/food3.PNG""></div>","","","","","","","","","","","","","","","","","","",""
"null","null","fixation","html-keyboard-response","141","273455","0.0-1.0-7.0-3.0-0.0","06:31:32","6","","","","","","","fixation","","","","","","","","","","","","","","","","","","",""
"1207","4","pic_response","html-keyboard-response","142","274663","0.0-1.0-7.0-3.0-1.0","06:31:32","6","","","","","","","<div>
            <img class='stim' src=""pictures/food/1.jpg""></div><div class=""button_prompt"">
                    <b>请用数字键0-9回答</b>
                    </div>","","","","","","","","","","","","","","","","","","",""
"1207","null","sub_response","html-keyboard-response","143","275669","0.0-1.0-7.0-3.0-2.0","06:31:32","6","","","","","","","<div style='text-align: center;'>
                            <span style=""color: red; font-size: 40px""><b>错误！+0 pts</b></span></div>
                            ","","learn","1","1","1","learn","6","6","[0, 1, 2, 3, 4, 5, 6, 7, 8, 9]","0","0","setsize","3S10A","food","1","0","3","0",""
"null","null","fixation","html-keyboard-response","144","276172","0.0-1.0-7.0-3.0-0.1","06:31:32","6","","","","","","","fixation","","","","","","","","","","","","","","","","","","",""
"1189","3","pic_response","html-keyboard-response","145","277361","0.0-1.0-7.0-3.0-1.1","06:31:32","6","","","","","","","<div>
            <img class='stim' src=""pictures/food/0.jpg""></div><div class=""button_prompt"">
                    <b>请用数字键0-9回答</b>
                    </div>","","","","","","","","","","","","","","","","","","",""
"1189","null","sub_response","html-keyboard-response","146","278365","0.0-1.0-7.0-3.0-2.1","06:31:32","6","","","","","","","<div style='text-align: center;'>
                            <span style=""color: green; font-size: 40px""><b>正确！+1 pts</b></span></div>
                            ","","learn","0","0","0","learn","2","2","[0, 1, 2, 3, 4, 5, 6, 7, 8, 9]","1","0","setsize","3S10A","food","1","1","2","1",""
"null","null","fixation","html-keyboard-response","147","278871","0.0-1.0-7.0-3.0-0.2","06:31:32","6","","","","","","","fixation","","","","","","","","","","","","","","","","","","",""
"988","6","pic_response","html-keyboard-response","148","279860","0.0-1.0-7.0-3.0-1.2","06:31:32","6","","","","","","","<div>
            <img class='stim' src=""pictures/food/2.jpg""></div><div class=""button_prompt"">
                    <b>请用数字键0-9回答</b>
                    </div>","","","","","","","","","","","","","","","","","","",""
"988","null","sub_response","html-keyboard-response","149","280862","0.0-1.0-7.0-3.0-2.2","06:31:32","6","","","","","","","<div style='text-align: center;'>
                            <span style=""color: red; font-size: 40px""><b>错误！+0 pts</b></span></div>
                            ","","learn","2","2","2","learn","9","9","[0, 1, 2, 3, 4, 5, 6, 7, 8, 9]","2","0","setsize","3S10A","food","1","0","5","0",""
"null","null","fixation","html-keyboard-response","150","281372","0.0-1.0-7.0-3.0-0.3","06:31:32","6","","","","","","","fixation","","","","","","","","","","","","","","","","","","",""
"584","3","pic_response","html-keyboard-response","151","281957","0.0-1.0-7.0-3.0-1.3","06:31:32","6","","","","","","","<div>
            <img class='stim' src=""pictures/food/0.jpg""></div><div class=""button_prompt"">
                    <b>请用数字键0-9回答</b>
                    </div>","","","","","","","","","","","","","","","","","","",""
"584","null","sub_response","html-keyboard-response","152","282964","0.0-1.0-7.0-3.0-2.3","06:31:32","6","","","","","","","<div style='text-align: center;'>
                            <span style=""color: green; font-size: 40px""><b>正确！+1 pts</b></span></div>
                            ","","learn","0","0","0","learn","2","2","[0, 1, 2, 3, 4, 5, 6, 7, 8, 9]","3","1","setsize","3S10A","food","1","1","2","1",""
"null","null","fixation","html-keyboard-response","153","283476","0.0-1.0-7.0-3.0-0.4","06:31:32","6","","","","","","","fixation","","","","","","","","","","","","","","","","","","",""
"952","7","pic_response","html-keyboard-response","154","284429","0.0-1.0-7.0-3.0-1.4","06:31:32","6","","","","","","","<div>
            <img class='stim' src=""pictures/food/2.jpg""></div><div class=""button_prompt"">
                    <b>请用数字键0-9回答</b>
                    </div>","","","","","","","","","","","","","","","","","","",""
"952","null","sub_response","html-keyboard-response","155","285430","0.0-1.0-7.0-3.0-2.4","06:31:32","6","","","","","","","<div style='text-align: center;'>
                            <span style=""color: red; font-size: 40px""><b>错误！+0 pts</b></span></div>
                            ","","learn","2","2","2","learn","9","9","[0, 1, 2, 3, 4, 5, 6, 7, 8, 9]","4","1","setsize","3S10A","food","1","0","6","0",""
"null","null","fixation","html-keyboard-response","156","285933","0.0-1.0-7.0-3.0-0.5","06:31:32","6","","","","","","","fixation","","","","","","","","","","","","","","","","","","",""
"1360","6","pic_response","html-keyboard-response","157","287294","0.0-1.0-7.0-3.0-1.5","06:31:32","6","","","","","","","<div>
            <img class='stim' src=""pictures/food/1.jpg""></div><div class=""button_prompt"">
                    <b>请用数字键0-9回答</b>
                    </div>","","","","","","","","","","","","","","","","","","",""
"1360","null","sub_response","html-keyboard-response","158","288297","0.0-1.0-7.0-3.0-2.5","06:31:32","6","","","","","","","<div style='text-align: center;'>
                            <span style=""color: red; font-size: 40px""><b>错误！+0 pts</b></span></div>
                            ","","learn","1","1","1","learn","6","6","[0, 1, 2, 3, 4, 5, 6, 7, 8, 9]","5","1","setsize","3S10A","food","1","0","5","0",""
"null","null","fixation","html-keyboard-response","159","288803","0.0-1.0-7.0-3.0-0.6","06:31:32","6","","","","","","","fixation","","","","","","","","","","","","","","","","","","",""
"1344","8","pic_response","html-keyboard-response","160","290147","0.0-1.0-7.0-3.0-1.6","06:31:32","6","","","","","","","<div>
            <img class='stim' src=""pictures/food/1.jpg""></div><div class=""button_prompt"">
                    <b>请用数字键0-9回答</b>
                    </div>","","","","","","","","","","","","","","","","","","",""
"1344","null","sub_response","html-keyboard-response","161","291153","0.0-1.0-7.0-3.0-2.6","06:31:32","6","","","","","","","<div style='text-align: center;'>
                            <span style=""color: red; font-size: 40px""><b>错误！+0 pts</b></span></div>
                            ","","learn","1","1","1","learn","6","6","[0, 1, 2, 3, 4, 5, 6, 7, 8, 9]","6","2","setsize","3S10A","food","1","0","7","0",""
"null","null","fixation","html-keyboard-response","162","291664","0.0-1.0-7.0-3.0-0.7","06:31:32","6","","","","","","","fixation","","","","","","","","","","","","","","","","","","",""
"628","3","pic_response","html-keyboard-response","163","292293","0.0-1.0-7.0-3.0-1.7","06:31:32","6","","","","","","","<div>
            <img class='stim' src=""pictures/food/0.jpg""></div><div class=""button_prompt"">
                    <b>请用数字键0-9回答</b>
                    </div>","","","","","","","","","","","","","","","","","","",""
"628","null","sub_response","html-keyboard-response","164","293295","0.0-1.0-7.0-3.0-2.7","06:31:32","6","","","","","","","<div style='text-align: center;'>
                            <span style=""color: green; font-size: 40px""><b>正确！+1 pts</b></span></div>
                            ","","learn","0","0","0","learn","2","2","[0, 1, 2, 3, 4, 5, 6, 7, 8, 9]","7","2","setsize","3S10A","food","1","1","2","1",""
"null","null","fixation","html-keyboard-response","165","293797","0.0-1.0-7.0-3.0-0.8","06:31:32","6","","","","","","","fixation","","","","","","","","","","","","","","","","","","",""
"607","2","pic_response","html-keyboard-response","166","294406","0.0-1.0-7.0-3.0-1.8","06:31:32","6","","","","","","","<div>
            <img class='stim' src=""pictures/food/2.jpg""></div><div class=""button_prompt"">
                    <b>请用数字键0-9回答</b>
                    </div>","","","","","","","","","","","","","","","","","","",""
"607","null","sub_response","html-keyboard-response","167","295418","0.0-1.0-7.0-3.0-2.8","06:31:32","6","","","","","","","<div style='text-align: center;'>
                            <span style=""color: red; font-size: 40px""><b>错误！+0 pts</b></span></div>
                            ","","learn","2","2","2","learn","9","9","[0, 1, 2, 3, 4, 5, 6, 7, 8, 9]","8","2","setsize","3S10A","food","1","0","1","0",""
"null","null","fixation","html-keyboard-response","168","295936","0.0-1.0-7.0-3.0-0.9","06:31:32","6","","","","","","","fixation","","","","","","","","","","","","","","","","","","",""
"905","3","pic_response","html-keyboard-response","169","296842","0.0-1.0-7.0-3.0-1.9","06:31:32","6","","","","","","","<div>
            <img class='stim' src=""pictures/food/0.jpg""></div><div class=""button_prompt"">
                    <b>请用数字键0-9回答</b>
                    </div>","","","","","","","","","","","","","","","","","","",""
"905","null","sub_response","html-keyboard-response","170","297846","0.0-1.0-7.0-3.0-2.9","06:31:32","6","","","","","","","<div style='text-align: center;'>
                            <span style=""color: green; font-size: 40px""><b>正确！+1 pts</b></span></div>
                            ","","learn","0","0","0","learn","2","2","[0, 1, 2, 3, 4, 5, 6, 7, 8, 9]","9","3","setsize","3S10A","food","1","1","2","1",""
"null","null","fixation","html-keyboard-response","171","298355","0.0-1.0-7.0-3.0-0.10","06:31:32","6","","","","","","","fixation","","","","","","","","","","","","","","","","","","",""
"594","1","pic_response","html-keyboard-response","172","298950","0.0-1.0-7.0-3.0-1.10","06:31:32","6","","","","","","","<div>
            <img class='stim' src=""pictures/food/2.jpg""></div><div class=""button_prompt"">
                    <b>请用数字键0-9回答</b>
                    </div>","","","","","","","","","","","","","","","","","","",""
"594","null","sub_response","html-keyboard-response","173","299953","0.0-1.0-7.0-3.0-2.10","06:31:32","6","","","","","","","<div style='text-align: center;'>
                            <span style=""color: red; font-size: 40px""><b>错误！+0 pts</b></span></div>
                            ","","learn","2","2","2","learn","9","9","[0, 1, 2, 3, 4, 5, 6, 7, 8, 9]","10","3","setsize","3S10A","food","1","0","0","0",""
"null","null","fixation","html-keyboard-response","174","300459","0.0-1.0-7.0-3.0-0.11","06:31:32","6","","","","","","","fixation","","","","","","","","","","","","","","","","","","",""
"1386","3","pic_response","html-keyboard-response","175","301846","0.0-1.0-7.0-3.0-1.11","06:31:32","6","","","","","","","<div>
            <img class='stim' src=""pictures/food/1.jpg""></div><div class=""button_prompt"">
                    <b>请用数字键0-9回答</b>
                    </div>","","","","","","","","","","","","","","","","","","",""
"1386","null","sub_response","html-keyboard-response","176","302852","0.0-1.0-7.0-3.0-2.11","06:31:32","6","","","","","","","<div style='text-align: center;'>
                            <span style=""color: red; font-size: 40px""><b>错误！+0 pts</b></span></div>
                            ","","learn","1","1","1","learn","6","6","[0, 1, 2, 3, 4, 5, 6, 7, 8, 9]","11","3","setsize","3S10A","food","1","0","2","0",""
"null","null","fixation","html-keyboard-response","177","303361","0.0-1.0-7.0-3.0-0.12","06:31:32","6","","","","","","","fixation","","","","","","","","","","","","","","","","","","",""
"371","3","pic_response","html-keyboard-response","178","303732","0.0-1.0-7.0-3.0-1.12","06:31:32","6","","","","","","","<div>
            <img class='stim' src=""pictures/food/0.jpg""></div><div class=""button_prompt"">
                    <b>请用数字键0-9回答</b>
                    </div>","","","","","","","","","","","","","","","","","","",""
"371","null","sub_response","html-keyboard-response","179","304748","0.0-1.0-7.0-3.0-2.12","06:31:32","6","","","","","","","<div style='text-align: center;'>
                            <span style=""color: green; font-size: 40px""><b>正确！+1 pts</b></span></div>
                            ","","learn","0","0","0","learn","2","2","[0, 1, 2, 3, 4, 5, 6, 7, 8, 9]","12","4","setsize","3S10A","food","1","1","2","1",""
"null","null","fixation","html-keyboard-response","180","305252","0.0-1.0-7.0-3.0-0.13","06:31:32","6","","","","","","","fixation","","","","","","","","","","","","","","","","","","",""
"1538","3","pic_response","html-keyboard-response","181","306790","0.0-1.0-7.0-3.0-1.13","06:31:32","6","","","","","","","<div>
            <img class='stim' src=""pictures/food/2.jpg""></div><div class=""button_prompt"">
                    <b>请用数字键0-9回答</b>
                    </div>","","","","","","","","","","","","","","","","","","",""
"1538","null","sub_response","html-keyboard-response","182","307793","0.0-1.0-7.0-3.0-2.13","06:31:32","6","","","","","","","<div style='text-align: center;'>
                            <span style=""color: red; font-size: 40px""><b>错误！+0 pts</b></span></div>
                            ","","learn","2","2","2","learn","9","9","[0, 1, 2, 3, 4, 5, 6, 7, 8, 9]","13","4","setsize","3S10A","food","1","0","2","0",""
"null","null","fixation","html-keyboard-response","183","308305","0.0-1.0-7.0-3.0-0.14","06:31:32","6","","","","","","","fixation","","","","","","","","","","","","","","","","","","",""
"897","4","pic_response","html-keyboard-response","184","309202","0.0-1.0-7.0-3.0-1.14","06:31:32","6","","","","","","","<div>
            <img class='stim' src=""pictures/food/1.jpg""></div><div class=""button_prompt"">
                    <b>请用数字键0-9回答</b>
                    </div>","","","","","","","","","","","","","","","","","","",""
"897","null","sub_response","html-keyboard-response","185","310205","0.0-1.0-7.0-3.0-2.14","06:31:32","6","","","","","","","<div style='text-align: center;'>
                            <span style=""color: red; font-size: 40px""><b>错误！+0 pts</b></span></div>
                            ","","learn","1","1","1","learn","6","6","[0, 1, 2, 3, 4, 5, 6, 7, 8, 9]","14","4","setsize","3S10A","food","1","0","3","0",""
"null","null","fixation","html-keyboard-response","186","310711","0.0-1.0-7.0-3.0-0.15","06:31:32","6","","","","","","","fixation","","","","","","","","","","","","","","","","","","",""
"1479","4","pic_response","html-keyboard-response","187","312190","0.0-1.0-7.0-3.0-1.15","06:31:32","6","","","","","","","<div>
            <img class='stim' src=""pictures/food/2.jpg""></div><div class=""button_prompt"">
                    <b>请用数字键0-9回答</b>
                    </div>","","","","","","","","","","","","","","","","","","",""
"1479","null","sub_response","html-keyboard-response","188","313199","0.0-1.0-7.0-3.0-2.15","06:31:32","6","","","","","","","<div style='text-align: center;'>
                            <span style=""color: red; font-size: 40px""><b>错误！+0 pts</b></span></div>
                            ","","learn","2","2","2","learn","9","9","[0, 1, 2, 3, 4, 5, 6, 7, 8, 9]","15","5","setsize","3S10A","food","1","0","3","0",""
"null","null","fixation","html-keyboard-response","189","313707","0.0-1.0-7.0-3.0-0.16","06:31:32","6","","","","","","","fixation","","","","","","","","","","","","","","","","","","",""
"989","5","pic_response","html-keyboard-response","190","314697","0.0-1.0-7.0-3.0-1.16","06:31:32","6","","","","","","","<div>
            <img class='stim' src=""pictures/food/1.jpg""></div><div class=""button_prompt"">
                    <b>请用数字键0-9回答</b>
                    </div>","","","","","","","","","","","","","","","","","","",""
"989","null","sub_response","html-keyboard-response","191","315706","0.0-1.0-7.0-3.0-2.16","06:31:32","6","","","","","","","<div style='text-align: center;'>
                            <span style=""color: red; font-size: 40px""><b>错误！+0 pts</b></span></div>
                            ","","learn","1","1","1","learn","6","6","[0, 1, 2, 3, 4, 5, 6, 7, 8, 9]","16","5","setsize","3S10A","food","1","0","4","0",""
"null","null","fixation","html-keyboard-response","192","316212","0.0-1.0-7.0-3.0-0.17","06:31:32","6","","","","","","","fixation","","","","","","","","","","","","","","","","","","",""
"483","3","pic_response","html-keyboard-response","193","316695","0.0-1.0-7.0-3.0-1.17","06:31:32","6","","","","","","","<div>
            <img class='stim' src=""pictures/food/0.jpg""></div><div class=""button_prompt"">
                    <b>请用数字键0-9回答</b>
                    </div>","","","","","","","","","","","","","","","","","","",""
"483","null","sub_response","html-keyboard-response","194","317699","0.0-1.0-7.0-3.0-2.17","06:31:32","6","","","","","","","<div style='text-align: center;'>
                            <span style=""color: green; font-size: 40px""><b>正确！+1 pts</b></span></div>
                            ","","learn","0","0","0","learn","2","2","[0, 1, 2, 3, 4, 5, 6, 7, 8, 9]","17","5","setsize","3S10A","food","1","1","2","1",""
"null","null","fixation","html-keyboard-response","195","318211","0.0-1.0-7.0-3.0-0.18","06:31:32","6","","","","","","","fixation","","","","","","","","","","","","","","","","","","",""
"1055","7","pic_response","html-keyboard-response","196","319267","0.0-1.0-7.0-3.0-1.18","06:31:32","6","","","","","","","<div>
            <img class='stim' src=""pictures/food/2.jpg""></div><div class=""button_prompt"">
                    <b>请用数字键0-9回答</b>
                    </div>","","","","","","","","","","","","","","","","","","",""
"1055","null","sub_response","html-keyboard-response","197","320276","0.0-1.0-7.0-3.0-2.18","06:31:32","6","","","","","","","<div style='text-align: center;'>
                            <span style=""color: red; font-size: 40px""><b>错误！+0 pts</b></span></div>
                            ","","learn","2","2","2","learn","9","9","[0, 1, 2, 3, 4, 5, 6, 7, 8, 9]","18","6","setsize","3S10A","food","1","0","6","0",""
"null","null","fixation","html-keyboard-response","198","320778","0.0-1.0-7.0-3.0-0.19","06:31:32","6","","","","","","","fixation","","","","","","","","","","","","","","","","","","",""
"1199","5","pic_response","html-keyboard-response","199","321978","0.0-1.0-7.0-3.0-1.19","06:31:32","6","","","","","","","<div>
            <img class='stim' src=""pictures/food/1.jpg""></div><div class=""button_prompt"">
                    <b>请用数字键0-9回答</b>
                    </div>","","","","","","","","","","","","","","","","","","",""
"1199","null","sub_response","html-keyboard-response","200","322983","0.0-1.0-7.0-3.0-2.19","06:31:32","6","","","","","","","<div style='text-align: center;'>
                            <span style=""color: red; font-size: 40px""><b>错误！+0 pts</b></span></div>
                            ","","learn","1","1","1","learn","6","6","[0, 1, 2, 3, 4, 5, 6, 7, 8, 9]","19","6","setsize","3S10A","food","1","0","4","0",""
"null","null","fixation","html-keyboard-response","201","323497","0.0-1.0-7.0-3.0-0.20","06:31:32","6","","","","","","","fixation","","","","","","","","","","","","","","","","","","",""
"403","3","pic_response","html-keyboard-response","202","323901","0.0-1.0-7.0-3.0-1.20","06:31:32","6","","","","","","","<div>
            <img class='stim' src=""pictures/food/0.jpg""></div><div class=""button_prompt"">
                    <b>请用数字键0-9回答</b>
                    </div>","","","","","","","","","","","","","","","","","","",""
"403","null","sub_response","html-keyboard-response","203","324908","0.0-1.0-7.0-3.0-2.20","06:31:32","6","","","","","","","<div style='text-align: center;'>
                            <span style=""color: green; font-size: 40px""><b>正确！+1 pts</b></span></div>
                            ","","learn","0","0","0","learn","2","2","[0, 1, 2, 3, 4, 5, 6, 7, 8, 9]","20","6","setsize","3S10A","food","1","1","2","1",""
"null","null","fixation","html-keyboard-response","204","325418","0.0-1.0-7.0-3.0-0.21","06:31:32","6","","","","","","","fixation","","","","","","","","","","","","","","","","","","",""
"567","3","pic_response","html-keyboard-response","205","325986","0.0-1.0-7.0-3.0-1.21","06:31:32","6","","","","","","","<div>
            <img class='stim' src=""pictures/food/0.jpg""></div><div class=""button_prompt"">
                    <b>请用数字键0-9回答</b>
                    </div>","","","","","","","","","","","","","","","","","","",""
"567","null","sub_response","html-keyboard-response","206","326995","0.0-1.0-7.0-3.0-2.21","06:31:32","6","","","","","","","<div style='text-align: center;'>
                            <span style=""color: green; font-size: 40px""><b>正确！+1 pts</b></span></div>
                            ","","learn","0","0","0","learn","2","2","[0, 1, 2, 3, 4, 5, 6, 7, 8, 9]","21","7","setsize","3S10A","food","1","2","2","1",""
"null","null","fixation","html-keyboard-response","207","327499","0.0-1.0-7.0-3.0-0.22","06:31:32","6","","","","","","","fixation","","","","","","","","","","","","","","","","","","",""
"491","6","pic_response","html-keyboard-response","208","327991","0.0-1.0-7.0-3.0-1.22","06:31:32","6","","","","","","","<div>
            <img class='stim' src=""pictures/food/1.jpg""></div><div class=""button_prompt"">
                    <b>请用数字键0-9回答</b>
                    </div>","","","","","","","","","","","","","","","","","","",""
"491","null","sub_response","html-keyboard-response","209","328999","0.0-1.0-7.0-3.0-2.22","06:31:32","6","","","","","","","<div style='text-align: center;'>
                            <span style=""color: red; font-size: 40px""><b>错误！+0 pts</b></span></div>
                            ","","learn","1","1","1","learn","6","6","[0, 1, 2, 3, 4, 5, 6, 7, 8, 9]","22","7","setsize","3S10A","food","1","0","5","0",""
"null","null","fixation","html-keyboard-response","210","329505","0.0-1.0-7.0-3.0-0.23","06:31:32","6","","","","","","","fixation","","","","","","","","","","","","","","","","","","",""
"560","9","pic_response","html-keyboard-response","211","330066","0.0-1.0-7.0-3.0-1.23","06:31:32","6","","","","","","","<div>
            <img class='stim' src=""pictures/food/2.jpg""></div><div class=""button_prompt"">
                    <b>请用数字键0-9回答</b>
                    </div>","","","","","","","","","","","","","","","","","","",""
"560","null","sub_response","html-keyboard-response","212","331075","0.0-1.0-7.0-3.0-2.23","06:31:32","6","","","","","","","<div style='text-align: center;'>
                            <span style=""color: red; font-size: 40px""><b>错误！+0 pts</b></span></div>
                            ","","learn","2","2","2","learn","9","9","[0, 1, 2, 3, 4, 5, 6, 7, 8, 9]","23","7","setsize","3S10A","food","1","0","8","0",""
"null","null","fixation","html-keyboard-response","213","331578","0.0-1.0-7.0-3.0-0.24","06:31:32","6","","","","","","","fixation","","","","","","","","","","","","","","","","","","",""
"2018","8","pic_response","html-keyboard-response","214","333596","0.0-1.0-7.0-3.0-1.24","06:31:32","6","","","","","","","<div>
            <img class='stim' src=""pictures/food/1.jpg""></div><div class=""button_prompt"">
                    <b>请用数字键0-9回答</b>
                    </div>","","","","","","","","","","","","","","","","","","",""
"2018","null","sub_response","html-keyboard-response","215","334610","0.0-1.0-7.0-3.0-2.24","06:31:32","6","","","","","","","<div style='text-align: center;'>
                            <span style=""color: red; font-size: 40px""><b>错误！+0 pts</b></span></div>
                            ","","learn","1","1","1","learn","6","6","[0, 1, 2, 3, 4, 5, 6, 7, 8, 9]","24","8","setsize","3S10A","food","1","0","7","0",""
"null","null","fixation","html-keyboard-response","216","335118","0.0-1.0-7.0-3.0-0.25","06:31:32","6","","","","","","","fixation","","","","","","","","","","","","","","","","","","",""
"1011","9","pic_response","html-keyboard-response","217","336130","0.0-1.0-7.0-3.0-1.25","06:31:32","6","","","","","","","<div>
            <img class='stim' src=""pictures/food/2.jpg""></div><div class=""button_prompt"">
                    <b>请用数字键0-9回答</b>
                    </div>","","","","","","","","","","","","","","","","","","",""
"1011","null","sub_response","html-keyboard-response","218","337138","0.0-1.0-7.0-3.0-2.25","06:31:32","6","","","","","","","<div style='text-align: center;'>
                            <span style=""color: red; font-size: 40px""><b>错误！+0 pts</b></span></div>
                            ","","learn","2","2","2","learn","9","9","[0, 1, 2, 3, 4, 5, 6, 7, 8, 9]","25","8","setsize","3S10A","food","1","0","8","0",""
"null","null","fixation","html-keyboard-response","219","337642","0.0-1.0-7.0-3.0-0.26","06:31:32","6","","","","","","","fixation","","","","","","","","","","","","","","","","","","",""
"583","3","pic_response","html-keyboard-response","220","338226","0.0-1.0-7.0-3.0-1.26","06:31:32","6","","","","","","","<div>
            <img class='stim' src=""pictures/food/0.jpg""></div><div class=""button_prompt"">
                    <b>请用数字键0-9回答</b>
                    </div>","","","","","","","","","","","","","","","","","","",""
"583","null","sub_response","html-keyboard-response","221","339236","0.0-1.0-7.0-3.0-2.26","06:31:32","6","","","","","","","<div style='text-align: center;'>
                            <span style=""color: green; font-size: 40px""><b>正确！+1 pts</b></span></div>
                            ","","learn","0","0","0","learn","2","2","[0, 1, 2, 3, 4, 5, 6, 7, 8, 9]","26","8","setsize","3S10A","food","1","1","2","1",""
"null","null","fixation","html-keyboard-response","222","339740","0.0-1.0-7.0-3.0-0.27","06:31:32","6","","","","","","","fixation","","","","","","","","","","","","","","","","","","",""
"1037","1","pic_response","html-keyboard-response","223","340777","0.0-1.0-7.0-3.0-1.27","06:31:32","6","","","","","","","<div>
            <img class='stim' src=""pictures/food/1.jpg""></div><div class=""button_prompt"">
                    <b>请用数字键0-9回答</b>
                    </div>","","","","","","","","","","","","","","","","","","",""
"1037","null","sub_response","html-keyboard-response","224","341793","0.0-1.0-7.0-3.0-2.27","06:31:32","6","","","","","","","<div style='text-align: center;'>
                            <span style=""color: red; font-size: 40px""><b>错误！+0 pts</b></span></div>
                            ","","learn","1","1","1","learn","6","6","[0, 1, 2, 3, 4, 5, 6, 7, 8, 9]","27","9","setsize","3S10A","food","1","0","0","0",""
"null","null","fixation","html-keyboard-response","225","342303","0.0-1.0-7.0-3.0-0.28","06:31:32","6","","","","","","","fixation","","","","","","","","","","","","","","","","","","",""
"473","1","pic_response","html-keyboard-response","226","342777","0.0-1.0-7.0-3.0-1.28","06:31:32","6","","","","","","","<div>
            <img class='stim' src=""pictures/food/2.jpg""></div><div class=""button_prompt"">
                    <b>请用数字键0-9回答</b>
                    </div>","","","","","","","","","","","","","","","","","","",""
"473","null","sub_response","html-keyboard-response","227","343793","0.0-1.0-7.0-3.0-2.28","06:31:32","6","","","","","","","<div style='text-align: center;'>
                            <span style=""color: red; font-size: 40px""><b>错误！+0 pts</b></span></div>
                            ","","learn","2","2","2","learn","9","9","[0, 1, 2, 3, 4, 5, 6, 7, 8, 9]","28","9","setsize","3S10A","food","1","0","0","0",""
"null","null","fixation","html-keyboard-response","228","344302","0.0-1.0-7.0-3.0-0.29","06:31:32","6","","","","","","","fixation","","","","","","","","","","","","","","","","","","",""
"652","3","pic_response","html-keyboard-response","229","344954","0.0-1.0-7.0-3.0-1.29","06:31:32","6","","","","","","","<div>
            <img class='stim' src=""pictures/food/0.jpg""></div><div class=""button_prompt"">
                    <b>请用数字键0-9回答</b>
                    </div>","","","","","","","","","","","","","","","","","","",""
"652","null","sub_response","html-keyboard-response","230","345963","0.0-1.0-7.0-3.0-2.29","06:31:32","6","","","","","","","<div style='text-align: center;'>
                            <span style=""color: green; font-size: 40px""><b>正确！+1 pts</b></span></div>
                            ","","learn","0","0","0","learn","2","2","[0, 1, 2, 3, 4, 5, 6, 7, 8, 9]","29","9","setsize","3S10A","food","1","1","2","1",""
"null","null","fixation","html-keyboard-response","231","346467","0.0-1.0-7.0-3.0-0.30","06:31:32","6","","","","","","","fixation","","","","","","","","","","","","","","","","","","",""
"1199","5","pic_response","html-keyboard-response","232","347667","0.0-1.0-7.0-3.0-1.30","06:31:32","6","","","","","","","<div>
            <img class='stim' src=""pictures/food/1.jpg""></div><div class=""button_prompt"">
                    <b>请用数字键0-9回答</b>
                    </div>","","","","","","","","","","","","","","","","","","",""
"1199","null","sub_response","html-keyboard-response","233","348669","0.0-1.0-7.0-3.0-2.30","06:31:32","6","","","","","","","<div style='text-align: center;'>
                            <span style=""color: red; font-size: 40px""><b>错误！+0 pts</b></span></div>
                            ","","learn","1","1","1","learn","6","6","[0, 1, 2, 3, 4, 5, 6, 7, 8, 9]","30","10","setsize","3S10A","food","1","0","4","0",""
"null","null","fixation","html-keyboard-response","234","349174","0.0-1.0-7.0-3.0-0.31","06:31:32","6","","","","","","","fixation","","","","","","","","","","","","","","","","","","",""
"867","5","pic_response","html-keyboard-response","235","350042","0.0-1.0-7.0-3.0-1.31","06:31:32","6","","","","","","","<div>
            <img class='stim' src=""pictures/food/2.jpg""></div><div class=""button_prompt"">
                    <b>请用数字键0-9回答</b>
                    </div>","","","","","","","","","","","","","","","","","","",""
"867","null","sub_response","html-keyboard-response","236","351047","0.0-1.0-7.0-3.0-2.31","06:31:32","6","","","","","","","<div style='text-align: center;'>
                            <span style=""color: red; font-size: 40px""><b>错误！+0 pts</b></span></div>
                            ","","learn","2","2","2","learn","9","9","[0, 1, 2, 3, 4, 5, 6, 7, 8, 9]","31","10","setsize","3S10A","food","1","0","4","0",""
"null","null","fixation","html-keyboard-response","237","351555","0.0-1.0-7.0-3.0-0.32","06:31:32","6","","","","","","","fixation","","","","","","","","","","","","","","","","","","",""
"617","3","pic_response","html-keyboard-response","238","352172","0.0-1.0-7.0-3.0-1.32","06:31:32","6","","","","","","","<div>
            <img class='stim' src=""pictures/food/0.jpg""></div><div class=""button_prompt"">
                    <b>请用数字键0-9回答</b>
                    </div>","","","","","","","","","","","","","","","","","","",""
"617","null","sub_response","html-keyboard-response","239","353183","0.0-1.0-7.0-3.0-2.32","06:31:32","6","","","","","","","<div style='text-align: center;'>
                            <span style=""color: green; font-size: 40px""><b>正确！+1 pts</b></span></div>
                            ","","learn","0","0","0","learn","2","2","[0, 1, 2, 3, 4, 5, 6, 7, 8, 9]","32","10","setsize","3S10A","food","1","1","2","1",""
"null","null","fixation","html-keyboard-response","240","353688","0.0-1.0-7.0-3.0-0.33","06:31:32","6","","","","","","","fixation","","","","","","","","","","","","","","","","","","",""
"539","6","pic_response","html-keyboard-response","241","354228","0.0-1.0-7.0-3.0-1.33","06:31:32","6","","","","","","","<div>
            <img class='stim' src=""pictures/food/1.jpg""></div><div class=""button_prompt"">
                    <b>请用数字键0-9回答</b>
                    </div>","","","","","","","","","","","","","","","","","","",""
"539","null","sub_response","html-keyboard-response","242","355237","0.0-1.0-7.0-3.0-2.33","06:31:32","6","","","","","","","<div style='text-align: center;'>
                            <span style=""color: red; font-size: 40px""><b>错误！+0 pts</b></span></div>
                            ","","learn","1","1","1","learn","6","6","[0, 1, 2, 3, 4, 5, 6, 7, 8, 9]","33","11","setsize","3S10A","food","1","0","5","0",""
"null","null","fixation","html-keyboard-response","243","355745","0.0-1.0-7.0-3.0-0.34","06:31:32","6","","","","","","","fixation","","","","","","","","","","","","","","","","","","",""
"549","3","pic_response","html-keyboard-response","244","356294","0.0-1.0-7.0-3.0-1.34","06:31:32","6","","","","","","","<div>
            <img class='stim' src=""pictures/food/0.jpg""></div><div class=""button_prompt"">
                    <b>请用数字键0-9回答</b>
                    </div>","","","","","","","","","","","","","","","","","","",""
"549","null","sub_response","html-keyboard-response","245","357297","0.0-1.0-7.0-3.0-2.34","06:31:32","6","","","","","","","<div style='text-align: center;'>
                            <span style=""color: green; font-size: 40px""><b>正确！+1 pts</b></span></div>
                            ","","learn","0","0","0","learn","2","2","[0, 1, 2, 3, 4, 5, 6, 7, 8, 9]","34","11","setsize","3S10A","food","1","1","2","1",""
"null","null","fixation","html-keyboard-response","246","357802","0.0-1.0-7.0-3.0-0.35","06:31:32","6","","","","","","","fixation","","","","","","","","","","","","","","","","","","",""
"482","6","pic_response","html-keyboard-response","247","358284","0.0-1.0-7.0-3.0-1.35","06:31:32","6","","","","","","","<div>
            <img class='stim' src=""pictures/food/2.jpg""></div><div class=""button_prompt"">
                    <b>请用数字键0-9回答</b>
                    </div>","","","","","","","","","","","","","","","","","","",""
"482","null","sub_response","html-keyboard-response","248","359293","0.0-1.0-7.0-3.0-2.35","06:31:32","6","","","","","","","<div style='text-align: center;'>
                            <span style=""color: red; font-size: 40px""><b>错误！+0 pts</b></span></div>
                            ","","learn","2","2","2","learn","9","9","[0, 1, 2, 3, 4, 5, 6, 7, 8, 9]","35","11","setsize","3S10A","food","1","0","5","0",""
"null","null","fixation","html-keyboard-response","249","359795","0.0-1.0-7.0-3.0-0.36","06:31:32","6","","","","","","","fixation","","","","","","","","","","","","","","","","","","",""
"445","3","pic_response","html-keyboard-response","250","360241","0.0-1.0-7.0-3.0-1.36","06:31:32","6","","","","","","","<div>
            <img class='stim' src=""pictures/food/0.jpg""></div><div class=""button_prompt"">
                    <b>请用数字键0-9回答</b>
                    </div>","","","","","","","","","","","","","","","","","","",""
"445","null","sub_response","html-keyboard-response","251","361246","0.0-1.0-7.0-3.0-2.36","06:31:32","6","","","","","","","<div style='text-align: center;'>
                            <span style=""color: green; font-size: 40px""><b>正确！+1 pts</b></span></div>
                            ","","learn","0","0","0","learn","2","2","[0, 1, 2, 3, 4, 5, 6, 7, 8, 9]","36","12","setsize","3S10A","food","1","1","2","1",""
"null","null","fixation","html-keyboard-response","252","361750","0.0-1.0-7.0-3.0-0.37","06:31:32","6","","","","","","","fixation","","","","","","","","","","","","","","","","","","",""
"635","7","pic_response","html-keyboard-response","253","362386","0.0-1.0-7.0-3.0-1.37","06:31:32","6","","","","","","","<div>
            <img class='stim' src=""pictures/food/2.jpg""></div><div class=""button_prompt"">
                    <b>请用数字键0-9回答</b>
                    </div>","","","","","","","","","","","","","","","","","","",""
"635","null","sub_response","html-keyboard-response","254","363394","0.0-1.0-7.0-3.0-2.37","06:31:32","6","","","","","","","<div style='text-align: center;'>
                            <span style=""color: red; font-size: 40px""><b>错误！+0 pts</b></span></div>
                            ","","learn","2","2","2","learn","9","9","[0, 1, 2, 3, 4, 5, 6, 7, 8, 9]","37","12","setsize","3S10A","food","1","0","6","0",""
"null","null","fixation","html-keyboard-response","255","363900","0.0-1.0-7.0-3.0-0.38","06:31:32","6","","","","","","","fixation","","","","","","","","","","","","","","","","","","",""
"331","7","pic_response","html-keyboard-response","256","364232","0.0-1.0-7.0-3.0-1.38","06:31:32","6","","","","","","","<div>
            <img class='stim' src=""pictures/food/1.jpg""></div><div class=""button_prompt"">
                    <b>请用数字键0-9回答</b>
                    </div>","","","","","","","","","","","","","","","","","","",""
"331","null","sub_response","html-keyboard-response","257","365240","0.0-1.0-7.0-3.0-2.38","06:31:32","6","","","","","","","<div style='text-align: center;'>
                            <span style=""color: green; font-size: 40px""><b>正确！+1 pts</b></span></div>
                            ","","learn","1","1","1","learn","6","6","[0, 1, 2, 3, 4, 5, 6, 7, 8, 9]","38","12","setsize","3S10A","food","1","1","6","1",""
"null","null","fixation","html-keyboard-response","258","365746","0.0-1.0-7.0-3.0-0.39","06:31:32","6","","","","","","","fixation","","","","","","","","","","","","","","","","","","",""
"554","3","pic_response","html-keyboard-response","259","366301","0.0-1.0-7.0-3.0-1.39","06:31:32","6","","","","","","","<div>
            <img class='stim' src=""pictures/food/0.jpg""></div><div class=""button_prompt"">
                    <b>请用数字键0-9回答</b>
                    </div>","","","","","","","","","","","","","","","","","","",""
"554","null","sub_response","html-keyboard-response","260","367306","0.0-1.0-7.0-3.0-2.39","06:31:32","6","","","","","","","<div style='text-align: center;'>
                            <span style=""color: green; font-size: 40px""><b>正确！+1 pts</b></span></div>
                            ","","learn","0","0","0","learn","2","2","[0, 1, 2, 3, 4, 5, 6, 7, 8, 9]","39","13","setsize","3S10A","food","1","2","2","1",""
"null","null","fixation","html-keyboard-response","261","367811","0.0-1.0-7.0-3.0-0.40","06:31:32","6","","","","","","","fixation","","","","","","","","","","","","","","","","","","",""
"1678","8","pic_response","html-keyboard-response","262","369490","0.0-1.0-7.0-3.0-1.40","06:31:32","6","","","","","","","<div>
            <img class='stim' src=""pictures/food/2.jpg""></div><div class=""button_prompt"">
                    <b>请用数字键0-9回答</b>
                    </div>","","","","","","","","","","","","","","","","","","",""
"1678","null","sub_response","html-keyboard-response","263","370495","0.0-1.0-7.0-3.0-2.40","06:31:32","6","","","","","","","<div style='text-align: center;'>
                            <span style=""color: red; font-size: 40px""><b>错误！+0 pts</b></span></div>
                            ","","learn","2","2","2","learn","9","9","[0, 1, 2, 3, 4, 5, 6, 7, 8, 9]","40","13","setsize","3S10A","food","1","0","7","0",""
"null","null","fixation","html-keyboard-response","264","371000","0.0-1.0-7.0-3.0-0.41","06:31:32","6","","","","","","","fixation","","","","","","","","","","","","","","","","","","",""
"656","7","pic_response","html-keyboard-response","265","371657","0.0-1.0-7.0-3.0-1.41","06:31:32","6","","","","","","","<div>
            <img class='stim' src=""pictures/food/1.jpg""></div><div class=""button_prompt"">
                    <b>请用数字键0-9回答</b>
                    </div>","","","","","","","","","","","","","","","","","","",""
"656","null","sub_response","html-keyboard-response","266","372666","0.0-1.0-7.0-3.0-2.41","06:31:32","6","","","","","","","<div style='text-align: center;'>
                            <span style=""color: green; font-size: 40px""><b>正确！+1 pts</b></span></div>
                            ","","learn","1","1","1","learn","6","6","[0, 1, 2, 3, 4, 5, 6, 7, 8, 9]","41","13","setsize","3S10A","food","1","1","6","1",""
"null","null","fixation","html-keyboard-response","267","373182","0.0-1.0-7.0-3.0-0.42","06:31:32","6","","","","","","","fixation","","","","","","","","","","","","","","","","","","",""
"660","3","pic_response","html-keyboard-response","268","373843","0.0-1.0-7.0-3.0-1.42","06:31:32","6","","","","","","","<div>
            <img class='stim' src=""pictures/food/0.jpg""></div><div class=""button_prompt"">
                    <b>请用数字键0-9回答</b>
                    </div>","","","","","","","","","","","","","","","","","","",""
"660","null","sub_response","html-keyboard-response","269","374850","0.0-1.0-7.0-3.0-2.42","06:31:32","6","","","","","","","<div style='text-align: center;'>
                            <span style=""color: green; font-size: 40px""><b>正确！+1 pts</b></span></div>
                            ","","learn","0","0","0","learn","2","2","[0, 1, 2, 3, 4, 5, 6, 7, 8, 9]","42","14","setsize","3S10A","food","1","2","2","1",""
"null","null","fixation","html-keyboard-response","270","375354","0.0-1.0-7.0-3.0-0.43","06:31:32","6","","","","","","","fixation","","","","","","","","","","","","","","","","","","",""
"503","7","pic_response","html-keyboard-response","271","375858","0.0-1.0-7.0-3.0-1.43","06:31:32","6","","","","","","","<div>
            <img class='stim' src=""pictures/food/2.jpg""></div><div class=""button_prompt"">
                    <b>请用数字键0-9回答</b>
                    </div>","","","","","","","","","","","","","","","","","","",""
"503","null","sub_response","html-keyboard-response","272","376862","0.0-1.0-7.0-3.0-2.43","06:31:32","6","","","","","","","<div style='text-align: center;'>
                            <span style=""color: red; font-size: 40px""><b>错误！+0 pts</b></span></div>
                            ","","learn","2","2","2","learn","9","9","[0, 1, 2, 3, 4, 5, 6, 7, 8, 9]","43","14","setsize","3S10A","food","1","0","6","0",""
"null","null","fixation","html-keyboard-response","273","377371","0.0-1.0-7.0-3.0-0.44","06:31:32","6","","","","","","","fixation","","","","","","","","","","","","","","","","","","",""
"369","7","pic_response","html-keyboard-response","274","377742","0.0-1.0-7.0-3.0-1.44","06:31:32","6","","","","","","","<div>
            <img class='stim' src=""pictures/food/1.jpg""></div><div class=""button_prompt"">
                    <b>请用数字键0-9回答</b>
                    </div>","","","","","","","","","","","","","","","","","","",""
"369","null","sub_response","html-keyboard-response","275","378758","0.0-1.0-7.0-3.0-2.44","06:31:32","6","","","","","","","<div style='text-align: center;'>
                            <span style=""color: green; font-size: 40px""><b>正确！+1 pts</b></span></div>
                            ","","learn","1","1","1","learn","6","6","[0, 1, 2, 3, 4, 5, 6, 7, 8, 9]","44","14","setsize","3S10A","food","1","1","6","1",""
"null","null","fixation","html-keyboard-response","276","379261","0.0-1.0-7.0-3.0-0.45","06:31:32","6","","","","","","","fixation","","","","","","","","","","","","","","","","","","",""
"730","3","pic_response","html-keyboard-response","277","379993","0.0-1.0-7.0-3.0-1.45","06:31:32","6","","","","","","","<div>
            <img class='stim' src=""pictures/food/0.jpg""></div><div class=""button_prompt"">
                    <b>请用数字键0-9回答</b>
                    </div>","","","","","","","","","","","","","","","","","","",""
"730","null","sub_response","html-keyboard-response","278","380996","0.0-1.0-7.0-3.0-2.45","06:31:32","6","","","","","","","<div style='text-align: center;'>
                            <span style=""color: green; font-size: 40px""><b>正确！+1 pts</b></span></div>
                            ","","learn","0","0","0","learn","2","2","[0, 1, 2, 3, 4, 5, 6, 7, 8, 9]","45","15","setsize","3S10A","food","1","2","2","1",""
"null","null","fixation","html-keyboard-response","279","381500","0.0-1.0-7.0-3.0-0.46","06:31:32","6","","","","","","","fixation","","","","","","","","","","","","","","","","","","",""
"595","7","pic_response","html-keyboard-response","280","382096","0.0-1.0-7.0-3.0-1.46","06:31:32","6","","","","","","","<div>
            <img class='stim' src=""pictures/food/1.jpg""></div><div class=""button_prompt"">
                    <b>请用数字键0-9回答</b>
                    </div>","","","","","","","","","","","","","","","","","","",""
"595","null","sub_response","html-keyboard-response","281","383099","0.0-1.0-7.0-3.0-2.46","06:31:32","6","","","","","","","<div style='text-align: center;'>
                            <span style=""color: green; font-size: 40px""><b>正确！+1 pts</b></span></div>
                            ","","learn","1","1","1","learn","6","6","[0, 1, 2, 3, 4, 5, 6, 7, 8, 9]","46","15","setsize","3S10A","food","1","3","6","1",""
"null","null","fixation","html-keyboard-response","282","383608","0.0-1.0-7.0-3.0-0.47","06:31:32","6","","","","","","","fixation","","","","","","","","","","","","","","","","","","",""
"356","4","pic_response","html-keyboard-response","283","383965","0.0-1.0-7.0-3.0-1.47","06:31:32","6","","","","","","","<div>
            <img class='stim' src=""pictures/food/2.jpg""></div><div class=""button_prompt"">
                    <b>请用数字键0-9回答</b>
                    </div>","","","","","","","","","","","","","","","","","","",""
"356","null","sub_response","html-keyboard-response","284","384974","0.0-1.0-7.0-3.0-2.47","06:31:32","6","","","","","","","<div style='text-align: center;'>
                            <span style=""color: red; font-size: 40px""><b>错误！+0 pts</b></span></div>
                            ","","learn","2","2","2","learn","9","9","[0, 1, 2, 3, 4, 5, 6, 7, 8, 9]","47","15","setsize","3S10A","food","1","0","3","0",""
"null","null","fixation","html-keyboard-response","285","385480","0.0-1.0-7.0-3.0-0.48","06:31:32","6","","","","","","","fixation","","","","","","","","","","","","","","","","","","",""
"2769","0","pic_response","html-keyboard-response","286","388250","0.0-1.0-7.0-3.0-1.48","06:31:32","6","","","","","","","<div>
            <img class='stim' src=""pictures/food/2.jpg""></div><div class=""button_prompt"">
                    <b>请用数字键0-9回答</b>
                    </div>","","","","","","","","","","","","","","","","","","",""
"2769","null","sub_response","html-keyboard-response","287","389262","0.0-1.0-7.0-3.0-2.48","06:31:32","6","","","","","","","<div style='text-align: center;'>
                            <span style=""color: green; font-size: 40px""><b>正确！+1 pts</b></span></div>
                            ","","learn","2","2","2","learn","9","9","[0, 1, 2, 3, 4, 5, 6, 7, 8, 9]","48","16","setsize","3S10A","food","1","1","9","1",""
"null","null","fixation","html-keyboard-response","288","389779","0.0-1.0-7.0-3.0-0.49","06:31:32","6","","","","","","","fixation","","","","","","","","","","","","","","","","","","",""
"568","3","pic_response","html-keyboard-response","289","390348","0.0-1.0-7.0-3.0-1.49","06:31:32","6","","","","","","","<div>
            <img class='stim' src=""pictures/food/0.jpg""></div><div class=""button_prompt"">
                    <b>请用数字键0-9回答</b>
                    </div>","","","","","","","","","","","","","","","","","","",""
"568","null","sub_response","html-keyboard-response","290","391355","0.0-1.0-7.0-3.0-2.49","06:31:32","6","","","","","","","<div style='text-align: center;'>
                            <span style=""color: green; font-size: 40px""><b>正确！+1 pts</b></span></div>
                            ","","learn","0","0","0","learn","2","2","[0, 1, 2, 3, 4, 5, 6, 7, 8, 9]","49","16","setsize","3S10A","food","1","2","2","1",""
"null","null","fixation","html-keyboard-response","291","391857","0.0-1.0-7.0-3.0-0.50","06:31:32","6","","","","","","","fixation","","","","","","","","","","","","","","","","","","",""
"747","7","pic_response","html-keyboard-response","292","392605","0.0-1.0-7.0-3.0-1.50","06:31:32","6","","","","","","","<div>
            <img class='stim' src=""pictures/food/1.jpg""></div><div class=""button_prompt"">
                    <b>请用数字键0-9回答</b>
                    </div>","","","","","","","","","","","","","","","","","","",""
"747","null","sub_response","html-keyboard-response","293","393612","0.0-1.0-7.0-3.0-2.50","06:31:32","6","","","","","","","<div style='text-align: center;'>
                            <span style=""color: green; font-size: 40px""><b>正确！+1 pts</b></span></div>
                            ","","learn","1","1","1","learn","6","6","[0, 1, 2, 3, 4, 5, 6, 7, 8, 9]","50","16","setsize","3S10A","food","1","3","6","1",""
"null","null","fixation","html-keyboard-response","294","394120","0.0-1.0-7.0-3.0-0.51","06:31:32","6","","","","","","","fixation","","","","","","","","","","","","","","","","","","",""
"576","7","pic_response","html-keyboard-response","295","394696","0.0-1.0-7.0-3.0-1.51","06:31:32","6","","","","","","","<div>
            <img class='stim' src=""pictures/food/1.jpg""></div><div class=""button_prompt"">
                    <b>请用数字键0-9回答</b>
                    </div>","","","","","","","","","","","","","","","","","","",""
"576","null","sub_response","html-keyboard-response","296","395702","0.0-1.0-7.0-3.0-2.51","06:31:32","6","","","","","","","<div style='text-align: center;'>
                            <span style=""color: green; font-size: 40px""><b>正确！+1 pts</b></span></div>
                            ","","learn","1","1","1","learn","6","6","[0, 1, 2, 3, 4, 5, 6, 7, 8, 9]","51","17","setsize","3S10A","food","1","4","6","1",""
"null","null","fixation","html-keyboard-response","297","396208","0.0-1.0-7.0-3.0-0.52","06:31:32","6","","","","","","","fixation","","","","","","","","","","","","","","","","","","",""
"923","3","pic_response","html-keyboard-response","298","397132","0.0-1.0-7.0-3.0-1.52","06:31:32","6","","","","","","","<div>
            <img class='stim' src=""pictures/food/0.jpg""></div><div class=""button_prompt"">
                    <b>请用数字键0-9回答</b>
                    </div>","","","","","","","","","","","","","","","","","","",""
"923","null","sub_response","html-keyboard-response","299","398140","0.0-1.0-7.0-3.0-2.52","06:31:32","6","","","","","","","<div style='text-align: center;'>
                            <span style=""color: green; font-size: 40px""><b>正确！+1 pts</b></span></div>
                            ","","learn","0","0","0","learn","2","2","[0, 1, 2, 3, 4, 5, 6, 7, 8, 9]","52","17","setsize","3S10A","food","1","5","2","1",""
"null","null","fixation","html-keyboard-response","300","398655","0.0-1.0-7.0-3.0-0.53","06:31:32","6","","","","","","","fixation","","","","","","","","","","","","","","","","","","",""
"661","0","pic_response","html-keyboard-response","301","399317","0.0-1.0-7.0-3.0-1.53","06:31:32","6","","","","","","","<div>
            <img class='stim' src=""pictures/food/2.jpg""></div><div class=""button_prompt"">
                    <b>请用数字键0-9回答</b>
                    </div>","","","","","","","","","","","","","","","","","","",""
"661","null","sub_response","html-keyboard-response","302","400327","0.0-1.0-7.0-3.0-2.53","06:31:32","6","","","","","","","<div style='text-align: center;'>
                            <span style=""color: green; font-size: 40px""><b>正确！+1 pts</b></span></div>
                            ","","learn","2","2","2","learn","9","9","[0, 1, 2, 3, 4, 5, 6, 7, 8, 9]","53","17","setsize","3S10A","food","1","6","9","1",""
"null","null","fixation","html-keyboard-response","303","400833","0.0-1.0-7.0-3.0-0.54","06:31:32","6","","","","","","","fixation","","","","","","","","","","","","","","","","","","",""
"547","3","pic_response","html-keyboard-response","304","401380","0.0-1.0-7.0-3.0-1.54","06:31:32","6","","","","","","","<div>
            <img class='stim' src=""pictures/food/0.jpg""></div><div class=""button_prompt"">
                    <b>请用数字键0-9回答</b>
                    </div>","","","","","","","","","","","","","","","","","","",""
"547","null","sub_response","html-keyboard-response","305","402388","0.0-1.0-7.0-3.0-2.54","06:31:32","6","","","","","","","<div style='text-align: center;'>
                            <span style=""color: green; font-size: 40px""><b>正确！+1 pts</b></span></div>
                            ","","learn","0","0","0","learn","2","2","[0, 1, 2, 3, 4, 5, 6, 7, 8, 9]","54","18","setsize","3S10A","food","1","7","2","1",""
"null","null","fixation","html-keyboard-response","306","402898","0.0-1.0-7.0-3.0-0.55","06:31:32","6","","","","","","","fixation","","","","","","","","","","","","","","","","","","",""
"743","7","pic_response","html-keyboard-response","307","403642","0.0-1.0-7.0-3.0-1.55","06:31:32","6","","","","","","","<div>
            <img class='stim' src=""pictures/food/1.jpg""></div><div class=""button_prompt"">
                    <b>请用数字键0-9回答</b>
                    </div>","","","","","","","","","","","","","","","","","","",""
"743","null","sub_response","html-keyboard-response","308","404644","0.0-1.0-7.0-3.0-2.55","06:31:32","6","","","","","","","<div style='text-align: center;'>
                            <span style=""color: green; font-size: 40px""><b>正确！+1 pts</b></span></div>
                            ","","learn","1","1","1","learn","6","6","[0, 1, 2, 3, 4, 5, 6, 7, 8, 9]","55","18","setsize","3S10A","food","1","8","6","1",""
"null","null","fixation","html-keyboard-response","309","405153","0.0-1.0-7.0-3.0-0.56","06:31:32","6","","","","","","","fixation","","","","","","","","","","","","","","","","","","",""
"593","0","pic_response","html-keyboard-response","310","405747","0.0-1.0-7.0-3.0-1.56","06:31:32","6","","","","","","","<div>
            <img class='stim' src=""pictures/food/2.jpg""></div><div class=""button_prompt"">
                    <b>请用数字键0-9回答</b>
                    </div>","","","","","","","","","","","","","","","","","","",""
"593","null","sub_response","html-keyboard-response","311","406749","0.0-1.0-7.0-3.0-2.56","06:31:32","6","","","","","","","<div style='text-align: center;'>
                            <span style=""color: green; font-size: 40px""><b>正确！+1 pts</b></span></div>
                            ","","learn","2","2","2","learn","9","9","[0, 1, 2, 3, 4, 5, 6, 7, 8, 9]","56","18","setsize","3S10A","food","1","9","9","1",""
"31189"," ","","html-keyboard-response","312","437940","0.0-1.0-8.0","06:31:32","6","","","","","","","<div style=""font-size: 25px""><p>距下一个实验开始还有</p><div style=""font-size: 50px; color: blue""><p><span id=""clock"">1:00</span></div></p><p>按""空格""跳过休息</p></div>","","","","","","","","","","","","","","","","","","",""
"","","","preload","313","438339","0.0-1.0-9.0-0.0","06:31:32","6","true","false","[]","[]","[]","","","","","","","","","","","","","","","","","","","","",""
"613"," ","","html-keyboard-response","314","438953","0.0-1.0-9.0-1.0","06:31:32","6","","","","","","","<div style='font-size: 32px; text-align: center;'
                    <p>请学习图片和数字之间的对应关系</p>
                    <p>我们将<span style='color: blue'><b> 告诉 </b></span>您选择的对错。请根据反馈学习。</p>
                    <p>请按""空格""继续实验。</p></div>","","","","","","","","","","","","","","","","","","",""
"3130"," ","inst","html-keyboard-response","315","442083","0.0-1.0-9.0-2.0","06:31:32","6","","","","","","","<img class='instruct_stim' src=""instruction/furniture3.PNG""></div>","","","","","","","","","","","","","","","","","","",""
"null","null","fixation","html-keyboard-response","316","442584","0.0-1.0-9.0-3.0-0.0","06:31:32","6","","","","","","","fixation","","","","","","","","","","","","","","","","","","",""
"1785","1","pic_response","html-keyboard-response","317","444370","0.0-1.0-9.0-3.0-1.0","06:31:32","6","","","","","","","<div>
            <img class='stim' src=""pictures/furniture/2.jpg""></div><div class=""button_prompt"">
                        <b>请用数字键1-3回答</b>
                        </div>","","","","","","","","","","","","","","","","","","",""
"1785","null","sub_response","html-keyboard-response","318","445378","0.0-1.0-9.0-3.0-2.0","06:31:32","6","","","","","","","<div style='text-align: center;'>
                            <span style=""color: red; font-size: 40px""><b>错误！+0 pts</b></span></div>
                            ","","learn","2","2","2","learn","2","2","[0, 1, 2]","0","0","setsize","3S3A","furniture","2","0","0","0",""
"null","null","fixation","html-keyboard-response","319","445883","0.0-1.0-9.0-3.0-0.1","06:31:32","6","","","","","","","fixation","","","","","","","","","","","","","","","","","","",""
"658","2","pic_response","html-keyboard-response","320","446541","0.0-1.0-9.0-3.0-1.1","06:31:32","6","","","","","","","<div>
            <img class='stim' src=""pictures/furniture/1.jpg""></div><div class=""button_prompt"">
                        <b>请用数字键1-3回答</b>
                        </div>","","","","","","","","","","","","","","","","","","",""
"658","null","sub_response","html-keyboard-response","321","447553","0.0-1.0-9.0-3.0-2.1","06:31:32","6","","","","","","","<div style='text-align: center;'>
                            <span style=""color: red; font-size: 40px""><b>错误！+0 pts</b></span></div>
                            ","","learn","1","1","1","learn","0","0","[0, 1, 2]","1","0","setsize","3S3A","furniture","2","0","1","0",""
