"rt","response","screen_id","trial_type","trial_index","time_elapsed","internal_node_id","start_time","n_Prac","success","timeout","failed_images","failed_audio","failed_video","view_history","stimulus","question_order","stage","s","word","word_id","phase","a_cor","a_real","a_ava","trial","tps","task_type","block_typ","pic_typ","block_id","cum_r","a","r","plugin_name"
"26521","{""sub_id"":""1"",""task_type"":""task1"",""name"":""晨晨"",""gender"":""F""}","basic_info","survey-html-form","0","26523","0.0-0.0","07:59:58","6","","","","","","","","","","","","","","","","","","","","","","","","","",""
"","","","preload","1","27227","0.0-1.0-0.0","07:59:58","6","true","false","[]","[]","[]","","","","","","","","","","","","","","","","","","","","",""
"","","","preload","2","27380","0.0-1.0-1.0","07:59:58","6","true","false","[]","[]","[]","","","","","","","","","","","","","","","","","","","","",""
"","","","fullscreen","3","29281","0.0-1.0-2.0","07:59:58","6","true","","","","","","","","","","","","","","","","","","","","","","","","",""
"16380","","instruct","instructions","4","45661","0.0-1.0-3.0-0.0","07:59:58","6","","","","","","[{""page_index"":0,""viewing_time"":7139},{""page_index"":1,""viewing_time"":4484},{""page_index"":2,""viewing_time"":4756}]","","","","","","","","","","","","","","","","","","","",""
"8887","{""Q0"":"""",""task1"":""<span style='font-size: 24px'>学习图片和数字的对应关系</span>"",""task2"":""<span style='font-size: 24px'> 数字键1-3 </span>"",""task3"":""<span style='font-size: 24px'> 看到图片选出正确对应的数字 </span>""}","question","survey-multi-choice","5","54550","0.0-1.0-3.0-1.0","07:59:58","6","","","","","","","","[0,1,2,3]","","","","","","","","","","","","","","","","","",""
"3408"," ","inst_q","html-keyboard-response","6","57961","0.0-1.0-3.0-2.0","07:59:58","6","","","","","","","inst","","1","","","","","","","","","","","","","","","","",""
"14565","","instruct","instructions","7","72527","0.0-1.0-3.1-0.1","07:59:58","6","","","","","","[{""page_index"":0,""viewing_time"":2023},{""page_index"":1,""viewing_time"":1440},{""page_index"":0,""viewing_time"":3243},{""page_index"":1,""viewing_time"":5248},{""page_index"":2,""viewing_time"":2611}]","","","","","","","","","","","","","","","","","","","",""
"16550","{""Q0"":"""",""task1"":""<span style='font-size: 24px'>学习图片和数字的对应关系</span>"",""task2"":""<span style='font-size: 24px'> 数字键1-3 </span>"",""task3"":""<span style='font-size: 24px'> 看到图片选出正确对应的数字 </span>""}","question","survey-multi-choice","8","89080","0.0-1.0-3.1-1.1","07:59:58","6","","","","","","","","[0,1,2,3]","","","","","","","","","","","","","","","","","",""
"865"," ","inst_q","html-keyboard-response","9","89946","0.0-1.0-3.1-2.1","07:59:58","6","","","","","","","inst","","1","","","","","","","","","","","","","","","","",""
"16299","","instruct","instructions","10","106246","0.0-1.0-3.2-0.2","07:59:58","6","","","","","","[{""page_index"":0,""viewing_time"":9482},{""page_index"":1,""viewing_time"":3347},{""page_index"":2,""viewing_time"":3470}]","","","","","","","","","","","","","","","","","","","",""
"57121","{""Q0"":"""",""task1"":""<span style='font-size: 24px'>学习图片和数字的对应关系</span>"",""task2"":""<span style='font-size: 24px'> 数字键1-3 </span>"",""task3"":""<span style='font-size: 24px'> 看到图片选出正确对应的数字 </span>""}","question","survey-multi-choice","11","163370","0.0-1.0-3.2-1.2","07:59:58","6","","","","","","","","[0,1,2,3]","","","","","","","","","","","","","","","","","",""
"8392"," ","inst_q","html-keyboard-response","12","171763","0.0-1.0-3.2-2.2","07:59:58","6","","","","","","","inst","","1","","","","","","","","","","","","","","","","",""
"17774","","instruct","instructions","13","189538","0.0-1.0-3.3-0.3","07:59:58","6","","","","","","[{""page_index"":0,""viewing_time"":8285},{""page_index"":1,""viewing_time"":3449},{""page_index"":2,""viewing_time"":6039}]","","","","","","","","","","","","","","","","","","","",""
"11350","{""Q0"":"""",""task1"":""<span style='font-size: 24px'>学习图片和数字的对应关系</span>"",""task2"":""<span style='font-size: 24px'> 数字键1-3 </span>"",""task3"":""<span style='font-size: 24px'> 猜测Queen Elizabeth住在哪一栋房子里 </span>""}","question","survey-multi-choice","14","200890","0.0-1.0-3.3-1.3","07:59:58","6","","","","","","","","[0,1,2,3]","","","","","","","","","","","","","","","","","",""
"2090"," ","inst_q","html-keyboard-response","15","202981","0.0-1.0-3.3-2.3","07:59:58","6","","","","","","","inst","","1","","","","","","","","","","","","","","","","",""
"4235","","instruct","instructions","16","207217","0.0-1.0-3.4-0.4","07:59:58","6","","","","","","[{""page_index"":0,""viewing_time"":1140},{""page_index"":1,""viewing_time"":2224},{""page_index"":2,""viewing_time"":871}]","","","","","","","","","","","","","","","","","","","",""
"10779","{""Q0"":"""",""task1"":""<span style='font-size: 24px'>学习图片和数字的对应关系</span>"",""task2"":""<span style='font-size: 24px'> ←, → </span>"",""task3"":""<span style='font-size: 24px'> 看到图片选出正确对应的数字 </span>""}","question","survey-multi-choice","17","217997","0.0-1.0-3.4-1.4","07:59:58","6","","","","","","","","[0,1,2,3]","","","","","","","","","","","","","","","","","",""
"885"," ","inst_q","html-keyboard-response","18","218883","0.0-1.0-3.4-2.4","07:59:58","6","","","","","","","inst","","1","","","","","","","","","","","","","","","","",""
"4076","","instruct","instructions","19","222960","0.0-1.0-3.5-0.5","07:59:58","6","","","","","","[{""page_index"":0,""viewing_time"":1377},{""page_index"":1,""viewing_time"":1619},{""page_index"":2,""viewing_time"":1080}]","","","","","","","","","","","","","","","","","","","",""
"11072","{""Q0"":"""",""task1"":""<span style='font-size: 24px'>学习图片和数字的对应关系</span>"",""task2"":""<span style='font-size: 24px'> 图片下方标注为可用的数字键（数字键1-3或0-9） </span>"",""task3"":""<span style='font-size: 24px'> 看到图片选出正确对应的数字 </span>""}","question","survey-multi-choice","20","234034","0.0-1.0-3.5-1.5","07:59:58","6","","","","","","","","[0,1,2,3]","","","","","","","","","","","","","","","","","",""
"4500"," ","inst_q","html-keyboard-response","21","238535","0.0-1.0-3.5-2.5","07:59:58","6","","","","","","","inst","","1","","","","","","","","","","","","","","","","",""
"","","","preload","22","238596","0.0-1.0-4.0-0.0","07:59:58","6","true","false","[]","[]","[]","","","","","","","","","","","","","","","","","","","","",""
"4282"," ","","html-keyboard-response","23","242879","0.0-1.0-4.0-1.0","07:59:58","6","","","","","","","<div style='font-size: 32px; text-align: center;'
                    <p>请学习图片和数字之间的对应关系</p>
                    <p>我们将<span style='color: blue'><b> 告诉 </b></span>您选择的对错。请根据反馈学习。</p>
                    <p>请按""空格""继续实验。</p></div>","","","","","","","","","","","","","","","","","","",""
"4947"," ","inst","html-keyboard-response","24","247827","0.0-1.0-4.0-2.0","07:59:58","6","","","","","","","<img class='instruct_stim' src=""instruction/prac3.PNG""></div>","","","","","","","","","","","","","","","","","","",""
"null","null","fixation","html-keyboard-response","25","248328","0.0-1.0-4.0-3.0-0.0","07:59:58","6","","","","","","","fixation","","","","","","","","","","","","","","","","","","",""
"378","1","pic_response","html-keyboard-response","26","248707","0.0-1.0-4.0-3.0-1.0","07:59:58","6","","","","","","","<div>
            <img class='stim' src=""pictures/prac/2.jpg""></div><div class=""button_prompt"">
                        <b>请用数字键1-3回答</b>
                        </div>","","","","","","","","","","","","","","","","","","",""
"378","null","sub_response","html-keyboard-response","27","249709","0.0-1.0-4.0-3.0-2.0","07:59:58","6","","","","","","","<div style='text-align: center;'>
                            <span style=""color: red; font-size: 40px""><b>错误！+0 pts</b></span></div>
                            ","","learn","2","2","2","learn","2","2","[0, 1, 2]","0","0","setsize","99","prac","0","0","0","0",""
"null","null","fixation","html-keyboard-response","28","250211","0.0-1.0-4.0-3.0-0.1","07:59:58","6","","","","","","","fixation","","","","","","","","","","","","","","","","","","",""
"671","2","pic_response","html-keyboard-response","29","250883","0.0-1.0-4.0-3.0-1.1","07:59:58","6","","","","","","","<div>
            <img class='stim' src=""pictures/prac/0.jpg""></div><div class=""button_prompt"">
                        <b>请用数字键1-3回答</b>
                        </div>","","","","","","","","","","","","","","","","","","",""
"671","null","sub_response","html-keyboard-response","30","251884","0.0-1.0-4.0-3.0-2.1","07:59:58","6","","","","","","","<div style='text-align: center;'>
                            <span style=""color: red; font-size: 40px""><b>错误！+0 pts</b></span></div>
                            ","","learn","0","0","0","learn","0","0","[0, 1, 2]","1","0","setsize","99","prac","0","0","1","0",""
"null","null","fixation","html-keyboard-response","31","252385","0.0-1.0-4.0-3.0-0.2","07:59:58","6","","","","","","","fixation","","","","","","","","","","","","","","","","","","",""
"611","1","pic_response","html-keyboard-response","32","252997","0.0-1.0-4.0-3.0-1.2","07:59:58","6","","","","","","","<div>
            <img class='stim' src=""pictures/prac/1.jpg""></div><div class=""button_prompt"">
                        <b>请用数字键1-3回答</b>
                        </div>","","","","","","","","","","","","","","","","","","",""
"611","null","sub_response","html-keyboard-response","33","253998","0.0-1.0-4.0-3.0-2.2","07:59:58","6","","","","","","","<div style='text-align: center;'>
                            <span style=""color: green; font-size: 40px""><b>正确！+1 pts</b></span></div>
                            ","","learn","1","1","1","learn","0","0","[0, 1, 2]","2","0","setsize","99","prac","0","1","0","1",""
"null","null","fixation","html-keyboard-response","34","254501","0.0-1.0-4.0-3.0-0.3","07:59:58","6","","","","","","","fixation","","","","","","","","","","","","","","","","","","",""
"457","1","pic_response","html-keyboard-response","35","254959","0.0-1.0-4.0-3.0-1.3","07:59:58","6","","","","","","","<div>
            <img class='stim' src=""pictures/prac/1.jpg""></div><div class=""button_prompt"">
                        <b>请用数字键1-3回答</b>
                        </div>","","","","","","","","","","","","","","","","","","",""
"457","null","sub_response","html-keyboard-response","36","255960","0.0-1.0-4.0-3.0-2.3","07:59:58","6","","","","","","","<div style='text-align: center;'>
                            <span style=""color: green; font-size: 40px""><b>正确！+1 pts</b></span></div>
                            ","","learn","1","1","1","learn","0","0","[0, 1, 2]","3","1","setsize","99","prac","0","2","0","1",""
"null","null","fixation","html-keyboard-response","37","256462","0.0-1.0-4.0-3.0-0.4","07:59:58","6","","","","","","","fixation","","","","","","","","","","","","","","","","","","",""
"665","3","pic_response","html-keyboard-response","38","257128","0.0-1.0-4.0-3.0-1.4","07:59:58","6","","","","","","","<div>
            <img class='stim' src=""pictures/prac/0.jpg""></div><div class=""button_prompt"">
                        <b>请用数字键1-3回答</b>
                        </div>","","","","","","","","","","","","","","","","","","",""
"665","null","sub_response","html-keyboard-response","39","258130","0.0-1.0-4.0-3.0-2.4","07:59:58","6","","","","","","","<div style='text-align: center;'>
                            <span style=""color: red; font-size: 40px""><b>错误！+0 pts</b></span></div>
                            ","","learn","0","0","0","learn","0","0","[0, 1, 2]","4","1","setsize","99","prac","0","0","2","0",""
"null","null","fixation","html-keyboard-response","40","258631","0.0-1.0-4.0-3.0-0.5","07:59:58","6","","","","","","","fixation","","","","","","","","","","","","","","","","","","",""
"709","3","pic_response","html-keyboard-response","41","259340","0.0-1.0-4.0-3.0-1.5","07:59:58","6","","","","","","","<div>
            <img class='stim' src=""pictures/prac/2.jpg""></div><div class=""button_prompt"">
                        <b>请用数字键1-3回答</b>
                        </div>","","","","","","","","","","","","","","","","","","",""
"709","null","sub_response","html-keyboard-response","42","260342","0.0-1.0-4.0-3.0-2.5","07:59:58","6","","","","","","","<div style='text-align: center;'>
                            <span style=""color: green; font-size: 40px""><b>正确！+1 pts</b></span></div>
                            ","","learn","2","2","2","learn","2","2","[0, 1, 2]","5","1","setsize","99","prac","0","1","2","1",""
"","","","preload","43","260347","0.0-1.0-4.1-0.1","07:59:58","6","true","false","[]","[]","[]","","","","","","","","","","","","","","","","","","","","",""
"1505"," ","","html-keyboard-response","44","261852","0.0-1.0-4.1-1.1","07:59:58","6","","","","","","","<div style='font-size: 32px; text-align: center;'
                    <p>请学习图片和数字之间的对应关系</p>
                    <p>我们将<span style='color: blue'><b> 告诉 </b></span>您选择的对错。请根据反馈学习。</p>
                    <p>请按""空格""继续实验。</p></div>","","","","","","","","","","","","","","","","","","",""
"3342"," ","inst","html-keyboard-response","45","265195","0.0-1.0-4.1-2.1","07:59:58","6","","","","","","","<img class='instruct_stim' src=""instruction/prac3.PNG""></div>","","","","","","","","","","","","","","","","","","",""
"null","null","fixation","html-keyboard-response","46","265702","0.0-1.0-4.1-3.1-0.6","07:59:58","6","","","","","","","fixation","","","","","","","","","","","","","","","","","","",""
"692","3","pic_response","html-keyboard-response","47","266395","0.0-1.0-4.1-3.1-1.6","07:59:58","6","","","","","","","<div>
            <img class='stim' src=""pictures/prac/2.jpg""></div><div class=""button_prompt"">
                        <b>请用数字键1-3回答</b>
                        </div>","","","","","","","","","","","","","","","","","","",""
"692","null","sub_response","html-keyboard-response","48","267396","0.0-1.0-4.1-3.1-2.6","07:59:58","6","","","","","","","<div style='text-align: center;'>
                            <span style=""color: green; font-size: 40px""><b>正确！+1 pts</b></span></div>
                            ","","learn","2","2","2","learn","2","2","[0, 1, 2]","0","0","setsize","99","prac","0","2","2","1",""
"null","null","fixation","html-keyboard-response","49","267897","0.0-1.0-4.1-3.1-0.7","07:59:58","6","","","","","","","fixation","","","","","","","","","","","","","","","","","","",""
"589","2","pic_response","html-keyboard-response","50","268487","0.0-1.0-4.1-3.1-1.7","07:59:58","6","","","","","","","<div>
            <img class='stim' src=""pictures/prac/0.jpg""></div><div class=""button_prompt"">
                        <b>请用数字键1-3回答</b>
                        </div>","","","","","","","","","","","","","","","","","","",""
"589","null","sub_response","html-keyboard-response","51","269489","0.0-1.0-4.1-3.1-2.7","07:59:58","6","","","","","","","<div style='text-align: center;'>
                            <span style=""color: red; font-size: 40px""><b>错误！+0 pts</b></span></div>
                            ","","learn","0","0","0","learn","0","0","[0, 1, 2]","1","0","setsize","99","prac","0","0","1","0",""
"null","null","fixation","html-keyboard-response","52","269998","0.0-1.0-4.1-3.1-0.8","07:59:58","6","","","","","","","fixation","","","","","","","","","","","","","","","","","","",""
"754","2","pic_response","html-keyboard-response","53","270753","0.0-1.0-4.1-3.1-1.8","07:59:58","6","","","","","","","<div>
            <img class='stim' src=""pictures/prac/1.jpg""></div><div class=""button_prompt"">
                        <b>请用数字键1-3回答</b>
                        </div>","","","","","","","","","","","","","","","","","","",""
"754","null","sub_response","html-keyboard-response","54","271755","0.0-1.0-4.1-3.1-2.8","07:59:58","6","","","","","","","<div style='text-align: center;'>
                            <span style=""color: red; font-size: 40px""><b>错误！+0 pts</b></span></div>
                            ","","learn","1","1","1","learn","0","0","[0, 1, 2]","2","0","setsize","99","prac","0","0","1","0",""
"null","null","fixation","html-keyboard-response","55","272256","0.0-1.0-4.1-3.1-0.9","07:59:58","6","","","","","","","fixation","","","","","","","","","","","","","","","","","","",""
"677","1","pic_response","html-keyboard-response","56","272934","0.0-1.0-4.1-3.1-1.9","07:59:58","6","","","","","","","<div>
            <img class='stim' src=""pictures/prac/1.jpg""></div><div class=""button_prompt"">
                        <b>请用数字键1-3回答</b>
                        </div>","","","","","","","","","","","","","","","","","","",""
"677","null","sub_response","html-keyboard-response","57","273936","0.0-1.0-4.1-3.1-2.9","07:59:58","6","","","","","","","<div style='text-align: center;'>
                            <span style=""color: green; font-size: 40px""><b>正确！+1 pts</b></span></div>
                            ","","learn","1","1","1","learn","0","0","[0, 1, 2]","3","1","setsize","99","prac","0","1","0","1",""
"null","null","fixation","html-keyboard-response","58","274438","0.0-1.0-4.1-3.1-0.10","07:59:58","6","","","","","","","fixation","","","","","","","","","","","","","","","","","","",""
"574","3","pic_response","html-keyboard-response","59","275013","0.0-1.0-4.1-3.1-1.10","07:59:58","6","","","","","","","<div>
            <img class='stim' src=""pictures/prac/0.jpg""></div><div class=""button_prompt"">
                        <b>请用数字键1-3回答</b>
                        </div>","","","","","","","","","","","","","","","","","","",""
"574","null","sub_response","html-keyboard-response","60","276014","0.0-1.0-4.1-3.1-2.10","07:59:58","6","","","","","","","<div style='text-align: center;'>
                            <span style=""color: red; font-size: 40px""><b>错误！+0 pts</b></span></div>
                            ","","learn","0","0","0","learn","0","0","[0, 1, 2]","4","1","setsize","99","prac","0","0","2","0",""
"null","null","fixation","html-keyboard-response","61","276516","0.0-1.0-4.1-3.1-0.11","07:59:58","6","","","","","","","fixation","","","","","","","","","","","","","","","","","","",""
"891","3","pic_response","html-keyboard-response","62","277407","0.0-1.0-4.1-3.1-1.11","07:59:58","6","","","","","","","<div>
            <img class='stim' src=""pictures/prac/2.jpg""></div><div class=""button_prompt"">
                        <b>请用数字键1-3回答</b>
                        </div>","","","","","","","","","","","","","","","","","","",""
"891","null","sub_response","html-keyboard-response","63","278408","0.0-1.0-4.1-3.1-2.11","07:59:58","6","","","","","","","<div style='text-align: center;'>
                            <span style=""color: green; font-size: 40px""><b>正确！+1 pts</b></span></div>
                            ","","learn","2","2","2","learn","2","2","[0, 1, 2]","5","1","setsize","99","prac","0","1","2","1",""
"","","","preload","64","278411","0.0-1.0-4.2-0.2","07:59:58","6","true","false","[]","[]","[]","","","","","","","","","","","","","","","","","","","","",""
"995"," ","","html-keyboard-response","65","279407","0.0-1.0-4.2-1.2","07:59:58","6","","","","","","","<div style='font-size: 32px; text-align: center;'
                    <p>请学习图片和数字之间的对应关系</p>
                    <p>我们将<span style='color: blue'><b> 告诉 </b></span>您选择的对错。请根据反馈学习。</p>
                    <p>请按""空格""继续实验。</p></div>","","","","","","","","","","","","","","","","","","",""
"1637"," ","inst","html-keyboard-response","66","281044","0.0-1.0-4.2-2.2","07:59:58","6","","","","","","","<img class='instruct_stim' src=""instruction/prac3.PNG""></div>","","","","","","","","","","","","","","","","","","",""
"null","null","fixation","html-keyboard-response","67","281545","0.0-1.0-4.2-3.2-0.12","07:59:58","6","","","","","","","fixation","","","","","","","","","","","","","","","","","","",""
"675","3","pic_response","html-keyboard-response","68","282221","0.0-1.0-4.2-3.2-1.12","07:59:58","6","","","","","","","<div>
            <img class='stim' src=""pictures/prac/2.jpg""></div><div class=""button_prompt"">
                        <b>请用数字键1-3回答</b>
                        </div>","","","","","","","","","","","","","","","","","","",""
"675","null","sub_response","html-keyboard-response","69","283223","0.0-1.0-4.2-3.2-2.12","07:59:58","6","","","","","","","<div style='text-align: center;'>
                            <span style=""color: green; font-size: 40px""><b>正确！+1 pts</b></span></div>
                            ","","learn","2","2","2","learn","2","2","[0, 1, 2]","0","0","setsize","99","prac","0","2","2","1",""
"null","null","fixation","html-keyboard-response","70","283725","0.0-1.0-4.2-3.2-0.13","07:59:58","6","","","","","","","fixation","","","","","","","","","","","","","","","","","","",""
"366","2","pic_response","html-keyboard-response","71","284092","0.0-1.0-4.2-3.2-1.13","07:59:58","6","","","","","","","<div>
            <img class='stim' src=""pictures/prac/0.jpg""></div><div class=""button_prompt"">
                        <b>请用数字键1-3回答</b>
                        </div>","","","","","","","","","","","","","","","","","","",""
"366","null","sub_response","html-keyboard-response","72","285094","0.0-1.0-4.2-3.2-2.13","07:59:58","6","","","","","","","<div style='text-align: center;'>
                            <span style=""color: red; font-size: 40px""><b>错误！+0 pts</b></span></div>
                            ","","learn","0","0","0","learn","0","0","[0, 1, 2]","1","0","setsize","99","prac","0","0","1","0",""
"null","null","fixation","html-keyboard-response","73","285596","0.0-1.0-4.2-3.2-0.14","07:59:58","6","","","","","","","fixation","","","","","","","","","","","","","","","","","","",""
"801","2","pic_response","html-keyboard-response","74","286398","0.0-1.0-4.2-3.2-1.14","07:59:58","6","","","","","","","<div>
            <img class='stim' src=""pictures/prac/1.jpg""></div><div class=""button_prompt"">
                        <b>请用数字键1-3回答</b>
                        </div>","","","","","","","","","","","","","","","","","","",""
"801","null","sub_response","html-keyboard-response","75","287398","0.0-1.0-4.2-3.2-2.14","07:59:58","6","","","","","","","<div style='text-align: center;'>
                            <span style=""color: red; font-size: 40px""><b>错误！+0 pts</b></span></div>
                            ","","learn","1","1","1","learn","0","0","[0, 1, 2]","2","0","setsize","99","prac","0","0","1","0",""
"null","null","fixation","html-keyboard-response","76","287899","0.0-1.0-4.2-3.2-0.15","07:59:58","6","","","","","","","fixation","","","","","","","","","","","","","","","","","","",""
"341","1","pic_response","html-keyboard-response","77","288241","0.0-1.0-4.2-3.2-1.15","07:59:58","6","","","","","","","<div>
            <img class='stim' src=""pictures/prac/1.jpg""></div><div class=""button_prompt"">
                        <b>请用数字键1-3回答</b>
                        </div>","","","","","","","","","","","","","","","","","","",""
"341","null","sub_response","html-keyboard-response","78","289243","0.0-1.0-4.2-3.2-2.15","07:59:58","6","","","","","","","<div style='text-align: center;'>
                            <span style=""color: green; font-size: 40px""><b>正确！+1 pts</b></span></div>
                            ","","learn","1","1","1","learn","0","0","[0, 1, 2]","3","1","setsize","99","prac","0","1","0","1",""
"null","null","fixation","html-keyboard-response","79","289745","0.0-1.0-4.2-3.2-0.16","07:59:58","6","","","","","","","fixation","","","","","","","","","","","","","","","","","","",""
"737","3","pic_response","html-keyboard-response","80","290483","0.0-1.0-4.2-3.2-1.16","07:59:58","6","","","","","","","<div>
            <img class='stim' src=""pictures/prac/0.jpg""></div><div class=""button_prompt"">
                        <b>请用数字键1-3回答</b>
                        </div>","","","","","","","","","","","","","","","","","","",""
"737","null","sub_response","html-keyboard-response","81","291485","0.0-1.0-4.2-3.2-2.16","07:59:58","6","","","","","","","<div style='text-align: center;'>
                            <span style=""color: red; font-size: 40px""><b>错误！+0 pts</b></span></div>
                            ","","learn","0","0","0","learn","0","0","[0, 1, 2]","4","1","setsize","99","prac","0","0","2","0",""
"null","null","fixation","html-keyboard-response","82","291986","0.0-1.0-4.2-3.2-0.17","07:59:58","6","","","","","","","fixation","","","","","","","","","","","","","","","","","","",""
"398","3","pic_response","html-keyboard-response","83","292385","0.0-1.0-4.2-3.2-1.17","07:59:58","6","","","","","","","<div>
            <img class='stim' src=""pictures/prac/2.jpg""></div><div class=""button_prompt"">
                        <b>请用数字键1-3回答</b>
                        </div>","","","","","","","","","","","","","","","","","","",""
"398","null","sub_response","html-keyboard-response","84","293387","0.0-1.0-4.2-3.2-2.17","07:59:58","6","","","","","","","<div style='text-align: center;'>
                            <span style=""color: green; font-size: 40px""><b>正确！+1 pts</b></span></div>
                            ","","learn","2","2","2","learn","2","2","[0, 1, 2]","5","1","setsize","99","prac","0","1","2","1",""
"","","","preload","85","293390","0.0-1.0-4.3-0.3","07:59:58","6","true","false","[]","[]","[]","","","","","","","","","","","","","","","","","","","","",""
"1279"," ","","html-keyboard-response","86","294669","0.0-1.0-4.3-1.3","07:59:58","6","","","","","","","<div style='font-size: 32px; text-align: center;'
                    <p>请学习图片和数字之间的对应关系</p>
                    <p>我们将<span style='color: blue'><b> 告诉 </b></span>您选择的对错。请根据反馈学习。</p>
                    <p>请按""空格""继续实验。</p></div>","","","","","","","","","","","","","","","","","","",""
"963"," ","inst","html-keyboard-response","87","295633","0.0-1.0-4.3-2.3","07:59:58","6","","","","","","","<img class='instruct_stim' src=""instruction/prac3.PNG""></div>","","","","","","","","","","","","","","","","","","",""
"null","null","fixation","html-keyboard-response","88","296134","0.0-1.0-4.3-3.3-0.18","07:59:58","6","","","","","","","fixation","","","","","","","","","","","","","","","","","","",""
"1174","3","pic_response","html-keyboard-response","89","297309","0.0-1.0-4.3-3.3-1.18","07:59:58","6","","","","","","","<div>
            <img class='stim' src=""pictures/prac/2.jpg""></div><div class=""button_prompt"">
                        <b>请用数字键1-3回答</b>
                        </div>","","","","","","","","","","","","","","","","","","",""
"1174","null","sub_response","html-keyboard-response","90","298310","0.0-1.0-4.3-3.3-2.18","07:59:58","6","","","","","","","<div style='text-align: center;'>
                            <span style=""color: green; font-size: 40px""><b>正确！+1 pts</b></span></div>
                            ","","learn","2","2","2","learn","2","2","[0, 1, 2]","0","0","setsize","99","prac","0","2","2","1",""
"null","null","fixation","html-keyboard-response","91","298811","0.0-1.0-4.3-3.3-0.19","07:59:58","6","","","","","","","fixation","","","","","","","","","","","","","","","","","","",""
"896","1","pic_response","html-keyboard-response","92","299708","0.0-1.0-4.3-3.3-1.19","07:59:58","6","","","","","","","<div>
            <img class='stim' src=""pictures/prac/0.jpg""></div><div class=""button_prompt"">
                        <b>请用数字键1-3回答</b>
                        </div>","","","","","","","","","","","","","","","","","","",""
"896","null","sub_response","html-keyboard-response","93","300709","0.0-1.0-4.3-3.3-2.19","07:59:58","6","","","","","","","<div style='text-align: center;'>
                            <span style=""color: green; font-size: 40px""><b>正确！+1 pts</b></span></div>
                            ","","learn","0","0","0","learn","0","0","[0, 1, 2]","1","0","setsize","99","prac","0","3","0","1",""
"null","null","fixation","html-keyboard-response","94","301211","0.0-1.0-4.3-3.3-0.20","07:59:58","6","","","","","","","fixation","","","","","","","","","","","","","","","","","","",""
"454","1","pic_response","html-keyboard-response","95","301666","0.0-1.0-4.3-3.3-1.20","07:59:58","6","","","","","","","<div>
            <img class='stim' src=""pictures/prac/1.jpg""></div><div class=""button_prompt"">
                        <b>请用数字键1-3回答</b>
                        </div>","","","","","","","","","","","","","","","","","","",""
"454","null","sub_response","html-keyboard-response","96","302668","0.0-1.0-4.3-3.3-2.20","07:59:58","6","","","","","","","<div style='text-align: center;'>
                            <span style=""color: green; font-size: 40px""><b>正确！+1 pts</b></span></div>
                            ","","learn","1","1","1","learn","0","0","[0, 1, 2]","2","0","setsize","99","prac","0","4","0","1",""
"null","null","fixation","html-keyboard-response","97","303169","0.0-1.0-4.3-3.3-0.21","07:59:58","6","","","","","","","fixation","","","","","","","","","","","","","","","","","","",""
"603","1","pic_response","html-keyboard-response","98","303773","0.0-1.0-4.3-3.3-1.21","07:59:58","6","","","","","","","<div>
            <img class='stim' src=""pictures/prac/1.jpg""></div><div class=""button_prompt"">
                        <b>请用数字键1-3回答</b>
                        </div>","","","","","","","","","","","","","","","","","","",""
"603","null","sub_response","html-keyboard-response","99","304774","0.0-1.0-4.3-3.3-2.21","07:59:58","6","","","","","","","<div style='text-align: center;'>
                            <span style=""color: green; font-size: 40px""><b>正确！+1 pts</b></span></div>
                            ","","learn","1","1","1","learn","0","0","[0, 1, 2]","3","1","setsize","99","prac","0","5","0","1",""
"null","null","fixation","html-keyboard-response","100","305275","0.0-1.0-4.3-3.3-0.22","07:59:58","6","","","","","","","fixation","","","","","","","","","","","","","","","","","","",""
"498","3","pic_response","html-keyboard-response","101","305773","0.0-1.0-4.3-3.3-1.22","07:59:58","6","","","","","","","<div>
            <img class='stim' src=""pictures/prac/0.jpg""></div><div class=""button_prompt"">
                        <b>请用数字键1-3回答</b>
                        </div>","","","","","","","","","","","","","","","","","","",""
"498","null","sub_response","html-keyboard-response","102","306775","0.0-1.0-4.3-3.3-2.22","07:59:58","6","","","","","","","<div style='text-align: center;'>
                            <span style=""color: red; font-size: 40px""><b>错误！+0 pts</b></span></div>
                            ","","learn","0","0","0","learn","0","0","[0, 1, 2]","4","1","setsize","99","prac","0","0","2","0",""
"null","null","fixation","html-keyboard-response","103","307276","0.0-1.0-4.3-3.3-0.23","07:59:58","6","","","","","","","fixation","","","","","","","","","","","","","","","","","","",""
"638","1","pic_response","html-keyboard-response","104","307915","0.0-1.0-4.3-3.3-1.23","07:59:58","6","","","","","","","<div>
            <img class='stim' src=""pictures/prac/2.jpg""></div><div class=""button_prompt"">
                        <b>请用数字键1-3回答</b>
                        </div>","","","","","","","","","","","","","","","","","","",""
"638","null","sub_response","html-keyboard-response","105","308916","0.0-1.0-4.3-3.3-2.23","07:59:58","6","","","","","","","<div style='text-align: center;'>
                            <span style=""color: red; font-size: 40px""><b>错误！+0 pts</b></span></div>
                            ","","learn","2","2","2","learn","2","2","[0, 1, 2]","5","1","setsize","99","prac","0","0","0","0",""
"","","","preload","106","308920","0.0-1.0-4.4-0.4","07:59:58","6","true","false","[]","[]","[]","","","","","","","","","","","","","","","","","","","","",""
"3232"," ","","html-keyboard-response","107","312153","0.0-1.0-4.4-1.4","07:59:58","6","","","","","","","<div style='font-size: 32px; text-align: center;'
                    <p>请学习图片和数字之间的对应关系</p>
                    <p>我们将<span style='color: blue'><b> 告诉 </b></span>您选择的对错。请根据反馈学习。</p>
                    <p>请按""空格""继续实验。</p></div>","","","","","","","","","","","","","","","","","","",""
"1252"," ","inst","html-keyboard-response","108","313405","0.0-1.0-4.4-2.4","07:59:58","6","","","","","","","<img class='instruct_stim' src=""instruction/prac3.PNG""></div>","","","","","","","","","","","","","","","","","","",""
"null","null","fixation","html-keyboard-response","109","313906","0.0-1.0-4.4-3.4-0.24","07:59:58","6","","","","","","","fixation","","","","","","","","","","","","","","","","","","",""
"1879","1","pic_response","html-keyboard-response","110","315786","0.0-1.0-4.4-3.4-1.24","07:59:58","6","","","","","","","<div>
            <img class='stim' src=""pictures/prac/2.jpg""></div><div class=""button_prompt"">
                        <b>请用数字键1-3回答</b>
                        </div>","","","","","","","","","","","","","","","","","","",""
"1879","null","sub_response","html-keyboard-response","111","316787","0.0-1.0-4.4-3.4-2.24","07:59:58","6","","","","","","","<div style='text-align: center;'>
                            <span style=""color: red; font-size: 40px""><b>错误！+0 pts</b></span></div>
                            ","","learn","2","2","2","learn","2","2","[0, 1, 2]","0","0","setsize","99","prac","0","0","0","0",""
"null","null","fixation","html-keyboard-response","112","317288","0.0-1.0-4.4-3.4-0.25","07:59:58","6","","","","","","","fixation","","","","","","","","","","","","","","","","","","",""
"1045","1","pic_response","html-keyboard-response","113","318334","0.0-1.0-4.4-3.4-1.25","07:59:58","6","","","","","","","<div>
            <img class='stim' src=""pictures/prac/0.jpg""></div><div class=""button_prompt"">
                        <b>请用数字键1-3回答</b>
                        </div>","","","","","","","","","","","","","","","","","","",""
"1045","null","sub_response","html-keyboard-response","114","319336","0.0-1.0-4.4-3.4-2.25","07:59:58","6","","","","","","","<div style='text-align: center;'>
                            <span style=""color: green; font-size: 40px""><b>正确！+1 pts</b></span></div>
                            ","","learn","0","0","0","learn","0","0","[0, 1, 2]","1","0","setsize","99","prac","0","1","0","1",""
"null","null","fixation","html-keyboard-response","115","319837","0.0-1.0-4.4-3.4-0.26","07:59:58","6","","","","","","","fixation","","","","","","","","","","","","","","","","","","",""
"349","1","pic_response","html-keyboard-response","116","320187","0.0-1.0-4.4-3.4-1.26","07:59:58","6","","","","","","","<div>
            <img class='stim' src=""pictures/prac/1.jpg""></div><div class=""button_prompt"">
                        <b>请用数字键1-3回答</b>
                        </div>","","","","","","","","","","","","","","","","","","",""
"349","null","sub_response","html-keyboard-response","117","321190","0.0-1.0-4.4-3.4-2.26","07:59:58","6","","","","","","","<div style='text-align: center;'>
                            <span style=""color: green; font-size: 40px""><b>正确！+1 pts</b></span></div>
                            ","","learn","1","1","1","learn","0","0","[0, 1, 2]","2","0","setsize","99","prac","0","2","0","1",""
"null","null","fixation","html-keyboard-response","118","321692","0.0-1.0-4.4-3.4-0.27","07:59:58","6","","","","","","","fixation","","","","","","","","","","","","","","","","","","",""
"485","1","pic_response","html-keyboard-response","119","322178","0.0-1.0-4.4-3.4-1.27","07:59:58","6","","","","","","","<div>
            <img class='stim' src=""pictures/prac/1.jpg""></div><div class=""button_prompt"">
                        <b>请用数字键1-3回答</b>
                        </div>","","","","","","","","","","","","","","","","","","",""
"485","null","sub_response","html-keyboard-response","120","323180","0.0-1.0-4.4-3.4-2.27","07:59:58","6","","","","","","","<div style='text-align: center;'>
                            <span style=""color: green; font-size: 40px""><b>正确！+1 pts</b></span></div>
                            ","","learn","1","1","1","learn","0","0","[0, 1, 2]","3","1","setsize","99","prac","0","3","0","1",""
"null","null","fixation","html-keyboard-response","121","323682","0.0-1.0-4.4-3.4-0.28","07:59:58","6","","","","","","","fixation","","","","","","","","","","","","","","","","","","",""
"929","3","pic_response","html-keyboard-response","122","324612","0.0-1.0-4.4-3.4-1.28","07:59:58","6","","","","","","","<div>
            <img class='stim' src=""pictures/prac/0.jpg""></div><div class=""button_prompt"">
                        <b>请用数字键1-3回答</b>
                        </div>","","","","","","","","","","","","","","","","","","",""
"929","null","sub_response","html-keyboard-response","123","325613","0.0-1.0-4.4-3.4-2.28","07:59:58","6","","","","","","","<div style='text-align: center;'>
                            <span style=""color: red; font-size: 40px""><b>错误！+0 pts</b></span></div>
                            ","","learn","0","0","0","learn","0","0","[0, 1, 2]","4","1","setsize","99","prac","0","0","2","0",""
"null","null","fixation","html-keyboard-response","124","326116","0.0-1.0-4.4-3.4-0.29","07:59:58","6","","","","","","","fixation","","","","","","","","","","","","","","","","","","",""
"1356","3","pic_response","html-keyboard-response","125","327472","0.0-1.0-4.4-3.4-1.29","07:59:58","6","","","","","","","<div>
            <img class='stim' src=""pictures/prac/2.jpg""></div><div class=""button_prompt"">
                        <b>请用数字键1-3回答</b>
                        </div>","","","","","","","","","","","","","","","","","","",""
"1356","null","sub_response","html-keyboard-response","126","328474","0.0-1.0-4.4-3.4-2.29","07:59:58","6","","","","","","","<div style='text-align: center;'>
                            <span style=""color: green; font-size: 40px""><b>正确！+1 pts</b></span></div>
                            ","","learn","2","2","2","learn","2","2","[0, 1, 2]","5","1","setsize","99","prac","0","1","2","1",""
"","","","preload","127","328476","0.0-1.0-4.5-0.5","07:59:58","6","true","false","[]","[]","[]","","","","","","","","","","","","","","","","","","","","",""
"755"," ","","html-keyboard-response","128","329231","0.0-1.0-4.5-1.5","07:59:58","6","","","","","","","<div style='font-size: 32px; text-align: center;'
                    <p>请学习图片和数字之间的对应关系</p>
                    <p>我们将<span style='color: blue'><b> 告诉 </b></span>您选择的对错。请根据反馈学习。</p>
                    <p>请按""空格""继续实验。</p></div>","","","","","","","","","","","","","","","","","","",""
"2976"," ","inst","html-keyboard-response","129","332207","0.0-1.0-4.5-2.5","07:59:58","6","","","","","","","<img class='instruct_stim' src=""instruction/prac3.PNG""></div>","","","","","","","","","","","","","","","","","","",""
"null","null","fixation","html-keyboard-response","130","332708","0.0-1.0-4.5-3.5-0.30","07:59:58","6","","","","","","","fixation","","","","","","","","","","","","","","","","","","",""
"866","3","pic_response","html-keyboard-response","131","333574","0.0-1.0-4.5-3.5-1.30","07:59:58","6","","","","","","","<div>
            <img class='stim' src=""pictures/prac/2.jpg""></div><div class=""button_prompt"">
                        <b>请用数字键1-3回答</b>
                        </div>","","","","","","","","","","","","","","","","","","",""
"866","null","sub_response","html-keyboard-response","132","334576","0.0-1.0-4.5-3.5-2.30","07:59:58","6","","","","","","","<div style='text-align: center;'>
                            <span style=""color: green; font-size: 40px""><b>正确！+1 pts</b></span></div>
                            ","","learn","2","2","2","learn","2","2","[0, 1, 2]","0","0","setsize","99","prac","0","2","2","1",""
"null","null","fixation","html-keyboard-response","133","335078","0.0-1.0-4.5-3.5-0.31","07:59:58","6","","","","","","","fixation","","","","","","","","","","","","","","","","","","",""
"367","1","pic_response","html-keyboard-response","134","335446","0.0-1.0-4.5-3.5-1.31","07:59:58","6","","","","","","","<div>
            <img class='stim' src=""pictures/prac/0.jpg""></div><div class=""button_prompt"">
                        <b>请用数字键1-3回答</b>
                        </div>","","","","","","","","","","","","","","","","","","",""
"367","null","sub_response","html-keyboard-response","135","336447","0.0-1.0-4.5-3.5-2.31","07:59:58","6","","","","","","","<div style='text-align: center;'>
                            <span style=""color: green; font-size: 40px""><b>正确！+1 pts</b></span></div>
                            ","","learn","0","0","0","learn","0","0","[0, 1, 2]","1","0","setsize","99","prac","0","3","0","1",""
"null","null","fixation","html-keyboard-response","136","336949","0.0-1.0-4.5-3.5-0.32","07:59:58","6","","","","","","","fixation","","","","","","","","","","","","","","","","","","",""
"358","1","pic_response","html-keyboard-response","137","337308","0.0-1.0-4.5-3.5-1.32","07:59:58","6","","","","","","","<div>
            <img class='stim' src=""pictures/prac/1.jpg""></div><div class=""button_prompt"">
                        <b>请用数字键1-3回答</b>
                        </div>","","","","","","","","","","","","","","","","","","",""
"358","null","sub_response","html-keyboard-response","138","338309","0.0-1.0-4.5-3.5-2.32","07:59:58","6","","","","","","","<div style='text-align: center;'>
                            <span style=""color: green; font-size: 40px""><b>正确！+1 pts</b></span></div>
                            ","","learn","1","1","1","learn","0","0","[0, 1, 2]","2","0","setsize","99","prac","0","4","0","1",""
"null","null","fixation","html-keyboard-response","139","338810","0.0-1.0-4.5-3.5-0.33","07:59:58","6","","","","","","","fixation","","","","","","","","","","","","","","","","","","",""
"375","1","pic_response","html-keyboard-response","140","339186","0.0-1.0-4.5-3.5-1.33","07:59:58","6","","","","","","","<div>
            <img class='stim' src=""pictures/prac/1.jpg""></div><div class=""button_prompt"">
                        <b>请用数字键1-3回答</b>
                        </div>","","","","","","","","","","","","","","","","","","",""
"375","null","sub_response","html-keyboard-response","141","340188","0.0-1.0-4.5-3.5-2.33","07:59:58","6","","","","","","","<div style='text-align: center;'>
                            <span style=""color: green; font-size: 40px""><b>正确！+1 pts</b></span></div>
                            ","","learn","1","1","1","learn","0","0","[0, 1, 2]","3","1","setsize","99","prac","0","5","0","1",""
"null","null","fixation","html-keyboard-response","142","340689","0.0-1.0-4.5-3.5-0.34","07:59:58","6","","","","","","","fixation","","","","","","","","","","","","","","","","","","",""
"434","3","pic_response","html-keyboard-response","143","341124","0.0-1.0-4.5-3.5-1.34","07:59:58","6","","","","","","","<div>
            <img class='stim' src=""pictures/prac/0.jpg""></div><div class=""button_prompt"">
                        <b>请用数字键1-3回答</b>
                        </div>","","","","","","","","","","","","","","","","","","",""
"434","null","sub_response","html-keyboard-response","144","342125","0.0-1.0-4.5-3.5-2.34","07:59:58","6","","","","","","","<div style='text-align: center;'>
                            <span style=""color: red; font-size: 40px""><b>错误！+0 pts</b></span></div>
                            ","","learn","0","0","0","learn","0","0","[0, 1, 2]","4","1","setsize","99","prac","0","0","2","0",""
"null","null","fixation","html-keyboard-response","145","342627","0.0-1.0-4.5-3.5-0.35","07:59:58","6","","","","","","","fixation","","","","","","","","","","","","","","","","","","",""
"1505","3","pic_response","html-keyboard-response","146","344132","0.0-1.0-4.5-3.5-1.35","07:59:58","6","","","","","","","<div>
            <img class='stim' src=""pictures/prac/2.jpg""></div><div class=""button_prompt"">
                        <b>请用数字键1-3回答</b>
                        </div>","","","","","","","","","","","","","","","","","","",""
"1505","null","sub_response","html-keyboard-response","147","345133","0.0-1.0-4.5-3.5-2.35","07:59:58","6","","","","","","","<div style='text-align: center;'>
                            <span style=""color: green; font-size: 40px""><b>正确！+1 pts</b></span></div>
                            ","","learn","2","2","2","learn","2","2","[0, 1, 2]","5","1","setsize","99","prac","0","1","2","1",""
"1910"," ","","html-keyboard-response","148","347044","0.0-1.0-5.0","07:59:58","6","","","","","","","<div style=""font-size: 25px""><p>距下一个实验开始还有</p><div style=""font-size: 50px; color: blue""><p><span id=""clock"">1:00</span></div></p><p>按""空格""跳过休息</p></div>","","","","","","","","","","","","","","","","","","",""
"613"," ","","html-keyboard-response","149","347658","0.0-1.0-6.0","07:59:58","6","","","","","","","<div style='font-size: 32px; text-align: center;'
                    <p>请按""空格""继续正式实验。</p></div>","","","","","","","","","","","","","","","","","","",""
"","","","preload","150","347881","0.0-1.0-7.0-0.0","07:59:58","6","true","false","[]","[]","[]","","","","","","","","","","","","","","","","","","","","",""
"541"," ","","html-keyboard-response","151","348422","0.0-1.0-7.0-1.0","07:59:58","6","","","","","","","<div style='font-size: 32px; text-align: center;'
                    <p>请学习图片和数字之间的对应关系</p>
                    <p>我们将<span style='color: blue'><b> 告诉 </b></span>您选择的对错。请根据反馈学习。</p>
                    <p>请按""空格""继续实验。</p></div>","","","","","","","","","","","","","","","","","","",""
"15808"," ","inst","html-keyboard-response","152","364231","0.0-1.0-7.0-2.0","07:59:58","6","","","","","","","<img class='instruct_stim' src=""instruction/sports10.PNG""></div>","","","","","","","","","","","","","","","","","","",""
"null","null","fixation","html-keyboard-response","153","364732","0.0-1.0-7.0-3.0-0.0","07:59:58","6","","","","","","","fixation","","","","","","","","","","","","","","","","","","",""
"1051","3","pic_response","html-keyboard-response","154","365783","0.0-1.0-7.0-3.0-1.0","07:59:58","6","","","","","","","<div>
            <img class='stim' src=""pictures/sports/9.jpg""></div><div class=""button_prompt"">
                        <b>请用数字键1-3回答</b>
                        </div>","","","","","","","","","","","","","","","","","","",""
"1051","null","sub_response","html-keyboard-response","155","366785","0.0-1.0-7.0-3.0-2.0","07:59:58","6","","","","","","","<div style='text-align: center;'>
                            <span style=""color: green; font-size: 40px""><b>正确！+1 pts</b></span></div>
                            ","","learn","9","9","9","learn","2","2","[0, 1, 2]","0","0","setsize","10S3A","sports","1","2","2","1",""
"null","null","fixation","html-keyboard-response","156","367286","0.0-1.0-7.0-3.0-0.1","07:59:58","6","","","","","","","fixation","","","","","","","","","","","","","","","","","","",""
"2821","2","pic_response","html-keyboard-response","157","370108","0.0-1.0-7.0-3.0-1.1","07:59:58","6","","","","","","","<div>
            <img class='stim' src=""pictures/sports/6.jpg""></div><div class=""button_prompt"">
                        <b>请用数字键1-3回答</b>
                        </div>","","","","","","","","","","","","","","","","","","",""
"2821","null","sub_response","html-keyboard-response","158","371110","0.0-1.0-7.0-3.0-2.1","07:59:58","6","","","","","","","<div style='text-align: center;'>
                            <span style=""color: red; font-size: 40px""><b>错误！+0 pts</b></span></div>
                            ","","learn","6","6","6","learn","2","2","[0, 1, 2]","1","0","setsize","10S3A","sports","1","0","1","0",""
"null","null","fixation","html-keyboard-response","159","371612","0.0-1.0-7.0-3.0-0.2","07:59:58","6","","","","","","","fixation","","","","","","","","","","","","","","","","","","",""
"682","1","pic_response","html-keyboard-response","160","372295","0.0-1.0-7.0-3.0-1.2","07:59:58","6","","","","","","","<div>
            <img class='stim' src=""pictures/sports/8.jpg""></div><div class=""button_prompt"">
                        <b>请用数字键1-3回答</b>
                        </div>","","","","","","","","","","","","","","","","","","",""
"682","null","sub_response","html-keyboard-response","161","373296","0.0-1.0-7.0-3.0-2.2","07:59:58","6","","","","","","","<div style='text-align: center;'>
                            <span style=""color: red; font-size: 40px""><b>错误！+0 pts</b></span></div>
                            ","","learn","8","8","8","learn","2","2","[0, 1, 2]","2","0","setsize","10S3A","sports","1","0","0","0",""
"null","null","fixation","html-keyboard-response","162","373797","0.0-1.0-7.0-3.0-0.3","07:59:58","6","","","","","","","fixation","","","","","","","","","","","","","","","","","","",""
"945","3","pic_response","html-keyboard-response","163","374743","0.0-1.0-7.0-3.0-1.3","07:59:58","6","","","","","","","<div>
            <img class='stim' src=""pictures/sports/4.jpg""></div><div class=""button_prompt"">
                        <b>请用数字键1-3回答</b>
                        </div>","","","","","","","","","","","","","","","","","","",""
"945","null","sub_response","html-keyboard-response","164","375744","0.0-1.0-7.0-3.0-2.3","07:59:58","6","","","","","","","<div style='text-align: center;'>
                            <span style=""color: red; font-size: 40px""><b>错误！+0 pts</b></span></div>
                            ","","learn","4","4","4","learn","1","1","[0, 1, 2]","3","0","setsize","10S3A","sports","1","0","2","0",""
"null","null","fixation","html-keyboard-response","165","376246","0.0-1.0-7.0-3.0-0.4","07:59:58","6","","","","","","","fixation","","","","","","","","","","","","","","","","","","",""
"510","2","pic_response","html-keyboard-response","166","376757","0.0-1.0-7.0-3.0-1.4","07:59:58","6","","","","","","","<div>
            <img class='stim' src=""pictures/sports/3.jpg""></div><div class=""button_prompt"">
                        <b>请用数字键1-3回答</b>
                        </div>","","","","","","","","","","","","","","","","","","",""
"510","null","sub_response","html-keyboard-response","167","377758","0.0-1.0-7.0-3.0-2.4","07:59:58","6","","","","","","","<div style='text-align: center;'>
                            <span style=""color: green; font-size: 40px""><b>正确！+1 pts</b></span></div>
                            ","","learn","3","3","3","learn","1","1","[0, 1, 2]","4","0","setsize","10S3A","sports","1","1","1","1",""
"null","null","fixation","html-keyboard-response","168","378260","0.0-1.0-7.0-3.0-0.5","07:59:58","6","","","","","","","fixation","","","","","","","","","","","","","","","","","","",""
"571","2","pic_response","html-keyboard-response","169","378833","0.0-1.0-7.0-3.0-1.5","07:59:58","6","","","","","","","<div>
            <img class='stim' src=""pictures/sports/7.jpg""></div><div class=""button_prompt"">
                        <b>请用数字键1-3回答</b>
                        </div>","","","","","","","","","","","","","","","","","","",""
"571","null","sub_response","html-keyboard-response","170","379835","0.0-1.0-7.0-3.0-2.5","07:59:58","6","","","","","","","<div style='text-align: center;'>
                            <span style=""color: red; font-size: 40px""><b>错误！+0 pts</b></span></div>
                            ","","learn","7","7","7","learn","2","2","[0, 1, 2]","5","0","setsize","10S3A","sports","1","0","1","0",""
"null","null","fixation","html-keyboard-response","171","380336","0.0-1.0-7.0-3.0-0.6","07:59:58","6","","","","","","","fixation","","","","","","","","","","","","","","","","","","",""
"664","1","pic_response","html-keyboard-response","172","381001","0.0-1.0-7.0-3.0-1.6","07:59:58","6","","","","","","","<div>
            <img class='stim' src=""pictures/sports/1.jpg""></div><div class=""button_prompt"">
                        <b>请用数字键1-3回答</b>
                        </div>","","","","","","","","","","","","","","","","","","",""
"664","null","sub_response","html-keyboard-response","173","382002","0.0-1.0-7.0-3.0-2.6","07:59:58","6","","","","","","","<div style='text-align: center;'>
                            <span style=""color: green; font-size: 40px""><b>正确！+1 pts</b></span></div>
                            ","","learn","1","1","1","learn","0","0","[0, 1, 2]","6","0","setsize","10S3A","sports","1","1","0","1",""
"null","null","fixation","html-keyboard-response","174","382503","0.0-1.0-7.0-3.0-0.7","07:59:58","6","","","","","","","fixation","","","","","","","","","","","","","","","","","","",""
"847","1","pic_response","html-keyboard-response","175","383351","0.0-1.0-7.0-3.0-1.7","07:59:58","6","","","","","","","<div>
            <img class='stim' src=""pictures/sports/2.jpg""></div><div class=""button_prompt"">
                        <b>请用数字键1-3回答</b>
                        </div>","","","","","","","","","","","","","","","","","","",""
"847","null","sub_response","html-keyboard-response","176","384352","0.0-1.0-7.0-3.0-2.7","07:59:58","6","","","","","","","<div style='text-align: center;'>
                            <span style=""color: green; font-size: 40px""><b>正确！+1 pts</b></span></div>
                            ","","learn","2","2","2","learn","0","0","[0, 1, 2]","7","0","setsize","10S3A","sports","1","2","0","1",""
"null","null","fixation","html-keyboard-response","177","384854","0.0-1.0-7.0-3.0-0.8","07:59:58","6","","","","","","","fixation","","","","","","","","","","","","","","","","","","",""
"833","3","pic_response","html-keyboard-response","178","385688","0.0-1.0-7.0-3.0-1.8","07:59:58","6","","","","","","","<div>
            <img class='stim' src=""pictures/sports/0.jpg""></div><div class=""button_prompt"">
                        <b>请用数字键1-3回答</b>
                        </div>","","","","","","","","","","","","","","","","","","",""
"833","null","sub_response","html-keyboard-response","179","386689","0.0-1.0-7.0-3.0-2.8","07:59:58","6","","","","","","","<div style='text-align: center;'>
                            <span style=""color: red; font-size: 40px""><b>错误！+0 pts</b></span></div>
                            ","","learn","0","0","0","learn","0","0","[0, 1, 2]","8","0","setsize","10S3A","sports","1","0","2","0",""
"null","null","fixation","html-keyboard-response","180","387192","0.0-1.0-7.0-3.0-0.9","07:59:58","6","","","","","","","fixation","","","","","","","","","","","","","","","","","","",""
"897","2","pic_response","html-keyboard-response","181","388090","0.0-1.0-7.0-3.0-1.9","07:59:58","6","","","","","","","<div>
            <img class='stim' src=""pictures/sports/5.jpg""></div><div class=""button_prompt"">
                        <b>请用数字键1-3回答</b>
                        </div>","","","","","","","","","","","","","","","","","","",""
"897","null","sub_response","html-keyboard-response","182","389092","0.0-1.0-7.0-3.0-2.9","07:59:58","6","","","","","","","<div style='text-align: center;'>
                            <span style=""color: green; font-size: 40px""><b>正确！+1 pts</b></span></div>
                            ","","learn","5","5","5","learn","1","1","[0, 1, 2]","9","0","setsize","10S3A","sports","1","1","1","1",""
"null","null","fixation","html-keyboard-response","183","389594","0.0-1.0-7.0-3.0-0.10","07:59:58","6","","","","","","","fixation","","","","","","","","","","","","","","","","","","",""
"401","2","pic_response","html-keyboard-response","184","389996","0.0-1.0-7.0-3.0-1.10","07:59:58","6","","","","","","","<div>
            <img class='stim' src=""pictures/sports/5.jpg""></div><div class=""button_prompt"">
                        <b>请用数字键1-3回答</b>
                        </div>","","","","","","","","","","","","","","","","","","",""
"401","null","sub_response","html-keyboard-response","185","390998","0.0-1.0-7.0-3.0-2.10","07:59:58","6","","","","","","","<div style='text-align: center;'>
                            <span style=""color: green; font-size: 40px""><b>正确！+1 pts</b></span></div>
                            ","","learn","5","5","5","learn","1","1","[0, 1, 2]","10","1","setsize","10S3A","sports","1","2","1","1",""
"null","null","fixation","html-keyboard-response","186","391499","0.0-1.0-7.0-3.0-0.11","07:59:58","6","","","","","","","fixation","","","","","","","","","","","","","","","","","","",""
"1010","3","pic_response","html-keyboard-response","187","392510","0.0-1.0-7.0-3.0-1.11","07:59:58","6","","","","","","","<div>
            <img class='stim' src=""pictures/sports/8.jpg""></div><div class=""button_prompt"">
                        <b>请用数字键1-3回答</b>
                        </div>","","","","","","","","","","","","","","","","","","",""
"1010","null","sub_response","html-keyboard-response","188","393511","0.0-1.0-7.0-3.0-2.11","07:59:58","6","","","","","","","<div style='text-align: center;'>
                            <span style=""color: green; font-size: 40px""><b>正确！+1 pts</b></span></div>
                            ","","learn","8","8","8","learn","2","2","[0, 1, 2]","11","1","setsize","10S3A","sports","1","3","2","1",""
"null","null","fixation","html-keyboard-response","189","394013","0.0-1.0-7.0-3.0-0.12","07:59:58","6","","","","","","","fixation","","","","","","","","","","","","","","","","","","",""
"987","3","pic_response","html-keyboard-response","190","395000","0.0-1.0-7.0-3.0-1.12","07:59:58","6","","","","","","","<div>
            <img class='stim' src=""pictures/sports/9.jpg""></div><div class=""button_prompt"">
                        <b>请用数字键1-3回答</b>
                        </div>","","","","","","","","","","","","","","","","","","",""
"987","null","sub_response","html-keyboard-response","191","396002","0.0-1.0-7.0-3.0-2.12","07:59:58","6","","","","","","","<div style='text-align: center;'>
                            <span style=""color: green; font-size: 40px""><b>正确！+1 pts</b></span></div>
                            ","","learn","9","9","9","learn","2","2","[0, 1, 2]","12","1","setsize","10S3A","sports","1","4","2","1",""
"null","null","fixation","html-keyboard-response","192","396503","0.0-1.0-7.0-3.0-0.13","07:59:58","6","","","","","","","fixation","","","","","","","","","","","","","","","","","","",""
"847","2","pic_response","html-keyboard-response","193","397352","0.0-1.0-7.0-3.0-1.13","07:59:58","6","","","","","","","<div>
            <img class='stim' src=""pictures/sports/2.jpg""></div><div class=""button_prompt"">
                        <b>请用数字键1-3回答</b>
                        </div>","","","","","","","","","","","","","","","","","","",""
"847","null","sub_response","html-keyboard-response","194","398354","0.0-1.0-7.0-3.0-2.13","07:59:58","6","","","","","","","<div style='text-align: center;'>
                            <span style=""color: red; font-size: 40px""><b>错误！+0 pts</b></span></div>
                            ","","learn","2","2","2","learn","0","0","[0, 1, 2]","13","1","setsize","10S3A","sports","1","0","1","0",""
"null","null","fixation","html-keyboard-response","195","398855","0.0-1.0-7.0-3.0-0.14","07:59:58","6","","","","","","","fixation","","","","","","","","","","","","","","","","","","",""
"967","1","pic_response","html-keyboard-response","196","399823","0.0-1.0-7.0-3.0-1.14","07:59:58","6","","","","","","","<div>
            <img class='stim' src=""pictures/sports/7.jpg""></div><div class=""button_prompt"">
                        <b>请用数字键1-3回答</b>
                        </div>","","","","","","","","","","","","","","","","","","",""
"967","null","sub_response","html-keyboard-response","197","400825","0.0-1.0-7.0-3.0-2.14","07:59:58","6","","","","","","","<div style='text-align: center;'>
                            <span style=""color: red; font-size: 40px""><b>错误！+0 pts</b></span></div>
                            ","","learn","7","7","7","learn","2","2","[0, 1, 2]","14","1","setsize","10S3A","sports","1","0","0","0",""
"null","null","fixation","html-keyboard-response","198","401327","0.0-1.0-7.0-3.0-0.15","07:59:58","6","","","","","","","fixation","","","","","","","","","","","","","","","","","","",""
"930","1","pic_response","html-keyboard-response","199","402258","0.0-1.0-7.0-3.0-1.15","07:59:58","6","","","","","","","<div>
            <img class='stim' src=""pictures/sports/6.jpg""></div><div class=""button_prompt"">
                        <b>请用数字键1-3回答</b>
                        </div>","","","","","","","","","","","","","","","","","","",""
"930","null","sub_response","html-keyboard-response","200","403260","0.0-1.0-7.0-3.0-2.15","07:59:58","6","","","","","","","<div style='text-align: center;'>
                            <span style=""color: red; font-size: 40px""><b>错误！+0 pts</b></span></div>
                            ","","learn","6","6","6","learn","2","2","[0, 1, 2]","15","1","setsize","10S3A","sports","1","0","0","0",""
"null","null","fixation","html-keyboard-response","201","403762","0.0-1.0-7.0-3.0-0.16","07:59:58","6","","","","","","","fixation","","","","","","","","","","","","","","","","","","",""
"1414","2","pic_response","html-keyboard-response","202","405177","0.0-1.0-7.0-3.0-1.16","07:59:58","6","","","","","","","<div>
            <img class='stim' src=""pictures/sports/3.jpg""></div><div class=""button_prompt"">
                        <b>请用数字键1-3回答</b>
                        </div>","","","","","","","","","","","","","","","","","","",""
"1414","null","sub_response","html-keyboard-response","203","406178","0.0-1.0-7.0-3.0-2.16","07:59:58","6","","","","","","","<div style='text-align: center;'>
                            <span style=""color: green; font-size: 40px""><b>正确！+1 pts</b></span></div>
                            ","","learn","3","3","3","learn","1","1","[0, 1, 2]","16","1","setsize","10S3A","sports","1","1","1","1",""
"null","null","fixation","html-keyboard-response","204","406680","0.0-1.0-7.0-3.0-0.17","07:59:58","6","","","","","","","fixation","","","","","","","","","","","","","","","","","","",""
"1701","2","pic_response","html-keyboard-response","205","408382","0.0-1.0-7.0-3.0-1.17","07:59:58","6","","","","","","","<div>
            <img class='stim' src=""pictures/sports/4.jpg""></div><div class=""button_prompt"">
                        <b>请用数字键1-3回答</b>
                        </div>","","","","","","","","","","","","","","","","","","",""
"1701","null","sub_response","html-keyboard-response","206","409383","0.0-1.0-7.0-3.0-2.17","07:59:58","6","","","","","","","<div style='text-align: center;'>
                            <span style=""color: green; font-size: 40px""><b>正确！+1 pts</b></span></div>
                            ","","learn","4","4","4","learn","1","1","[0, 1, 2]","17","1","setsize","10S3A","sports","1","2","1","1",""
"null","null","fixation","html-keyboard-response","207","409885","0.0-1.0-7.0-3.0-0.18","07:59:58","6","","","","","","","fixation","","","","","","","","","","","","","","","","","","",""
"1025","3","pic_response","html-keyboard-response","208","410910","0.0-1.0-7.0-3.0-1.18","07:59:58","6","","","","","","","<div>
            <img class='stim' src=""pictures/sports/0.jpg""></div><div class=""button_prompt"">
                        <b>请用数字键1-3回答</b>
                        </div>","","","","","","","","","","","","","","","","","","",""
"1025","null","sub_response","html-keyboard-response","209","411912","0.0-1.0-7.0-3.0-2.18","07:59:58","6","","","","","","","<div style='text-align: center;'>
                            <span style=""color: red; font-size: 40px""><b>错误！+0 pts</b></span></div>
                            ","","learn","0","0","0","learn","0","0","[0, 1, 2]","18","1","setsize","10S3A","sports","1","0","2","0",""
"null","null","fixation","html-keyboard-response","210","412414","0.0-1.0-7.0-3.0-0.19","07:59:58","6","","","","","","","fixation","","","","","","","","","","","","","","","","","","",""
"807","1","pic_response","html-keyboard-response","211","413222","0.0-1.0-7.0-3.0-1.19","07:59:58","6","","","","","","","<div>
            <img class='stim' src=""pictures/sports/1.jpg""></div><div class=""button_prompt"">
                        <b>请用数字键1-3回答</b>
                        </div>","","","","","","","","","","","","","","","","","","",""
"807","null","sub_response","html-keyboard-response","212","414223","0.0-1.0-7.0-3.0-2.19","07:59:58","6","","","","","","","<div style='text-align: center;'>
                            <span style=""color: green; font-size: 40px""><b>正确！+1 pts</b></span></div>
                            ","","learn","1","1","1","learn","0","0","[0, 1, 2]","19","1","setsize","10S3A","sports","1","1","0","1",""
"null","null","fixation","html-keyboard-response","213","414724","0.0-1.0-7.0-3.0-0.20","07:59:58","6","","","","","","","fixation","","","","","","","","","","","","","","","","","","",""
"724","3","pic_response","html-keyboard-response","214","415449","0.0-1.0-7.0-3.0-1.20","07:59:58","6","","","","","","","<div>
            <img class='stim' src=""pictures/sports/8.jpg""></div><div class=""button_prompt"">
                        <b>请用数字键1-3回答</b>
                        </div>","","","","","","","","","","","","","","","","","","",""
"724","null","sub_response","html-keyboard-response","215","416450","0.0-1.0-7.0-3.0-2.20","07:59:58","6","","","","","","","<div style='text-align: center;'>
                            <span style=""color: green; font-size: 40px""><b>正确！+1 pts</b></span></div>
                            ","","learn","8","8","8","learn","2","2","[0, 1, 2]","20","2","setsize","10S3A","sports","1","2","2","1",""
"null","null","fixation","html-keyboard-response","216","416952","0.0-1.0-7.0-3.0-0.21","07:59:58","6","","","","","","","fixation","","","","","","","","","","","","","","","","","","",""
"945","3","pic_response","html-keyboard-response","217","417898","0.0-1.0-7.0-3.0-1.21","07:59:58","6","","","","","","","<div>
            <img class='stim' src=""pictures/sports/4.jpg""></div><div class=""button_prompt"">
                        <b>请用数字键1-3回答</b>
                        </div>","","","","","","","","","","","","","","","","","","",""
"945","null","sub_response","html-keyboard-response","218","418899","0.0-1.0-7.0-3.0-2.21","07:59:58","6","","","","","","","<div style='text-align: center;'>
                            <span style=""color: red; font-size: 40px""><b>错误！+0 pts</b></span></div>
                            ","","learn","4","4","4","learn","1","1","[0, 1, 2]","21","2","setsize","10S3A","sports","1","0","2","0",""
"null","null","fixation","html-keyboard-response","219","419400","0.0-1.0-7.0-3.0-0.22","07:59:58","6","","","","","","","fixation","","","","","","","","","","","","","","","","","","",""
"1016","3","pic_response","html-keyboard-response","220","420417","0.0-1.0-7.0-3.0-1.22","07:59:58","6","","","","","","","<div>
            <img class='stim' src=""pictures/sports/1.jpg""></div><div class=""button_prompt"">
                        <b>请用数字键1-3回答</b>
                        </div>","","","","","","","","","","","","","","","","","","",""
"1016","null","sub_response","html-keyboard-response","221","421418","0.0-1.0-7.0-3.0-2.22","07:59:58","6","","","","","","","<div style='text-align: center;'>
                            <span style=""color: red; font-size: 40px""><b>错误！+0 pts</b></span></div>
                            ","","learn","1","1","1","learn","0","0","[0, 1, 2]","22","2","setsize","10S3A","sports","1","0","2","0",""
"null","null","fixation","html-keyboard-response","222","421919","0.0-1.0-7.0-3.0-0.23","07:59:58","6","","","","","","","fixation","","","","","","","","","","","","","","","","","","",""
"1031","2","pic_response","html-keyboard-response","223","422950","0.0-1.0-7.0-3.0-1.23","07:59:58","6","","","","","","","<div>
            <img class='stim' src=""pictures/sports/2.jpg""></div><div class=""button_prompt"">
                        <b>请用数字键1-3回答</b>
                        </div>","","","","","","","","","","","","","","","","","","",""
"1031","null","sub_response","html-keyboard-response","224","423952","0.0-1.0-7.0-3.0-2.23","07:59:58","6","","","","","","","<div style='text-align: center;'>
                            <span style=""color: red; font-size: 40px""><b>错误！+0 pts</b></span></div>
                            ","","learn","2","2","2","learn","0","0","[0, 1, 2]","23","2","setsize","10S3A","sports","1","0","1","0",""
"null","null","fixation","html-keyboard-response","225","424454","0.0-1.0-7.0-3.0-0.24","07:59:58","6","","","","","","","fixation","","","","","","","","","","","","","","","","","","",""
"632","2","pic_response","html-keyboard-response","226","425086","0.0-1.0-7.0-3.0-1.24","07:59:58","6","","","","","","","<div>
            <img class='stim' src=""pictures/sports/5.jpg""></div><div class=""button_prompt"">
                        <b>请用数字键1-3回答</b>
                        </div>","","","","","","","","","","","","","","","","","","",""
"632","null","sub_response","html-keyboard-response","227","426087","0.0-1.0-7.0-3.0-2.24","07:59:58","6","","","","","","","<div style='text-align: center;'>
                            <span style=""color: green; font-size: 40px""><b>正确！+1 pts</b></span></div>
                            ","","learn","5","5","5","learn","1","1","[0, 1, 2]","24","2","setsize","10S3A","sports","1","1","1","1",""
"null","null","fixation","html-keyboard-response","228","426589","0.0-1.0-7.0-3.0-0.25","07:59:58","6","","","","","","","fixation","","","","","","","","","","","","","","","","","","",""
"726","1","pic_response","html-keyboard-response","229","427315","0.0-1.0-7.0-3.0-1.25","07:59:58","6","","","","","","","<div>
            <img class='stim' src=""pictures/sports/6.jpg""></div><div class=""button_prompt"">
                        <b>请用数字键1-3回答</b>
                        </div>","","","","","","","","","","","","","","","","","","",""
"726","null","sub_response","html-keyboard-response","230","428316","0.0-1.0-7.0-3.0-2.25","07:59:58","6","","","","","","","<div style='text-align: center;'>
                            <span style=""color: red; font-size: 40px""><b>错误！+0 pts</b></span></div>
                            ","","learn","6","6","6","learn","2","2","[0, 1, 2]","25","2","setsize","10S3A","sports","1","0","0","0",""
"null","null","fixation","html-keyboard-response","231","428822","0.0-1.0-7.0-3.0-0.26","07:59:58","6","","","","","","","fixation","","","","","","","","","","","","","","","","","","",""
"784","3","pic_response","html-keyboard-response","232","429607","0.0-1.0-7.0-3.0-1.26","07:59:58","6","","","","","","","<div>
            <img class='stim' src=""pictures/sports/0.jpg""></div><div class=""button_prompt"">
                        <b>请用数字键1-3回答</b>
                        </div>","","","","","","","","","","","","","","","","","","",""
"784","null","sub_response","html-keyboard-response","233","430609","0.0-1.0-7.0-3.0-2.26","07:59:58","6","","","","","","","<div style='text-align: center;'>
                            <span style=""color: red; font-size: 40px""><b>错误！+0 pts</b></span></div>
                            ","","learn","0","0","0","learn","0","0","[0, 1, 2]","26","2","setsize","10S3A","sports","1","0","2","0",""
"null","null","fixation","html-keyboard-response","234","431125","0.0-1.0-7.0-3.0-0.27","07:59:58","6","","","","","","","fixation","","","","","","","","","","","","","","","","","","",""
"446","2","pic_response","html-keyboard-response","235","431572","0.0-1.0-7.0-3.0-1.27","07:59:58","6","","","","","","","<div>
            <img class='stim' src=""pictures/sports/7.jpg""></div><div class=""button_prompt"">
                        <b>请用数字键1-3回答</b>
                        </div>","","","","","","","","","","","","","","","","","","",""
"446","null","sub_response","html-keyboard-response","236","432574","0.0-1.0-7.0-3.0-2.27","07:59:58","6","","","","","","","<div style='text-align: center;'>
                            <span style=""color: red; font-size: 40px""><b>错误！+0 pts</b></span></div>
                            ","","learn","7","7","7","learn","2","2","[0, 1, 2]","27","2","setsize","10S3A","sports","1","0","1","0",""
"null","null","fixation","html-keyboard-response","237","433075","0.0-1.0-7.0-3.0-0.28","07:59:58","6","","","","","","","fixation","","","","","","","","","","","","","","","","","","",""
"827","2","pic_response","html-keyboard-response","238","433903","0.0-1.0-7.0-3.0-1.28","07:59:58","6","","","","","","","<div>
            <img class='stim' src=""pictures/sports/3.jpg""></div><div class=""button_prompt"">
                        <b>请用数字键1-3回答</b>
                        </div>","","","","","","","","","","","","","","","","","","",""
"827","null","sub_response","html-keyboard-response","239","434905","0.0-1.0-7.0-3.0-2.28","07:59:58","6","","","","","","","<div style='text-align: center;'>
                            <span style=""color: green; font-size: 40px""><b>正确！+1 pts</b></span></div>
                            ","","learn","3","3","3","learn","1","1","[0, 1, 2]","28","2","setsize","10S3A","sports","1","1","1","1",""
"null","null","fixation","html-keyboard-response","240","435406","0.0-1.0-7.0-3.0-0.29","07:59:58","6","","","","","","","fixation","","","","","","","","","","","","","","","","","","",""
"576","2","pic_response","html-keyboard-response","241","435983","0.0-1.0-7.0-3.0-1.29","07:59:58","6","","","","","","","<div>
            <img class='stim' src=""pictures/sports/9.jpg""></div><div class=""button_prompt"">
                        <b>请用数字键1-3回答</b>
                        </div>","","","","","","","","","","","","","","","","","","",""
"576","null","sub_response","html-keyboard-response","242","436985","0.0-1.0-7.0-3.0-2.29","07:59:58","6","","","","","","","<div style='text-align: center;'>
                            <span style=""color: red; font-size: 40px""><b>错误！+0 pts</b></span></div>
                            ","","learn","9","9","9","learn","2","2","[0, 1, 2]","29","2","setsize","10S3A","sports","1","0","1","0",""
"null","null","fixation","html-keyboard-response","243","437486","0.0-1.0-7.0-3.0-0.30","07:59:58","6","","","","","","","fixation","","","","","","","","","","","","","","","","","","",""
"415","2","pic_response","html-keyboard-response","244","437902","0.0-1.0-7.0-3.0-1.30","07:59:58","6","","","","","","","<div>
            <img class='stim' src=""pictures/sports/3.jpg""></div><div class=""button_prompt"">
                        <b>请用数字键1-3回答</b>
                        </div>","","","","","","","","","","","","","","","","","","",""
"415","null","sub_response","html-keyboard-response","245","438903","0.0-1.0-7.0-3.0-2.30","07:59:58","6","","","","","","","<div style='text-align: center;'>
                            <span style=""color: green; font-size: 40px""><b>正确！+1 pts</b></span></div>
                            ","","learn","3","3","3","learn","1","1","[0, 1, 2]","30","3","setsize","10S3A","sports","1","1","1","1",""
"null","null","fixation","html-keyboard-response","246","439405","0.0-1.0-7.0-3.0-0.31","07:59:58","6","","","","","","","fixation","","","","","","","","","","","","","","","","","","",""
"1150","1","pic_response","html-keyboard-response","247","440556","0.0-1.0-7.0-3.0-1.31","07:59:58","6","","","","","","","<div>
            <img class='stim' src=""pictures/sports/4.jpg""></div><div class=""button_prompt"">
                        <b>请用数字键1-3回答</b>
                        </div>","","","","","","","","","","","","","","","","","","",""
"1150","null","sub_response","html-keyboard-response","248","441557","0.0-1.0-7.0-3.0-2.31","07:59:58","6","","","","","","","<div style='text-align: center;'>
                            <span style=""color: red; font-size: 40px""><b>错误！+0 pts</b></span></div>
                            ","","learn","4","4","4","learn","1","1","[0, 1, 2]","31","3","setsize","10S3A","sports","1","0","0","0",""
"null","null","fixation","html-keyboard-response","249","442059","0.0-1.0-7.0-3.0-0.32","07:59:58","6","","","","","","","fixation","","","","","","","","","","","","","","","","","","",""
"659","2","pic_response","html-keyboard-response","250","442718","0.0-1.0-7.0-3.0-1.32","07:59:58","6","","","","","","","<div>
            <img class='stim' src=""pictures/sports/2.jpg""></div><div class=""button_prompt"">
                        <b>请用数字键1-3回答</b>
                        </div>","","","","","","","","","","","","","","","","","","",""
"659","null","sub_response","html-keyboard-response","251","443720","0.0-1.0-7.0-3.0-2.32","07:59:58","6","","","","","","","<div style='text-align: center;'>
                            <span style=""color: red; font-size: 40px""><b>错误！+0 pts</b></span></div>
                            ","","learn","2","2","2","learn","0","0","[0, 1, 2]","32","3","setsize","10S3A","sports","1","0","1","0",""
"null","null","fixation","html-keyboard-response","252","444221","0.0-1.0-7.0-3.0-0.33","07:59:58","6","","","","","","","fixation","","","","","","","","","","","","","","","","","","",""
"1019","3","pic_response","html-keyboard-response","253","445241","0.0-1.0-7.0-3.0-1.33","07:59:58","6","","","","","","","<div>
            <img class='stim' src=""pictures/sports/9.jpg""></div><div class=""button_prompt"">
                        <b>请用数字键1-3回答</b>
                        </div>","","","","","","","","","","","","","","","","","","",""
"1019","null","sub_response","html-keyboard-response","254","446243","0.0-1.0-7.0-3.0-2.33","07:59:58","6","","","","","","","<div style='text-align: center;'>
                            <span style=""color: green; font-size: 40px""><b>正确！+1 pts</b></span></div>
                            ","","learn","9","9","9","learn","2","2","[0, 1, 2]","33","3","setsize","10S3A","sports","1","1","2","1",""
"null","null","fixation","html-keyboard-response","255","446745","0.0-1.0-7.0-3.0-0.34","07:59:58","6","","","","","","","fixation","","","","","","","","","","","","","","","","","","",""
"1105","3","pic_response","html-keyboard-response","256","447850","0.0-1.0-7.0-3.0-1.34","07:59:58","6","","","","","","","<div>
            <img class='stim' src=""pictures/sports/6.jpg""></div><div class=""button_prompt"">
                        <b>请用数字键1-3回答</b>
                        </div>","","","","","","","","","","","","","","","","","","",""
"1105","null","sub_response","html-keyboard-response","257","448852","0.0-1.0-7.0-3.0-2.34","07:59:58","6","","","","","","","<div style='text-align: center;'>
                            <span style=""color: green; font-size: 40px""><b>正确！+1 pts</b></span></div>
                            ","","learn","6","6","6","learn","2","2","[0, 1, 2]","34","3","setsize","10S3A","sports","1","2","2","1",""
"null","null","fixation","html-keyboard-response","258","449354","0.0-1.0-7.0-3.0-0.35","07:59:58","6","","","","","","","fixation","","","","","","","","","","","","","","","","","","",""
"980","1","pic_response","html-keyboard-response","259","450335","0.0-1.0-7.0-3.0-1.35","07:59:58","6","","","","","","","<div>
            <img class='stim' src=""pictures/sports/0.jpg""></div><div class=""button_prompt"">
                        <b>请用数字键1-3回答</b>
                        </div>","","","","","","","","","","","","","","","","","","",""
"980","null","sub_response","html-keyboard-response","260","451336","0.0-1.0-7.0-3.0-2.35","07:59:58","6","","","","","","","<div style='text-align: center;'>
                            <span style=""color: green; font-size: 40px""><b>正确！+1 pts</b></span></div>
                            ","","learn","0","0","0","learn","0","0","[0, 1, 2]","35","3","setsize","10S3A","sports","1","3","0","1",""
"null","null","fixation","html-keyboard-response","261","451838","0.0-1.0-7.0-3.0-0.36","07:59:58","6","","","","","","","fixation","","","","","","","","","","","","","","","","","","",""
"711","1","pic_response","html-keyboard-response","262","452550","0.0-1.0-7.0-3.0-1.36","07:59:58","6","","","","","","","<div>
            <img class='stim' src=""pictures/sports/5.jpg""></div><div class=""button_prompt"">
                        <b>请用数字键1-3回答</b>
                        </div>","","","","","","","","","","","","","","","","","","",""
"711","null","sub_response","html-keyboard-response","263","453552","0.0-1.0-7.0-3.0-2.36","07:59:58","6","","","","","","","<div style='text-align: center;'>
                            <span style=""color: red; font-size: 40px""><b>错误！+0 pts</b></span></div>
                            ","","learn","5","5","5","learn","1","1","[0, 1, 2]","36","3","setsize","10S3A","sports","1","0","0","0",""
"null","null","fixation","html-keyboard-response","264","454054","0.0-1.0-7.0-3.0-0.37","07:59:58","6","","","","","","","fixation","","","","","","","","","","","","","","","","","","",""
"861","3","pic_response","html-keyboard-response","265","454916","0.0-1.0-7.0-3.0-1.37","07:59:58","6","","","","","","","<div>
            <img class='stim' src=""pictures/sports/1.jpg""></div><div class=""button_prompt"">
                        <b>请用数字键1-3回答</b>
                        </div>","","","","","","","","","","","","","","","","","","",""
"861","null","sub_response","html-keyboard-response","266","455917","0.0-1.0-7.0-3.0-2.37","07:59:58","6","","","","","","","<div style='text-align: center;'>
                            <span style=""color: red; font-size: 40px""><b>错误！+0 pts</b></span></div>
                            ","","learn","1","1","1","learn","0","0","[0, 1, 2]","37","3","setsize","10S3A","sports","1","0","2","0",""
"null","null","fixation","html-keyboard-response","267","456418","0.0-1.0-7.0-3.0-0.38","07:59:58","6","","","","","","","fixation","","","","","","","","","","","","","","","","","","",""
"938","1","pic_response","html-keyboard-response","268","457357","0.0-1.0-7.0-3.0-1.38","07:59:58","6","","","","","","","<div>
            <img class='stim' src=""pictures/sports/8.jpg""></div><div class=""button_prompt"">
                        <b>请用数字键1-3回答</b>
                        </div>","","","","","","","","","","","","","","","","","","",""
"938","null","sub_response","html-keyboard-response","269","458358","0.0-1.0-7.0-3.0-2.38","07:59:58","6","","","","","","","<div style='text-align: center;'>
                            <span style=""color: red; font-size: 40px""><b>错误！+0 pts</b></span></div>
                            ","","learn","8","8","8","learn","2","2","[0, 1, 2]","38","3","setsize","10S3A","sports","1","0","0","0",""
"null","null","fixation","html-keyboard-response","270","458860","0.0-1.0-7.0-3.0-0.39","07:59:58","6","","","","","","","fixation","","","","","","","","","","","","","","","","","","",""
"1360","1","pic_response","html-keyboard-response","271","460220","0.0-1.0-7.0-3.0-1.39","07:59:58","6","","","","","","","<div>
            <img class='stim' src=""pictures/sports/7.jpg""></div><div class=""button_prompt"">
                        <b>请用数字键1-3回答</b>
                        </div>","","","","","","","","","","","","","","","","","","",""
"1360","null","sub_response","html-keyboard-response","272","461222","0.0-1.0-7.0-3.0-2.39","07:59:58","6","","","","","","","<div style='text-align: center;'>
                            <span style=""color: red; font-size: 40px""><b>错误！+0 pts</b></span></div>
                            ","","learn","7","7","7","learn","2","2","[0, 1, 2]","39","3","setsize","10S3A","sports","1","0","0","0",""
"null","null","fixation","html-keyboard-response","273","461724","0.0-1.0-7.0-3.0-0.40","07:59:58","6","","","","","","","fixation","","","","","","","","","","","","","","","","","","",""
"574","2","pic_response","html-keyboard-response","274","462299","0.0-1.0-7.0-3.0-1.40","07:59:58","6","","","","","","","<div>
            <img class='stim' src=""pictures/sports/9.jpg""></div><div class=""button_prompt"">
                        <b>请用数字键1-3回答</b>
                        </div>","","","","","","","","","","","","","","","","","","",""
"574","null","sub_response","html-keyboard-response","275","463301","0.0-1.0-7.0-3.0-2.40","07:59:58","6","","","","","","","<div style='text-align: center;'>
                            <span style=""color: red; font-size: 40px""><b>错误！+0 pts</b></span></div>
                            ","","learn","9","9","9","learn","2","2","[0, 1, 2]","40","4","setsize","10S3A","sports","1","0","1","0",""
"null","null","fixation","html-keyboard-response","276","463802","0.0-1.0-7.0-3.0-0.41","07:59:58","6","","","","","","","fixation","","","","","","","","","","","","","","","","","","",""
"1642","1","pic_response","html-keyboard-response","277","465445","0.0-1.0-7.0-3.0-1.41","07:59:58","6","","","","","","","<div>
            <img class='stim' src=""pictures/sports/1.jpg""></div><div class=""button_prompt"">
                        <b>请用数字键1-3回答</b>
                        </div>","","","","","","","","","","","","","","","","","","",""
"1642","null","sub_response","html-keyboard-response","278","466447","0.0-1.0-7.0-3.0-2.41","07:59:58","6","","","","","","","<div style='text-align: center;'>
                            <span style=""color: green; font-size: 40px""><b>正确！+1 pts</b></span></div>
                            ","","learn","1","1","1","learn","0","0","[0, 1, 2]","41","4","setsize","10S3A","sports","1","1","0","1",""
"null","null","fixation","html-keyboard-response","279","466949","0.0-1.0-7.0-3.0-0.42","07:59:58","6","","","","","","","fixation","","","","","","","","","","","","","","","","","","",""
"750","2","pic_response","html-keyboard-response","280","467700","0.0-1.0-7.0-3.0-1.42","07:59:58","6","","","","","","","<div>
            <img class='stim' src=""pictures/sports/3.jpg""></div><div class=""button_prompt"">
                        <b>请用数字键1-3回答</b>
                        </div>","","","","","","","","","","","","","","","","","","",""
"750","null","sub_response","html-keyboard-response","281","468701","0.0-1.0-7.0-3.0-2.42","07:59:58","6","","","","","","","<div style='text-align: center;'>
                            <span style=""color: green; font-size: 40px""><b>正确！+1 pts</b></span></div>
                            ","","learn","3","3","3","learn","1","1","[0, 1, 2]","42","4","setsize","10S3A","sports","1","2","1","1",""
"null","null","fixation","html-keyboard-response","282","469203","0.0-1.0-7.0-3.0-0.43","07:59:58","6","","","","","","","fixation","","","","","","","","","","","","","","","","","","",""
"1105","2","pic_response","html-keyboard-response","283","470309","0.0-1.0-7.0-3.0-1.43","07:59:58","6","","","","","","","<div>
            <img class='stim' src=""pictures/sports/0.jpg""></div><div class=""button_prompt"">
                        <b>请用数字键1-3回答</b>
                        </div>","","","","","","","","","","","","","","","","","","",""
"1105","null","sub_response","html-keyboard-response","284","471310","0.0-1.0-7.0-3.0-2.43","07:59:58","6","","","","","","","<div style='text-align: center;'>
                            <span style=""color: red; font-size: 40px""><b>错误！+0 pts</b></span></div>
                            ","","learn","0","0","0","learn","0","0","[0, 1, 2]","43","4","setsize","10S3A","sports","1","0","1","0",""
"null","null","fixation","html-keyboard-response","285","471812","0.0-1.0-7.0-3.0-0.44","07:59:58","6","","","","","","","fixation","","","","","","","","","","","","","","","","","","",""
"1286","3","pic_response","html-keyboard-response","286","473099","0.0-1.0-7.0-3.0-1.44","07:59:58","6","","","","","","","<div>
            <img class='stim' src=""pictures/sports/2.jpg""></div><div class=""button_prompt"">
                        <b>请用数字键1-3回答</b>
                        </div>","","","","","","","","","","","","","","","","","","",""
"1286","null","sub_response","html-keyboard-response","287","474100","0.0-1.0-7.0-3.0-2.44","07:59:58","6","","","","","","","<div style='text-align: center;'>
                            <span style=""color: red; font-size: 40px""><b>错误！+0 pts</b></span></div>
                            ","","learn","2","2","2","learn","0","0","[0, 1, 2]","44","4","setsize","10S3A","sports","1","0","2","0",""
"null","null","fixation","html-keyboard-response","288","474602","0.0-1.0-7.0-3.0-0.45","07:59:58","6","","","","","","","fixation","","","","","","","","","","","","","","","","","","",""
"1095","1","pic_response","html-keyboard-response","289","475699","0.0-1.0-7.0-3.0-1.45","07:59:58","6","","","","","","","<div>
            <img class='stim' src=""pictures/sports/5.jpg""></div><div class=""button_prompt"">
                        <b>请用数字键1-3回答</b>
                        </div>","","","","","","","","","","","","","","","","","","",""
"1095","null","sub_response","html-keyboard-response","290","476700","0.0-1.0-7.0-3.0-2.45","07:59:58","6","","","","","","","<div style='text-align: center;'>
                            <span style=""color: red; font-size: 40px""><b>错误！+0 pts</b></span></div>
                            ","","learn","5","5","5","learn","1","1","[0, 1, 2]","45","4","setsize","10S3A","sports","1","0","0","0",""
"null","null","fixation","html-keyboard-response","291","477201","0.0-1.0-7.0-3.0-0.46","07:59:58","6","","","","","","","fixation","","","","","","","","","","","","","","","","","","",""
"676","2","pic_response","html-keyboard-response","292","477877","0.0-1.0-7.0-3.0-1.46","07:59:58","6","","","","","","","<div>
            <img class='stim' src=""pictures/sports/7.jpg""></div><div class=""button_prompt"">
                        <b>请用数字键1-3回答</b>
                        </div>","","","","","","","","","","","","","","","","","","",""
"676","null","sub_response","html-keyboard-response","293","478878","0.0-1.0-7.0-3.0-2.46","07:59:58","6","","","","","","","<div style='text-align: center;'>
                            <span style=""color: red; font-size: 40px""><b>错误！+0 pts</b></span></div>
                            ","","learn","7","7","7","learn","2","2","[0, 1, 2]","46","4","setsize","10S3A","sports","1","0","1","0",""
"null","null","fixation","html-keyboard-response","294","479380","0.0-1.0-7.0-3.0-0.47","07:59:58","6","","","","","","","fixation","","","","","","","","","","","","","","","","","","",""
"2064","2","pic_response","html-keyboard-response","295","481446","0.0-1.0-7.0-3.0-1.47","07:59:58","6","","","","","","","<div>
            <img class='stim' src=""pictures/sports/4.jpg""></div><div class=""button_prompt"">
                        <b>请用数字键1-3回答</b>
                        </div>","","","","","","","","","","","","","","","","","","",""
"2064","null","sub_response","html-keyboard-response","296","482453","0.0-1.0-7.0-3.0-2.47","07:59:58","6","","","","","","","<div style='text-align: center;'>
                            <span style=""color: green; font-size: 40px""><b>正确！+1 pts</b></span></div>
                            ","","learn","4","4","4","learn","1","1","[0, 1, 2]","47","4","setsize","10S3A","sports","1","1","1","1",""
"null","null","fixation","html-keyboard-response","297","482954","0.0-1.0-7.0-3.0-0.48","07:59:58","6","","","","","","","fixation","","","","","","","","","","","","","","","","","","",""
"947","1","pic_response","html-keyboard-response","298","483902","0.0-1.0-7.0-3.0-1.48","07:59:58","6","","","","","","","<div>
            <img class='stim' src=""pictures/sports/8.jpg""></div><div class=""button_prompt"">
                        <b>请用数字键1-3回答</b>
                        </div>","","","","","","","","","","","","","","","","","","",""
"947","null","sub_response","html-keyboard-response","299","484904","0.0-1.0-7.0-3.0-2.48","07:59:58","6","","","","","","","<div style='text-align: center;'>
                            <span style=""color: red; font-size: 40px""><b>错误！+0 pts</b></span></div>
                            ","","learn","8","8","8","learn","2","2","[0, 1, 2]","48","4","setsize","10S3A","sports","1","0","0","0",""
"null","null","fixation","html-keyboard-response","300","485405","0.0-1.0-7.0-3.0-0.49","07:59:58","6","","","","","","","fixation","","","","","","","","","","","","","","","","","","",""
"827","3","pic_response","html-keyboard-response","301","486233","0.0-1.0-7.0-3.0-1.49","07:59:58","6","","","","","","","<div>
            <img class='stim' src=""pictures/sports/6.jpg""></div><div class=""button_prompt"">
                        <b>请用数字键1-3回答</b>
                        </div>","","","","","","","","","","","","","","","","","","",""
"827","null","sub_response","html-keyboard-response","302","487235","0.0-1.0-7.0-3.0-2.49","07:59:58","6","","","","","","","<div style='text-align: center;'>
                            <span style=""color: green; font-size: 40px""><b>正确！+1 pts</b></span></div>
                            ","","learn","6","6","6","learn","2","2","[0, 1, 2]","49","4","setsize","10S3A","sports","1","1","2","1",""
"null","null","fixation","html-keyboard-response","303","487737","0.0-1.0-7.0-3.0-0.50","07:59:58","6","","","","","","","fixation","","","","","","","","","","","","","","","","","","",""
"665","2","pic_response","html-keyboard-response","304","488402","0.0-1.0-7.0-3.0-1.50","07:59:58","6","","","","","","","<div>
            <img class='stim' src=""pictures/sports/4.jpg""></div><div class=""button_prompt"">
                        <b>请用数字键1-3回答</b>
                        </div>","","","","","","","","","","","","","","","","","","",""
"665","null","sub_response","html-keyboard-response","305","489403","0.0-1.0-7.0-3.0-2.50","07:59:58","6","","","","","","","<div style='text-align: center;'>
                            <span style=""color: green; font-size: 40px""><b>正确！+1 pts</b></span></div>
                            ","","learn","4","4","4","learn","1","1","[0, 1, 2]","50","5","setsize","10S3A","sports","1","2","1","1",""
"null","null","fixation","html-keyboard-response","306","489905","0.0-1.0-7.0-3.0-0.51","07:59:58","6","","","","","","","fixation","","","","","","","","","","","","","","","","","","",""
"1301","3","pic_response","html-keyboard-response","307","491207","0.0-1.0-7.0-3.0-1.51","07:59:58","6","","","","","","","<div>
            <img class='stim' src=""pictures/sports/7.jpg""></div><div class=""button_prompt"">
                        <b>请用数字键1-3回答</b>
                        </div>","","","","","","","","","","","","","","","","","","",""
"1301","null","sub_response","html-keyboard-response","308","492209","0.0-1.0-7.0-3.0-2.51","07:59:58","6","","","","","","","<div style='text-align: center;'>
                            <span style=""color: green; font-size: 40px""><b>正确！+1 pts</b></span></div>
                            ","","learn","7","7","7","learn","2","2","[0, 1, 2]","51","5","setsize","10S3A","sports","1","3","2","1",""
"null","null","fixation","html-keyboard-response","309","492712","0.0-1.0-7.0-3.0-0.52","07:59:58","6","","","","","","","fixation","","","","","","","","","","","","","","","","","","",""
"1093","3","pic_response","html-keyboard-response","310","493806","0.0-1.0-7.0-3.0-1.52","07:59:58","6","","","","","","","<div>
            <img class='stim' src=""pictures/sports/1.jpg""></div><div class=""button_prompt"">
                        <b>请用数字键1-3回答</b>
                        </div>","","","","","","","","","","","","","","","","","","",""
"1093","null","sub_response","html-keyboard-response","311","494807","0.0-1.0-7.0-3.0-2.52","07:59:58","6","","","","","","","<div style='text-align: center;'>
                            <span style=""color: red; font-size: 40px""><b>错误！+0 pts</b></span></div>
                            ","","learn","1","1","1","learn","0","0","[0, 1, 2]","52","5","setsize","10S3A","sports","1","0","2","0",""
"null","null","fixation","html-keyboard-response","312","495309","0.0-1.0-7.0-3.0-0.53","07:59:58","6","","","","","","","fixation","","","","","","","","","","","","","","","","","","",""
"650","2","pic_response","html-keyboard-response","313","495960","0.0-1.0-7.0-3.0-1.53","07:59:58","6","","","","","","","<div>
            <img class='stim' src=""pictures/sports/5.jpg""></div><div class=""button_prompt"">
                        <b>请用数字键1-3回答</b>
                        </div>","","","","","","","","","","","","","","","","","","",""
"650","null","sub_response","html-keyboard-response","314","496962","0.0-1.0-7.0-3.0-2.53","07:59:58","6","","","","","","","<div style='text-align: center;'>
                            <span style=""color: green; font-size: 40px""><b>正确！+1 pts</b></span></div>
                            ","","learn","5","5","5","learn","1","1","[0, 1, 2]","53","5","setsize","10S3A","sports","1","1","1","1",""
"null","null","fixation","html-keyboard-response","315","497464","0.0-1.0-7.0-3.0-0.54","07:59:58","6","","","","","","","fixation","","","","","","","","","","","","","","","","","","",""
"746","1","pic_response","html-keyboard-response","316","498210","0.0-1.0-7.0-3.0-1.54","07:59:58","6","","","","","","","<div>
            <img class='stim' src=""pictures/sports/8.jpg""></div><div class=""button_prompt"">
                        <b>请用数字键1-3回答</b>
                        </div>","","","","","","","","","","","","","","","","","","",""
"746","null","sub_response","html-keyboard-response","317","499214","0.0-1.0-7.0-3.0-2.54","07:59:58","6","","","","","","","<div style='text-align: center;'>
                            <span style=""color: red; font-size: 40px""><b>错误！+0 pts</b></span></div>
                            ","","learn","8","8","8","learn","2","2","[0, 1, 2]","54","5","setsize","10S3A","sports","1","0","0","0",""
"null","null","fixation","html-keyboard-response","318","499716","0.0-1.0-7.0-3.0-0.55","07:59:58","6","","","","","","","fixation","","","","","","","","","","","","","","","","","","",""
"962","2","pic_response","html-keyboard-response","319","500679","0.0-1.0-7.0-3.0-1.55","07:59:58","6","","","","","","","<div>
            <img class='stim' src=""pictures/sports/3.jpg""></div><div class=""button_prompt"">
                        <b>请用数字键1-3回答</b>
                        </div>","","","","","","","","","","","","","","","","","","",""
"962","null","sub_response","html-keyboard-response","320","501680","0.0-1.0-7.0-3.0-2.55","07:59:58","6","","","","","","","<div style='text-align: center;'>
                            <span style=""color: green; font-size: 40px""><b>正确！+1 pts</b></span></div>
                            ","","learn","3","3","3","learn","1","1","[0, 1, 2]","55","5","setsize","10S3A","sports","1","1","1","1",""
"null","null","fixation","html-keyboard-response","321","502182","0.0-1.0-7.0-3.0-0.56","07:59:58","6","","","","","","","fixation","","","","","","","","","","","","","","","","","","",""
"680","3","pic_response","html-keyboard-response","322","502863","0.0-1.0-7.0-3.0-1.56","07:59:58","6","","","","","","","<div>
            <img class='stim' src=""pictures/sports/6.jpg""></div><div class=""button_prompt"">
                        <b>请用数字键1-3回答</b>
                        </div>","","","","","","","","","","","","","","","","","","",""
"680","null","sub_response","html-keyboard-response","323","503865","0.0-1.0-7.0-3.0-2.56","07:59:58","6","","","","","","","<div style='text-align: center;'>
                            <span style=""color: green; font-size: 40px""><b>正确！+1 pts</b></span></div>
                            ","","learn","6","6","6","learn","2","2","[0, 1, 2]","56","5","setsize","10S3A","sports","1","2","2","1",""
