"rt","response","screen_id","trial_type","trial_index","time_elapsed","internal_node_id","start_time","n_Prac","success","timeout","failed_images","failed_audio","failed_video","view_history","stimulus","question_order","stage","s","word","word_id","phase","a_cor","a_real","a_ava","trial","tps","task_type","block_typ","pic_typ","block_id","cum_r","a","r","plugin_name"
"36442","{""sub_id"":""59"",""task_type"":""task1"",""name"":""李珊"",""gender"":""女""}","basic_info","survey-html-form","0","36445","0.0-0.0","19:06:47","2","","","","","","","","","","","","","","","","","","","","","","","","","",""
"","","","preload","1","36518","0.0-1.0-0.0","19:06:47","2","true","false","[]","[]","[]","","","","","","","","","","","","","","","","","","","","",""
"","","","preload","2","36527","0.0-1.0-1.0","19:06:47","2","true","false","[]","[]","[]","","","","","","","","","","","","","","","","","","","","",""
"","","","fullscreen","3","38754","0.0-1.0-2.0","19:06:47","2","true","","","","","","","","","","","","","","","","","","","","","","","","",""
"128005","","instruct","instructions","4","166760","0.0-1.0-3.0-0.0","19:06:47","2","","","","","","[{""page_index"":0,""viewing_time"":126412},{""page_index"":1,""viewing_time"":1175},{""page_index"":2,""viewing_time"":417}]","","","","","","","","","","","","","","","","","","","",""
"8850","{""Q0"":"""",""task1"":""<span style='font-size: 24px'>学习图片和数字的对应关系</span>"",""task2"":""<span style='font-size: 24px'> 数字键1-3 </span>"",""task3"":""<span style='font-size: 24px'> 看到图片选出正确对应的数字 </span>""}","question","survey-multi-choice","5","175613","0.0-1.0-3.0-1.0","19:06:47","2","","","","","","","","[0,1,2,3]","","","","","","","","","","","","","","","","","",""
"2185"," ","inst_q","html-keyboard-response","6","177801","0.0-1.0-3.0-2.0","19:06:47","2","","","","","","","inst","","1","","","","","","","","","","","","","","","","",""
"5862","","instruct","instructions","7","183665","0.0-1.0-3.1-0.1","19:06:47","2","","","","","","[{""page_index"":0,""viewing_time"":2026},{""page_index"":1,""viewing_time"":2366},{""page_index"":2,""viewing_time"":1471}]","","","","","","","","","","","","","","","","","","","",""
"8835","{""Q0"":"""",""task1"":""<span style='font-size: 24px'>学习图片和数字的对应关系</span>"",""task2"":""<span style='font-size: 24px'> 图片下方标注为可用的数字键（数字键1-3或0-9） </span>"",""task3"":""<span style='font-size: 24px'> 看到图片选出正确对应的数字 </span>""}","question","survey-multi-choice","8","192503","0.0-1.0-3.1-1.1","19:06:47","2","","","","","","","","[0,1,2,3]","","","","","","","","","","","","","","","","","",""
"12508"," ","inst_q","html-keyboard-response","9","205013","0.0-1.0-3.1-2.1","19:06:47","2","","","","","","","inst","","1","","","","","","","","","","","","","","","","",""
"","","","preload","10","205039","0.0-1.0-4.0-0.0","19:06:47","2","true","false","[]","[]","[]","","","","","","","","","","","","","","","","","","","","",""
"1333"," ","","html-keyboard-response","11","206373","0.0-1.0-4.0-1.0","19:06:47","2","","","","","","","<div style='font-size: 32px; text-align: center;'
                    <p>请学习图片和数字之间的对应关系</p>
                    <p>我们将<span style='color: blue'><b> 告诉 </b></span>您选择的对错。请根据反馈学习。</p>
                    <p>请按""空格""继续实验。</p></div>","","","","","","","","","","","","","","","","","","",""
"1884"," ","inst","html-keyboard-response","12","208258","0.0-1.0-4.0-2.0","19:06:47","2","","","","","","","<img class='instruct_stim' src=""instruction/prac3.PNG""></div>","","","","","","","","","","","","","","","","","","",""
"null","null","fixation","html-keyboard-response","13","208760","0.0-1.0-4.0-3.0-0.0","19:06:47","2","","","","","","","fixation","","","","","","","","","","","","","","","","","","",""
"787","1","pic_response","html-keyboard-response","14","209549","0.0-1.0-4.0-3.0-1.0","19:06:47","2","","","","","","","<div>
            <img class='stim' src=""pictures/prac/0.jpg""></div><div class=""button_prompt"">
                        <b>请用数字键1-3回答</b>
                        </div>","","","","","","","","","","","","","","","","","","",""
"787","null","sub_response","html-keyboard-response","15","210551","0.0-1.0-4.0-3.0-2.0","19:06:47","2","","","","","","","<div style='text-align: center;'>
                            <span style=""color: green; font-size: 40px""><b>正确！+1 pts</b></span></div>
                            ","","learn","0","0","0","learn","0","0","[0, 1, 2]","0","0","setsize","99","prac","0","1","0","1",""
"null","null","fixation","html-keyboard-response","16","211054","0.0-1.0-4.0-3.0-0.1","19:06:47","2","","","","","","","fixation","","","","","","","","","","","","","","","","","","",""
"453","1","pic_response","html-keyboard-response","17","211508","0.0-1.0-4.0-3.0-1.1","19:06:47","2","","","","","","","<div>
            <img class='stim' src=""pictures/prac/1.jpg""></div><div class=""button_prompt"">
                        <b>请用数字键1-3回答</b>
                        </div>","","","","","","","","","","","","","","","","","","",""
"453","null","sub_response","html-keyboard-response","18","212510","0.0-1.0-4.0-3.0-2.1","19:06:47","2","","","","","","","<div style='text-align: center;'>
                            <span style=""color: green; font-size: 40px""><b>正确！+1 pts</b></span></div>
                            ","","learn","1","1","1","learn","0","0","[0, 1, 2]","1","0","setsize","99","prac","0","2","0","1",""
"null","null","fixation","html-keyboard-response","19","213016","0.0-1.0-4.0-3.0-0.2","19:06:47","2","","","","","","","fixation","","","","","","","","","","","","","","","","","","",""
"822","1","pic_response","html-keyboard-response","20","213839","0.0-1.0-4.0-3.0-1.2","19:06:47","2","","","","","","","<div>
            <img class='stim' src=""pictures/prac/2.jpg""></div><div class=""button_prompt"">
                        <b>请用数字键1-3回答</b>
                        </div>","","","","","","","","","","","","","","","","","","",""
"822","null","sub_response","html-keyboard-response","21","214841","0.0-1.0-4.0-3.0-2.2","19:06:47","2","","","","","","","<div style='text-align: center;'>
                            <span style=""color: red; font-size: 40px""><b>错误！+0 pts</b></span></div>
                            ","","learn","2","2","2","learn","2","2","[0, 1, 2]","2","0","setsize","99","prac","0","0","0","0",""
"null","null","fixation","html-keyboard-response","22","215342","0.0-1.0-4.0-3.0-0.3","19:06:47","2","","","","","","","fixation","","","","","","","","","","","","","","","","","","",""
"1249","2","pic_response","html-keyboard-response","23","216592","0.0-1.0-4.0-3.0-1.3","19:06:47","2","","","","","","","<div>
            <img class='stim' src=""pictures/prac/2.jpg""></div><div class=""button_prompt"">
                        <b>请用数字键1-3回答</b>
                        </div>","","","","","","","","","","","","","","","","","","",""
"1249","null","sub_response","html-keyboard-response","24","217595","0.0-1.0-4.0-3.0-2.3","19:06:47","2","","","","","","","<div style='text-align: center;'>
                            <span style=""color: red; font-size: 40px""><b>错误！+0 pts</b></span></div>
                            ","","learn","2","2","2","learn","2","2","[0, 1, 2]","3","1","setsize","99","prac","0","0","1","0",""
"null","null","fixation","html-keyboard-response","25","218097","0.0-1.0-4.0-3.0-0.4","19:06:47","2","","","","","","","fixation","","","","","","","","","","","","","","","","","","",""
"598","1","pic_response","html-keyboard-response","26","218697","0.0-1.0-4.0-3.0-1.4","19:06:47","2","","","","","","","<div>
            <img class='stim' src=""pictures/prac/0.jpg""></div><div class=""button_prompt"">
                        <b>请用数字键1-3回答</b>
                        </div>","","","","","","","","","","","","","","","","","","",""
"598","null","sub_response","html-keyboard-response","27","219700","0.0-1.0-4.0-3.0-2.4","19:06:47","2","","","","","","","<div style='text-align: center;'>
                            <span style=""color: green; font-size: 40px""><b>正确！+1 pts</b></span></div>
                            ","","learn","0","0","0","learn","0","0","[0, 1, 2]","4","1","setsize","99","prac","0","1","0","1",""
"null","null","fixation","html-keyboard-response","28","220201","0.0-1.0-4.0-3.0-0.5","19:06:47","2","","","","","","","fixation","","","","","","","","","","","","","","","","","","",""
"1314","1","pic_response","html-keyboard-response","29","221516","0.0-1.0-4.0-3.0-1.5","19:06:47","2","","","","","","","<div>
            <img class='stim' src=""pictures/prac/1.jpg""></div><div class=""button_prompt"">
                        <b>请用数字键1-3回答</b>
                        </div>","","","","","","","","","","","","","","","","","","",""
"1314","null","sub_response","html-keyboard-response","30","222518","0.0-1.0-4.0-3.0-2.5","19:06:47","2","","","","","","","<div style='text-align: center;'>
                            <span style=""color: green; font-size: 40px""><b>正确！+1 pts</b></span></div>
                            ","","learn","1","1","1","learn","0","0","[0, 1, 2]","5","1","setsize","99","prac","0","2","0","1",""
"","","","preload","31","222522","0.0-1.0-4.1-0.1","19:06:47","2","true","false","[]","[]","[]","","","","","","","","","","","","","","","","","","","","",""
"2262"," ","","html-keyboard-response","32","224786","0.0-1.0-4.1-1.1","19:06:47","2","","","","","","","<div style='font-size: 32px; text-align: center;'
                    <p>请学习图片和数字之间的对应关系</p>
                    <p>我们将<span style='color: blue'><b> 告诉 </b></span>您选择的对错。请根据反馈学习。</p>
                    <p>请按""空格""继续实验。</p></div>","","","","","","","","","","","","","","","","","","",""
"2728"," ","inst","html-keyboard-response","33","227516","0.0-1.0-4.1-2.1","19:06:47","2","","","","","","","<img class='instruct_stim' src=""instruction/prac3.PNG""></div>","","","","","","","","","","","","","","","","","","",""
"null","null","fixation","html-keyboard-response","34","228018","0.0-1.0-4.1-3.1-0.6","19:06:47","2","","","","","","","fixation","","","","","","","","","","","","","","","","","","",""
"1104","1","pic_response","html-keyboard-response","35","229123","0.0-1.0-4.1-3.1-1.6","19:06:47","2","","","","","","","<div>
            <img class='stim' src=""pictures/prac/0.jpg""></div><div class=""button_prompt"">
                        <b>请用数字键1-3回答</b>
                        </div>","","","","","","","","","","","","","","","","","","",""
"1104","null","sub_response","html-keyboard-response","36","230127","0.0-1.0-4.1-3.1-2.6","19:06:47","2","","","","","","","<div style='text-align: center;'>
                            <span style=""color: green; font-size: 40px""><b>正确！+1 pts</b></span></div>
                            ","","learn","0","0","0","learn","0","0","[0, 1, 2]","0","0","setsize","99","prac","0","3","0","1",""
"null","null","fixation","html-keyboard-response","37","230629","0.0-1.0-4.1-3.1-0.7","19:06:47","2","","","","","","","fixation","","","","","","","","","","","","","","","","","","",""
"420","1","pic_response","html-keyboard-response","38","231050","0.0-1.0-4.1-3.1-1.7","19:06:47","2","","","","","","","<div>
            <img class='stim' src=""pictures/prac/1.jpg""></div><div class=""button_prompt"">
                        <b>请用数字键1-3回答</b>
                        </div>","","","","","","","","","","","","","","","","","","",""
"420","null","sub_response","html-keyboard-response","39","232051","0.0-1.0-4.1-3.1-2.7","19:06:47","2","","","","","","","<div style='text-align: center;'>
                            <span style=""color: green; font-size: 40px""><b>正确！+1 pts</b></span></div>
                            ","","learn","1","1","1","learn","0","0","[0, 1, 2]","1","0","setsize","99","prac","0","4","0","1",""
"null","null","fixation","html-keyboard-response","40","232554","0.0-1.0-4.1-3.1-0.8","19:06:47","2","","","","","","","fixation","","","","","","","","","","","","","","","","","","",""
"802","3","pic_response","html-keyboard-response","41","233356","0.0-1.0-4.1-3.1-1.8","19:06:47","2","","","","","","","<div>
            <img class='stim' src=""pictures/prac/2.jpg""></div><div class=""button_prompt"">
                        <b>请用数字键1-3回答</b>
                        </div>","","","","","","","","","","","","","","","","","","",""
"802","null","sub_response","html-keyboard-response","42","234359","0.0-1.0-4.1-3.1-2.8","19:06:47","2","","","","","","","<div style='text-align: center;'>
                            <span style=""color: green; font-size: 40px""><b>正确！+1 pts</b></span></div>
                            ","","learn","2","2","2","learn","2","2","[0, 1, 2]","2","0","setsize","99","prac","0","5","2","1",""
"null","null","fixation","html-keyboard-response","43","234861","0.0-1.0-4.1-3.1-0.9","19:06:47","2","","","","","","","fixation","","","","","","","","","","","","","","","","","","",""
"372","1","pic_response","html-keyboard-response","44","235235","0.0-1.0-4.1-3.1-1.9","19:06:47","2","","","","","","","<div>
            <img class='stim' src=""pictures/prac/2.jpg""></div><div class=""button_prompt"">
                        <b>请用数字键1-3回答</b>
                        </div>","","","","","","","","","","","","","","","","","","",""
"372","null","sub_response","html-keyboard-response","45","236236","0.0-1.0-4.1-3.1-2.9","19:06:47","2","","","","","","","<div style='text-align: center;'>
                            <span style=""color: red; font-size: 40px""><b>错误！+0 pts</b></span></div>
                            ","","learn","2","2","2","learn","2","2","[0, 1, 2]","3","1","setsize","99","prac","0","0","0","0",""
"null","null","fixation","html-keyboard-response","46","236743","0.0-1.0-4.1-3.1-0.10","19:06:47","2","","","","","","","fixation","","","","","","","","","","","","","","","","","","",""
"797","1","pic_response","html-keyboard-response","47","237541","0.0-1.0-4.1-3.1-1.10","19:06:47","2","","","","","","","<div>
            <img class='stim' src=""pictures/prac/0.jpg""></div><div class=""button_prompt"">
                        <b>请用数字键1-3回答</b>
                        </div>","","","","","","","","","","","","","","","","","","",""
"797","null","sub_response","html-keyboard-response","48","238542","0.0-1.0-4.1-3.1-2.10","19:06:47","2","","","","","","","<div style='text-align: center;'>
                            <span style=""color: green; font-size: 40px""><b>正确！+1 pts</b></span></div>
                            ","","learn","0","0","0","learn","0","0","[0, 1, 2]","4","1","setsize","99","prac","0","1","0","1",""
"null","null","fixation","html-keyboard-response","49","239044","0.0-1.0-4.1-3.1-0.11","19:06:47","2","","","","","","","fixation","","","","","","","","","","","","","","","","","","",""
"472","1","pic_response","html-keyboard-response","50","239517","0.0-1.0-4.1-3.1-1.11","19:06:47","2","","","","","","","<div>
            <img class='stim' src=""pictures/prac/1.jpg""></div><div class=""button_prompt"">
                        <b>请用数字键1-3回答</b>
                        </div>","","","","","","","","","","","","","","","","","","",""
"472","null","sub_response","html-keyboard-response","51","240520","0.0-1.0-4.1-3.1-2.11","19:06:47","2","","","","","","","<div style='text-align: center;'>
                            <span style=""color: green; font-size: 40px""><b>正确！+1 pts</b></span></div>
                            ","","learn","1","1","1","learn","0","0","[0, 1, 2]","5","1","setsize","99","prac","0","2","0","1",""
"1861"," ","","html-keyboard-response","52","242382","0.0-1.0-5.0","19:06:47","2","","","","","","","<div style=""font-size: 25px""><p>距下一个实验开始还有</p><div style=""font-size: 50px; color: blue""><p><span id=""clock"">1:00</span></div></p><p>按""空格""跳过休息</p></div>","","","","","","","","","","","","","","","","","","",""
"613"," ","","html-keyboard-response","53","242996","0.0-1.0-6.0","19:06:47","2","","","","","","","<div style='font-size: 32px; text-align: center;'
                    <p>请按""空格""继续正式实验。</p></div>","","","","","","","","","","","","","","","","","","",""
"","","","preload","54","243059","0.0-1.0-7.0-0.0","19:06:47","2","true","false","[]","[]","[]","","","","","","","","","","","","","","","","","","","","",""
"82092"," ","","html-keyboard-response","55","325150","0.0-1.0-7.0-1.0","19:06:47","2","","","","","","","<div style='font-size: 32px; text-align: center;'
                    <p>请学习图片和数字之间的对应关系</p>
                    <p>我们将<span style='color: blue'><b> 告诉 </b></span>您选择的对错。请根据反馈学习。</p>
                    <p>请按""空格""继续实验。</p></div>","","","","","","","","","","","","","","","","","","",""
"5111"," ","inst","html-keyboard-response","56","330263","0.0-1.0-7.0-2.0","19:06:47","2","","","","","","","<img class='instruct_stim' src=""instruction/food3.PNG""></div>","","","","","","","","","","","","","","","","","","",""
"null","null","fixation","html-keyboard-response","57","330763","0.0-1.0-7.0-3.0-0.0","19:06:47","2","","","","","","","fixation","","","","","","","","","","","","","","","","","","",""
"1822","1","pic_response","html-keyboard-response","58","332587","0.0-1.0-7.0-3.0-1.0","19:06:47","2","","","","","","","<div>
            <img class='stim' src=""pictures/food/0.jpg""></div><div class=""button_prompt"">
                    <b>请用数字键0-9回答</b>
                    </div>","","","","","","","","","","","","","","","","","","",""
"1822","null","sub_response","html-keyboard-response","59","333589","0.0-1.0-7.0-3.0-2.0","19:06:47","2","","","","","","","<div style='text-align: center;'>
                            <span style=""color: red; font-size: 40px""><b>错误！+0 pts</b></span></div>
                            ","","learn","0","0","0","learn","2","2","[0, 1, 2, 3, 4, 5, 6, 7, 8, 9]","0","0","setsize","3S10A","food","1","0","0","0",""
"null","null","fixation","html-keyboard-response","60","334091","0.0-1.0-7.0-3.0-0.1","19:06:47","2","","","","","","","fixation","","","","","","","","","","","","","","","","","","",""
"null","null","pic_response","html-keyboard-response","61","337092","0.0-1.0-7.0-3.0-1.1","19:06:47","2","","","","","","","<div>
            <img class='stim' src=""pictures/food/1.jpg""></div><div class=""button_prompt"">
                    <b>请用数字键0-9回答</b>
                    </div>","","","","","","","","","","","","","","","","","","",""
"null","null","sub_response","html-keyboard-response","62","338093","0.0-1.0-7.0-3.0-2.1","19:06:47","2","","","","","","","<div style='text-align: center;'>
                            <span style=""color: red; font-size: 40px""><b>错误！+0 pts</b></span></div>
                            ","","learn","1","1","1","learn","6","6","[0, 1, 2, 3, 4, 5, 6, 7, 8, 9]","1","0","setsize","3S10A","food","1","0","999","0",""
"null","null","fixation","html-keyboard-response","63","338595","0.0-1.0-7.0-3.0-0.2","19:06:47","2","","","","","","","fixation","","","","","","","","","","","","","","","","","","",""
"1435","2","pic_response","html-keyboard-response","64","340032","0.0-1.0-7.0-3.0-1.2","19:06:47","2","","","","","","","<div>
            <img class='stim' src=""pictures/food/2.jpg""></div><div class=""button_prompt"">
                    <b>请用数字键0-9回答</b>
                    </div>","","","","","","","","","","","","","","","","","","",""
"1435","null","sub_response","html-keyboard-response","65","341033","0.0-1.0-7.0-3.0-2.2","19:06:47","2","","","","","","","<div style='text-align: center;'>
                            <span style=""color: red; font-size: 40px""><b>错误！+0 pts</b></span></div>
                            ","","learn","2","2","2","learn","9","9","[0, 1, 2, 3, 4, 5, 6, 7, 8, 9]","2","0","setsize","3S10A","food","1","0","1","0",""
"null","null","fixation","html-keyboard-response","66","341537","0.0-1.0-7.0-3.0-0.3","19:06:47","2","","","","","","","fixation","","","","","","","","","","","","","","","","","","",""
"1373","3","pic_response","html-keyboard-response","67","342910","0.0-1.0-7.0-3.0-1.3","19:06:47","2","","","","","","","<div>
            <img class='stim' src=""pictures/food/2.jpg""></div><div class=""button_prompt"">
                    <b>请用数字键0-9回答</b>
                    </div>","","","","","","","","","","","","","","","","","","",""
"1373","null","sub_response","html-keyboard-response","68","343912","0.0-1.0-7.0-3.0-2.3","19:06:47","2","","","","","","","<div style='text-align: center;'>
                            <span style=""color: red; font-size: 40px""><b>错误！+0 pts</b></span></div>
                            ","","learn","2","2","2","learn","9","9","[0, 1, 2, 3, 4, 5, 6, 7, 8, 9]","3","1","setsize","3S10A","food","1","0","2","0",""
"null","null","fixation","html-keyboard-response","69","344414","0.0-1.0-7.0-3.0-0.4","19:06:47","2","","","","","","","fixation","","","","","","","","","","","","","","","","","","",""
"1148","2","pic_response","html-keyboard-response","70","345564","0.0-1.0-7.0-3.0-1.4","19:06:47","2","","","","","","","<div>
            <img class='stim' src=""pictures/food/0.jpg""></div><div class=""button_prompt"">
                    <b>请用数字键0-9回答</b>
                    </div>","","","","","","","","","","","","","","","","","","",""
"1148","null","sub_response","html-keyboard-response","71","346567","0.0-1.0-7.0-3.0-2.4","19:06:47","2","","","","","","","<div style='text-align: center;'>
                            <span style=""color: red; font-size: 40px""><b>错误！+0 pts</b></span></div>
                            ","","learn","0","0","0","learn","2","2","[0, 1, 2, 3, 4, 5, 6, 7, 8, 9]","4","1","setsize","3S10A","food","1","0","1","0",""
"null","null","fixation","html-keyboard-response","72","347069","0.0-1.0-7.0-3.0-0.5","19:06:47","2","","","","","","","fixation","","","","","","","","","","","","","","","","","","",""
"1412","3","pic_response","html-keyboard-response","73","348483","0.0-1.0-7.0-3.0-1.5","19:06:47","2","","","","","","","<div>
            <img class='stim' src=""pictures/food/1.jpg""></div><div class=""button_prompt"">
                    <b>请用数字键0-9回答</b>
                    </div>","","","","","","","","","","","","","","","","","","",""
"1412","null","sub_response","html-keyboard-response","74","349485","0.0-1.0-7.0-3.0-2.5","19:06:47","2","","","","","","","<div style='text-align: center;'>
                            <span style=""color: red; font-size: 40px""><b>错误！+0 pts</b></span></div>
                            ","","learn","1","1","1","learn","6","6","[0, 1, 2, 3, 4, 5, 6, 7, 8, 9]","5","1","setsize","3S10A","food","1","0","2","0",""
"null","null","fixation","html-keyboard-response","75","349988","0.0-1.0-7.0-3.0-0.6","19:06:47","2","","","","","","","fixation","","","","","","","","","","","","","","","","","","",""
"828","4","pic_response","html-keyboard-response","76","350817","0.0-1.0-7.0-3.0-1.6","19:06:47","2","","","","","","","<div>
            <img class='stim' src=""pictures/food/1.jpg""></div><div class=""button_prompt"">
                    <b>请用数字键0-9回答</b>
                    </div>","","","","","","","","","","","","","","","","","","",""
"828","null","sub_response","html-keyboard-response","77","351819","0.0-1.0-7.0-3.0-2.6","19:06:47","2","","","","","","","<div style='text-align: center;'>
                            <span style=""color: red; font-size: 40px""><b>错误！+0 pts</b></span></div>
                            ","","learn","1","1","1","learn","6","6","[0, 1, 2, 3, 4, 5, 6, 7, 8, 9]","6","2","setsize","3S10A","food","1","0","3","0",""
"null","null","fixation","html-keyboard-response","78","352321","0.0-1.0-7.0-3.0-0.7","19:06:47","2","","","","","","","fixation","","","","","","","","","","","","","","","","","","",""
"1567","5","pic_response","html-keyboard-response","79","353889","0.0-1.0-7.0-3.0-1.7","19:06:47","2","","","","","","","<div>
            <img class='stim' src=""pictures/food/2.jpg""></div><div class=""button_prompt"">
                    <b>请用数字键0-9回答</b>
                    </div>","","","","","","","","","","","","","","","","","","",""
"1567","null","sub_response","html-keyboard-response","80","354891","0.0-1.0-7.0-3.0-2.7","19:06:47","2","","","","","","","<div style='text-align: center;'>
                            <span style=""color: red; font-size: 40px""><b>错误！+0 pts</b></span></div>
                            ","","learn","2","2","2","learn","9","9","[0, 1, 2, 3, 4, 5, 6, 7, 8, 9]","7","2","setsize","3S10A","food","1","0","4","0",""
"null","null","fixation","html-keyboard-response","81","355393","0.0-1.0-7.0-3.0-0.8","19:06:47","2","","","","","","","fixation","","","","","","","","","","","","","","","","","","",""
"1990","6","pic_response","html-keyboard-response","82","357383","0.0-1.0-7.0-3.0-1.8","19:06:47","2","","","","","","","<div>
            <img class='stim' src=""pictures/food/0.jpg""></div><div class=""button_prompt"">
                    <b>请用数字键0-9回答</b>
                    </div>","","","","","","","","","","","","","","","","","","",""
"1990","null","sub_response","html-keyboard-response","83","358386","0.0-1.0-7.0-3.0-2.8","19:06:47","2","","","","","","","<div style='text-align: center;'>
                            <span style=""color: red; font-size: 40px""><b>错误！+0 pts</b></span></div>
                            ","","learn","0","0","0","learn","2","2","[0, 1, 2, 3, 4, 5, 6, 7, 8, 9]","8","2","setsize","3S10A","food","1","0","5","0",""
"null","null","fixation","html-keyboard-response","84","358887","0.0-1.0-7.0-3.0-0.9","19:06:47","2","","","","","","","fixation","","","","","","","","","","","","","","","","","","",""
"746","7","pic_response","html-keyboard-response","85","359634","0.0-1.0-7.0-3.0-1.9","19:06:47","2","","","","","","","<div>
            <img class='stim' src=""pictures/food/2.jpg""></div><div class=""button_prompt"">
                    <b>请用数字键0-9回答</b>
                    </div>","","","","","","","","","","","","","","","","","","",""
"746","null","sub_response","html-keyboard-response","86","360636","0.0-1.0-7.0-3.0-2.9","19:06:47","2","","","","","","","<div style='text-align: center;'>
                            <span style=""color: red; font-size: 40px""><b>错误！+0 pts</b></span></div>
                            ","","learn","2","2","2","learn","9","9","[0, 1, 2, 3, 4, 5, 6, 7, 8, 9]","9","3","setsize","3S10A","food","1","0","6","0",""
"null","null","fixation","html-keyboard-response","87","361138","0.0-1.0-7.0-3.0-0.10","19:06:47","2","","","","","","","fixation","","","","","","","","","","","","","","","","","","",""
"878","8","pic_response","html-keyboard-response","88","362017","0.0-1.0-7.0-3.0-1.10","19:06:47","2","","","","","","","<div>
            <img class='stim' src=""pictures/food/0.jpg""></div><div class=""button_prompt"">
                    <b>请用数字键0-9回答</b>
                    </div>","","","","","","","","","","","","","","","","","","",""
"878","null","sub_response","html-keyboard-response","89","363019","0.0-1.0-7.0-3.0-2.10","19:06:47","2","","","","","","","<div style='text-align: center;'>
                            <span style=""color: red; font-size: 40px""><b>错误！+0 pts</b></span></div>
                            ","","learn","0","0","0","learn","2","2","[0, 1, 2, 3, 4, 5, 6, 7, 8, 9]","10","3","setsize","3S10A","food","1","0","7","0",""
"null","null","fixation","html-keyboard-response","90","363520","0.0-1.0-7.0-3.0-0.11","19:06:47","2","","","","","","","fixation","","","","","","","","","","","","","","","","","","",""
"734","9","pic_response","html-keyboard-response","91","364255","0.0-1.0-7.0-3.0-1.11","19:06:47","2","","","","","","","<div>
            <img class='stim' src=""pictures/food/1.jpg""></div><div class=""button_prompt"">
                    <b>请用数字键0-9回答</b>
                    </div>","","","","","","","","","","","","","","","","","","",""
"734","null","sub_response","html-keyboard-response","92","365256","0.0-1.0-7.0-3.0-2.11","19:06:47","2","","","","","","","<div style='text-align: center;'>
                            <span style=""color: red; font-size: 40px""><b>错误！+0 pts</b></span></div>
                            ","","learn","1","1","1","learn","6","6","[0, 1, 2, 3, 4, 5, 6, 7, 8, 9]","11","3","setsize","3S10A","food","1","0","8","0",""
"null","null","fixation","html-keyboard-response","93","365758","0.0-1.0-7.0-3.0-0.12","19:06:47","2","","","","","","","fixation","","","","","","","","","","","","","","","","","","",""
"281","0","pic_response","html-keyboard-response","94","366041","0.0-1.0-7.0-3.0-1.12","19:06:47","2","","","","","","","<div>
            <img class='stim' src=""pictures/food/1.jpg""></div><div class=""button_prompt"">
                    <b>请用数字键0-9回答</b>
                    </div>","","","","","","","","","","","","","","","","","","",""
"281","null","sub_response","html-keyboard-response","95","367043","0.0-1.0-7.0-3.0-2.12","19:06:47","2","","","","","","","<div style='text-align: center;'>
                            <span style=""color: red; font-size: 40px""><b>错误！+0 pts</b></span></div>
                            ","","learn","1","1","1","learn","6","6","[0, 1, 2, 3, 4, 5, 6, 7, 8, 9]","12","4","setsize","3S10A","food","1","0","9","0",""
"null","null","fixation","html-keyboard-response","96","367546","0.0-1.0-7.0-3.0-0.13","19:06:47","2","","","","","","","fixation","","","","","","","","","","","","","","","","","","",""
"1040","0","pic_response","html-keyboard-response","97","368589","0.0-1.0-7.0-3.0-1.13","19:06:47","2","","","","","","","<div>
            <img class='stim' src=""pictures/food/2.jpg""></div><div class=""button_prompt"">
                    <b>请用数字键0-9回答</b>
                    </div>","","","","","","","","","","","","","","","","","","",""
"1040","null","sub_response","html-keyboard-response","98","369590","0.0-1.0-7.0-3.0-2.13","19:06:47","2","","","","","","","<div style='text-align: center;'>
                            <span style=""color: green; font-size: 40px""><b>正确！+1 pts</b></span></div>
                            ","","learn","2","2","2","learn","9","9","[0, 1, 2, 3, 4, 5, 6, 7, 8, 9]","13","4","setsize","3S10A","food","1","1","9","1",""
"null","null","fixation","html-keyboard-response","99","370092","0.0-1.0-7.0-3.0-0.14","19:06:47","2","","","","","","","fixation","","","","","","","","","","","","","","","","","","",""
"1212","9","pic_response","html-keyboard-response","100","371306","0.0-1.0-7.0-3.0-1.14","19:06:47","2","","","","","","","<div>
            <img class='stim' src=""pictures/food/0.jpg""></div><div class=""button_prompt"">
                    <b>请用数字键0-9回答</b>
                    </div>","","","","","","","","","","","","","","","","","","",""
"1212","null","sub_response","html-keyboard-response","101","372308","0.0-1.0-7.0-3.0-2.14","19:06:47","2","","","","","","","<div style='text-align: center;'>
                            <span style=""color: red; font-size: 40px""><b>错误！+0 pts</b></span></div>
                            ","","learn","0","0","0","learn","2","2","[0, 1, 2, 3, 4, 5, 6, 7, 8, 9]","14","4","setsize","3S10A","food","1","0","8","0",""
"null","null","fixation","html-keyboard-response","102","372809","0.0-1.0-7.0-3.0-0.15","19:06:47","2","","","","","","","fixation","","","","","","","","","","","","","","","","","","",""
"733","9","pic_response","html-keyboard-response","103","373542","0.0-1.0-7.0-3.0-1.15","19:06:47","2","","","","","","","<div>
            <img class='stim' src=""pictures/food/1.jpg""></div><div class=""button_prompt"">
                    <b>请用数字键0-9回答</b>
                    </div>","","","","","","","","","","","","","","","","","","",""
"733","null","sub_response","html-keyboard-response","104","374545","0.0-1.0-7.0-3.0-2.15","19:06:47","2","","","","","","","<div style='text-align: center;'>
                            <span style=""color: red; font-size: 40px""><b>错误！+0 pts</b></span></div>
                            ","","learn","1","1","1","learn","6","6","[0, 1, 2, 3, 4, 5, 6, 7, 8, 9]","15","5","setsize","3S10A","food","1","0","8","0",""
"null","null","fixation","html-keyboard-response","105","375046","0.0-1.0-7.0-3.0-0.16","19:06:47","2","","","","","","","fixation","","","","","","","","","","","","","","","","","","",""
"858","8","pic_response","html-keyboard-response","106","375906","0.0-1.0-7.0-3.0-1.16","19:06:47","2","","","","","","","<div>
            <img class='stim' src=""pictures/food/0.jpg""></div><div class=""button_prompt"">
                    <b>请用数字键0-9回答</b>
                    </div>","","","","","","","","","","","","","","","","","","",""
"858","null","sub_response","html-keyboard-response","107","376908","0.0-1.0-7.0-3.0-2.16","19:06:47","2","","","","","","","<div style='text-align: center;'>
                            <span style=""color: red; font-size: 40px""><b>错误！+0 pts</b></span></div>
                            ","","learn","0","0","0","learn","2","2","[0, 1, 2, 3, 4, 5, 6, 7, 8, 9]","16","5","setsize","3S10A","food","1","0","7","0",""
"null","null","fixation","html-keyboard-response","108","377409","0.0-1.0-7.0-3.0-0.17","19:06:47","2","","","","","","","fixation","","","","","","","","","","","","","","","","","","",""
"942","8","pic_response","html-keyboard-response","109","378354","0.0-1.0-7.0-3.0-1.17","19:06:47","2","","","","","","","<div>
            <img class='stim' src=""pictures/food/2.jpg""></div><div class=""button_prompt"">
                    <b>请用数字键0-9回答</b>
                    </div>","","","","","","","","","","","","","","","","","","",""
"942","null","sub_response","html-keyboard-response","110","379356","0.0-1.0-7.0-3.0-2.17","19:06:47","2","","","","","","","<div style='text-align: center;'>
                            <span style=""color: red; font-size: 40px""><b>错误！+0 pts</b></span></div>
                            ","","learn","2","2","2","learn","9","9","[0, 1, 2, 3, 4, 5, 6, 7, 8, 9]","17","5","setsize","3S10A","food","1","0","7","0",""
"null","null","fixation","html-keyboard-response","111","379857","0.0-1.0-7.0-3.0-0.18","19:06:47","2","","","","","","","fixation","","","","","","","","","","","","","","","","","","",""
"2080","7","pic_response","html-keyboard-response","112","381938","0.0-1.0-7.0-3.0-1.18","19:06:47","2","","","","","","","<div>
            <img class='stim' src=""pictures/food/0.jpg""></div><div class=""button_prompt"">
                    <b>请用数字键0-9回答</b>
                    </div>","","","","","","","","","","","","","","","","","","",""
"2080","null","sub_response","html-keyboard-response","113","382941","0.0-1.0-7.0-3.0-2.18","19:06:47","2","","","","","","","<div style='text-align: center;'>
                            <span style=""color: red; font-size: 40px""><b>错误！+0 pts</b></span></div>
                            ","","learn","0","0","0","learn","2","2","[0, 1, 2, 3, 4, 5, 6, 7, 8, 9]","18","6","setsize","3S10A","food","1","0","6","0",""
"null","null","fixation","html-keyboard-response","114","383443","0.0-1.0-7.0-3.0-0.19","19:06:47","2","","","","","","","fixation","","","","","","","","","","","","","","","","","","",""
"1840","7","pic_response","html-keyboard-response","115","385284","0.0-1.0-7.0-3.0-1.19","19:06:47","2","","","","","","","<div>
            <img class='stim' src=""pictures/food/1.jpg""></div><div class=""button_prompt"">
                    <b>请用数字键0-9回答</b>
                    </div>","","","","","","","","","","","","","","","","","","",""
"1840","null","sub_response","html-keyboard-response","116","386286","0.0-1.0-7.0-3.0-2.19","19:06:47","2","","","","","","","<div style='text-align: center;'>
                            <span style=""color: green; font-size: 40px""><b>正确！+1 pts</b></span></div>
                            ","","learn","1","1","1","learn","6","6","[0, 1, 2, 3, 4, 5, 6, 7, 8, 9]","19","6","setsize","3S10A","food","1","1","6","1",""
"null","null","fixation","html-keyboard-response","117","386788","0.0-1.0-7.0-3.0-0.20","19:06:47","2","","","","","","","fixation","","","","","","","","","","","","","","","","","","",""
"1529","6","pic_response","html-keyboard-response","118","388319","0.0-1.0-7.0-3.0-1.20","19:06:47","2","","","","","","","<div>
            <img class='stim' src=""pictures/food/2.jpg""></div><div class=""button_prompt"">
                    <b>请用数字键0-9回答</b>
                    </div>","","","","","","","","","","","","","","","","","","",""
"1529","null","sub_response","html-keyboard-response","119","389320","0.0-1.0-7.0-3.0-2.20","19:06:47","2","","","","","","","<div style='text-align: center;'>
                            <span style=""color: red; font-size: 40px""><b>错误！+0 pts</b></span></div>
                            ","","learn","2","2","2","learn","9","9","[0, 1, 2, 3, 4, 5, 6, 7, 8, 9]","20","6","setsize","3S10A","food","1","0","5","0",""
"null","null","fixation","html-keyboard-response","120","389821","0.0-1.0-7.0-3.0-0.21","19:06:47","2","","","","","","","fixation","","","","","","","","","","","","","","","","","","",""
"1044","7","pic_response","html-keyboard-response","121","390866","0.0-1.0-7.0-3.0-1.21","19:06:47","2","","","","","","","<div>
            <img class='stim' src=""pictures/food/2.jpg""></div><div class=""button_prompt"">
                    <b>请用数字键0-9回答</b>
                    </div>","","","","","","","","","","","","","","","","","","",""
"1044","null","sub_response","html-keyboard-response","122","391867","0.0-1.0-7.0-3.0-2.21","19:06:47","2","","","","","","","<div style='text-align: center;'>
                            <span style=""color: red; font-size: 40px""><b>错误！+0 pts</b></span></div>
                            ","","learn","2","2","2","learn","9","9","[0, 1, 2, 3, 4, 5, 6, 7, 8, 9]","21","7","setsize","3S10A","food","1","0","6","0",""
"null","null","fixation","html-keyboard-response","123","392381","0.0-1.0-7.0-3.0-0.22","19:06:47","2","","","","","","","fixation","","","","","","","","","","","","","","","","","","",""
"1350","6","pic_response","html-keyboard-response","124","393733","0.0-1.0-7.0-3.0-1.22","19:06:47","2","","","","","","","<div>
            <img class='stim' src=""pictures/food/0.jpg""></div><div class=""button_prompt"">
                    <b>请用数字键0-9回答</b>
                    </div>","","","","","","","","","","","","","","","","","","",""
"1350","null","sub_response","html-keyboard-response","125","394734","0.0-1.0-7.0-3.0-2.22","19:06:47","2","","","","","","","<div style='text-align: center;'>
                            <span style=""color: red; font-size: 40px""><b>错误！+0 pts</b></span></div>
                            ","","learn","0","0","0","learn","2","2","[0, 1, 2, 3, 4, 5, 6, 7, 8, 9]","22","7","setsize","3S10A","food","1","0","5","0",""
"null","null","fixation","html-keyboard-response","126","395236","0.0-1.0-7.0-3.0-0.23","19:06:47","2","","","","","","","fixation","","","","","","","","","","","","","","","","","","",""
"1707","7","pic_response","html-keyboard-response","127","396943","0.0-1.0-7.0-3.0-1.23","19:06:47","2","","","","","","","<div>
            <img class='stim' src=""pictures/food/1.jpg""></div><div class=""button_prompt"">
                    <b>请用数字键0-9回答</b>
                    </div>","","","","","","","","","","","","","","","","","","",""
"1707","null","sub_response","html-keyboard-response","128","397945","0.0-1.0-7.0-3.0-2.23","19:06:47","2","","","","","","","<div style='text-align: center;'>
                            <span style=""color: green; font-size: 40px""><b>正确！+1 pts</b></span></div>
                            ","","learn","1","1","1","learn","6","6","[0, 1, 2, 3, 4, 5, 6, 7, 8, 9]","23","7","setsize","3S10A","food","1","1","6","1",""
"null","null","fixation","html-keyboard-response","129","398447","0.0-1.0-7.0-3.0-0.24","19:06:47","2","","","","","","","fixation","","","","","","","","","","","","","","","","","","",""
"1095","5","pic_response","html-keyboard-response","130","399544","0.0-1.0-7.0-3.0-1.24","19:06:47","2","","","","","","","<div>
            <img class='stim' src=""pictures/food/0.jpg""></div><div class=""button_prompt"">
                    <b>请用数字键0-9回答</b>
                    </div>","","","","","","","","","","","","","","","","","","",""
"1095","null","sub_response","html-keyboard-response","131","400546","0.0-1.0-7.0-3.0-2.24","19:06:47","2","","","","","","","<div style='text-align: center;'>
                            <span style=""color: red; font-size: 40px""><b>错误！+0 pts</b></span></div>
                            ","","learn","0","0","0","learn","2","2","[0, 1, 2, 3, 4, 5, 6, 7, 8, 9]","24","8","setsize","3S10A","food","1","0","4","0",""
"null","null","fixation","html-keyboard-response","132","401048","0.0-1.0-7.0-3.0-0.25","19:06:47","2","","","","","","","fixation","","","","","","","","","","","","","","","","","","",""
"1869","9","pic_response","html-keyboard-response","133","402918","0.0-1.0-7.0-3.0-1.25","19:06:47","2","","","","","","","<div>
            <img class='stim' src=""pictures/food/2.jpg""></div><div class=""button_prompt"">
                    <b>请用数字键0-9回答</b>
                    </div>","","","","","","","","","","","","","","","","","","",""
"1869","null","sub_response","html-keyboard-response","134","403921","0.0-1.0-7.0-3.0-2.25","19:06:47","2","","","","","","","<div style='text-align: center;'>
                            <span style=""color: red; font-size: 40px""><b>错误！+0 pts</b></span></div>
                            ","","learn","2","2","2","learn","9","9","[0, 1, 2, 3, 4, 5, 6, 7, 8, 9]","25","8","setsize","3S10A","food","1","0","8","0",""
"null","null","fixation","html-keyboard-response","135","404423","0.0-1.0-7.0-3.0-0.26","19:06:47","2","","","","","","","fixation","","","","","","","","","","","","","","","","","","",""
"835","8","pic_response","html-keyboard-response","136","405260","0.0-1.0-7.0-3.0-1.26","19:06:47","2","","","","","","","<div>
            <img class='stim' src=""pictures/food/1.jpg""></div><div class=""button_prompt"">
                    <b>请用数字键0-9回答</b>
                    </div>","","","","","","","","","","","","","","","","","","",""
"835","null","sub_response","html-keyboard-response","137","406261","0.0-1.0-7.0-3.0-2.26","19:06:47","2","","","","","","","<div style='text-align: center;'>
                            <span style=""color: red; font-size: 40px""><b>错误！+0 pts</b></span></div>
                            ","","learn","1","1","1","learn","6","6","[0, 1, 2, 3, 4, 5, 6, 7, 8, 9]","26","8","setsize","3S10A","food","1","0","7","0",""
"null","null","fixation","html-keyboard-response","138","406763","0.0-1.0-7.0-3.0-0.27","19:06:47","2","","","","","","","fixation","","","","","","","","","","","","","","","","","","",""
"544","3","pic_response","html-keyboard-response","139","407308","0.0-1.0-7.0-3.0-1.27","19:06:47","2","","","","","","","<div>
            <img class='stim' src=""pictures/food/1.jpg""></div><div class=""button_prompt"">
                    <b>请用数字键0-9回答</b>
                    </div>","","","","","","","","","","","","","","","","","","",""
"544","null","sub_response","html-keyboard-response","140","408309","0.0-1.0-7.0-3.0-2.27","19:06:47","2","","","","","","","<div style='text-align: center;'>
                            <span style=""color: red; font-size: 40px""><b>错误！+0 pts</b></span></div>
                            ","","learn","1","1","1","learn","6","6","[0, 1, 2, 3, 4, 5, 6, 7, 8, 9]","27","9","setsize","3S10A","food","1","0","2","0",""
"null","null","fixation","html-keyboard-response","141","408811","0.0-1.0-7.0-3.0-0.28","19:06:47","2","","","","","","","fixation","","","","","","","","","","","","","","","","","","",""
"395","3","pic_response","html-keyboard-response","142","409208","0.0-1.0-7.0-3.0-1.28","19:06:47","2","","","","","","","<div>
            <img class='stim' src=""pictures/food/0.jpg""></div><div class=""button_prompt"">
                    <b>请用数字键0-9回答</b>
                    </div>","","","","","","","","","","","","","","","","","","",""
"395","null","sub_response","html-keyboard-response","143","410209","0.0-1.0-7.0-3.0-2.28","19:06:47","2","","","","","","","<div style='text-align: center;'>
                            <span style=""color: green; font-size: 40px""><b>正确！+1 pts</b></span></div>
                            ","","learn","0","0","0","learn","2","2","[0, 1, 2, 3, 4, 5, 6, 7, 8, 9]","28","9","setsize","3S10A","food","1","1","2","1",""
"null","null","fixation","html-keyboard-response","144","410710","0.0-1.0-7.0-3.0-0.29","19:06:47","2","","","","","","","fixation","","","","","","","","","","","","","","","","","","",""
"1720","9","pic_response","html-keyboard-response","145","412432","0.0-1.0-7.0-3.0-1.29","19:06:47","2","","","","","","","<div>
            <img class='stim' src=""pictures/food/2.jpg""></div><div class=""button_prompt"">
                    <b>请用数字键0-9回答</b>
                    </div>","","","","","","","","","","","","","","","","","","",""
"1720","null","sub_response","html-keyboard-response","146","413433","0.0-1.0-7.0-3.0-2.29","19:06:47","2","","","","","","","<div style='text-align: center;'>
                            <span style=""color: red; font-size: 40px""><b>错误！+0 pts</b></span></div>
                            ","","learn","2","2","2","learn","9","9","[0, 1, 2, 3, 4, 5, 6, 7, 8, 9]","29","9","setsize","3S10A","food","1","0","8","0",""
"null","null","fixation","html-keyboard-response","147","413936","0.0-1.0-7.0-3.0-0.30","19:06:47","2","","","","","","","fixation","","","","","","","","","","","","","","","","","","",""
"991","3","pic_response","html-keyboard-response","148","414928","0.0-1.0-7.0-3.0-1.30","19:06:47","2","","","","","","","<div>
            <img class='stim' src=""pictures/food/0.jpg""></div><div class=""button_prompt"">
                    <b>请用数字键0-9回答</b>
                    </div>","","","","","","","","","","","","","","","","","","",""
"991","null","sub_response","html-keyboard-response","149","415930","0.0-1.0-7.0-3.0-2.30","19:06:47","2","","","","","","","<div style='text-align: center;'>
                            <span style=""color: green; font-size: 40px""><b>正确！+1 pts</b></span></div>
                            ","","learn","0","0","0","learn","2","2","[0, 1, 2, 3, 4, 5, 6, 7, 8, 9]","30","10","setsize","3S10A","food","1","1","2","1",""
"null","null","fixation","html-keyboard-response","150","416445","0.0-1.0-7.0-3.0-0.31","19:06:47","2","","","","","","","fixation","","","","","","","","","","","","","","","","","","",""
"450","7","pic_response","html-keyboard-response","151","416896","0.0-1.0-7.0-3.0-1.31","19:06:47","2","","","","","","","<div>
            <img class='stim' src=""pictures/food/2.jpg""></div><div class=""button_prompt"">
                    <b>请用数字键0-9回答</b>
                    </div>","","","","","","","","","","","","","","","","","","",""
"450","null","sub_response","html-keyboard-response","152","417898","0.0-1.0-7.0-3.0-2.31","19:06:47","2","","","","","","","<div style='text-align: center;'>
                            <span style=""color: red; font-size: 40px""><b>错误！+0 pts</b></span></div>
                            ","","learn","2","2","2","learn","9","9","[0, 1, 2, 3, 4, 5, 6, 7, 8, 9]","31","10","setsize","3S10A","food","1","0","6","0",""
"null","null","fixation","html-keyboard-response","153","418399","0.0-1.0-7.0-3.0-0.32","19:06:47","2","","","","","","","fixation","","","","","","","","","","","","","","","","","","",""
"2119","8","pic_response","html-keyboard-response","154","420519","0.0-1.0-7.0-3.0-1.32","19:06:47","2","","","","","","","<div>
            <img class='stim' src=""pictures/food/1.jpg""></div><div class=""button_prompt"">
                    <b>请用数字键0-9回答</b>
                    </div>","","","","","","","","","","","","","","","","","","",""
"2119","null","sub_response","html-keyboard-response","155","421521","0.0-1.0-7.0-3.0-2.32","19:06:47","2","","","","","","","<div style='text-align: center;'>
                            <span style=""color: red; font-size: 40px""><b>错误！+0 pts</b></span></div>
                            ","","learn","1","1","1","learn","6","6","[0, 1, 2, 3, 4, 5, 6, 7, 8, 9]","32","10","setsize","3S10A","food","1","0","7","0",""
"null","null","fixation","html-keyboard-response","156","422023","0.0-1.0-7.0-3.0-0.33","19:06:47","2","","","","","","","fixation","","","","","","","","","","","","","","","","","","",""
"1106","9","pic_response","html-keyboard-response","157","423131","0.0-1.0-7.0-3.0-1.33","19:06:47","2","","","","","","","<div>
            <img class='stim' src=""pictures/food/1.jpg""></div><div class=""button_prompt"">
                    <b>请用数字键0-9回答</b>
                    </div>","","","","","","","","","","","","","","","","","","",""
"1106","null","sub_response","html-keyboard-response","158","424132","0.0-1.0-7.0-3.0-2.33","19:06:47","2","","","","","","","<div style='text-align: center;'>
                            <span style=""color: red; font-size: 40px""><b>错误！+0 pts</b></span></div>
                            ","","learn","1","1","1","learn","6","6","[0, 1, 2, 3, 4, 5, 6, 7, 8, 9]","33","11","setsize","3S10A","food","1","0","8","0",""
"null","null","fixation","html-keyboard-response","159","424634","0.0-1.0-7.0-3.0-0.34","19:06:47","2","","","","","","","fixation","","","","","","","","","","","","","","","","","","",""
"1906","3","pic_response","html-keyboard-response","160","426542","0.0-1.0-7.0-3.0-1.34","19:06:47","2","","","","","","","<div>
            <img class='stim' src=""pictures/food/2.jpg""></div><div class=""button_prompt"">
                    <b>请用数字键0-9回答</b>
                    </div>","","","","","","","","","","","","","","","","","","",""
"1906","null","sub_response","html-keyboard-response","161","427545","0.0-1.0-7.0-3.0-2.34","19:06:47","2","","","","","","","<div style='text-align: center;'>
                            <span style=""color: red; font-size: 40px""><b>错误！+0 pts</b></span></div>
                            ","","learn","2","2","2","learn","9","9","[0, 1, 2, 3, 4, 5, 6, 7, 8, 9]","34","11","setsize","3S10A","food","1","0","2","0",""
"null","null","fixation","html-keyboard-response","162","428046","0.0-1.0-7.0-3.0-0.35","19:06:47","2","","","","","","","fixation","","","","","","","","","","","","","","","","","","",""
"741","3","pic_response","html-keyboard-response","163","428789","0.0-1.0-7.0-3.0-1.35","19:06:47","2","","","","","","","<div>
            <img class='stim' src=""pictures/food/0.jpg""></div><div class=""button_prompt"">
                    <b>请用数字键0-9回答</b>
                    </div>","","","","","","","","","","","","","","","","","","",""
"741","null","sub_response","html-keyboard-response","164","429790","0.0-1.0-7.0-3.0-2.35","19:06:47","2","","","","","","","<div style='text-align: center;'>
                            <span style=""color: green; font-size: 40px""><b>正确！+1 pts</b></span></div>
                            ","","learn","0","0","0","learn","2","2","[0, 1, 2, 3, 4, 5, 6, 7, 8, 9]","35","11","setsize","3S10A","food","1","1","2","1",""
"null","null","fixation","html-keyboard-response","165","430291","0.0-1.0-7.0-3.0-0.36","19:06:47","2","","","","","","","fixation","","","","","","","","","","","","","","","","","","",""
"770","3","pic_response","html-keyboard-response","166","431062","0.0-1.0-7.0-3.0-1.36","19:06:47","2","","","","","","","<div>
            <img class='stim' src=""pictures/food/0.jpg""></div><div class=""button_prompt"">
                    <b>请用数字键0-9回答</b>
                    </div>","","","","","","","","","","","","","","","","","","",""
"770","null","sub_response","html-keyboard-response","167","432064","0.0-1.0-7.0-3.0-2.36","19:06:47","2","","","","","","","<div style='text-align: center;'>
                            <span style=""color: green; font-size: 40px""><b>正确！+1 pts</b></span></div>
                            ","","learn","0","0","0","learn","2","2","[0, 1, 2, 3, 4, 5, 6, 7, 8, 9]","36","12","setsize","3S10A","food","1","2","2","1",""
"null","null","fixation","html-keyboard-response","168","432565","0.0-1.0-7.0-3.0-0.37","19:06:47","2","","","","","","","fixation","","","","","","","","","","","","","","","","","","",""
"1797","7","pic_response","html-keyboard-response","169","434364","0.0-1.0-7.0-3.0-1.37","19:06:47","2","","","","","","","<div>
            <img class='stim' src=""pictures/food/2.jpg""></div><div class=""button_prompt"">
                    <b>请用数字键0-9回答</b>
                    </div>","","","","","","","","","","","","","","","","","","",""
"1797","null","sub_response","html-keyboard-response","170","435366","0.0-1.0-7.0-3.0-2.37","19:06:47","2","","","","","","","<div style='text-align: center;'>
                            <span style=""color: red; font-size: 40px""><b>错误！+0 pts</b></span></div>
                            ","","learn","2","2","2","learn","9","9","[0, 1, 2, 3, 4, 5, 6, 7, 8, 9]","37","12","setsize","3S10A","food","1","0","6","0",""
"null","null","fixation","html-keyboard-response","171","435869","0.0-1.0-7.0-3.0-0.38","19:06:47","2","","","","","","","fixation","","","","","","","","","","","","","","","","","","",""
"1536","6","pic_response","html-keyboard-response","172","437406","0.0-1.0-7.0-3.0-1.38","19:06:47","2","","","","","","","<div>
            <img class='stim' src=""pictures/food/1.jpg""></div><div class=""button_prompt"">
                    <b>请用数字键0-9回答</b>
                    </div>","","","","","","","","","","","","","","","","","","",""
"1536","null","sub_response","html-keyboard-response","173","438408","0.0-1.0-7.0-3.0-2.38","19:06:47","2","","","","","","","<div style='text-align: center;'>
                            <span style=""color: red; font-size: 40px""><b>错误！+0 pts</b></span></div>
                            ","","learn","1","1","1","learn","6","6","[0, 1, 2, 3, 4, 5, 6, 7, 8, 9]","38","12","setsize","3S10A","food","1","0","5","0",""
"null","null","fixation","html-keyboard-response","174","438911","0.0-1.0-7.0-3.0-0.39","19:06:47","2","","","","","","","fixation","","","","","","","","","","","","","","","","","","",""
"1006","3","pic_response","html-keyboard-response","175","439918","0.0-1.0-7.0-3.0-1.39","19:06:47","2","","","","","","","<div>
            <img class='stim' src=""pictures/food/0.jpg""></div><div class=""button_prompt"">
                    <b>请用数字键0-9回答</b>
                    </div>","","","","","","","","","","","","","","","","","","",""
"1006","null","sub_response","html-keyboard-response","176","440919","0.0-1.0-7.0-3.0-2.39","19:06:47","2","","","","","","","<div style='text-align: center;'>
                            <span style=""color: green; font-size: 40px""><b>正确！+1 pts</b></span></div>
                            ","","learn","0","0","0","learn","2","2","[0, 1, 2, 3, 4, 5, 6, 7, 8, 9]","39","13","setsize","3S10A","food","1","1","2","1",""
"null","null","fixation","html-keyboard-response","177","441421","0.0-1.0-7.0-3.0-0.40","19:06:47","2","","","","","","","fixation","","","","","","","","","","","","","","","","","","",""
"536","5","pic_response","html-keyboard-response","178","441958","0.0-1.0-7.0-3.0-1.40","19:06:47","2","","","","","","","<div>
            <img class='stim' src=""pictures/food/2.jpg""></div><div class=""button_prompt"">
                    <b>请用数字键0-9回答</b>
                    </div>","","","","","","","","","","","","","","","","","","",""
"536","null","sub_response","html-keyboard-response","179","442959","0.0-1.0-7.0-3.0-2.40","19:06:47","2","","","","","","","<div style='text-align: center;'>
                            <span style=""color: red; font-size: 40px""><b>错误！+0 pts</b></span></div>
                            ","","learn","2","2","2","learn","9","9","[0, 1, 2, 3, 4, 5, 6, 7, 8, 9]","40","13","setsize","3S10A","food","1","0","4","0",""
"null","null","fixation","html-keyboard-response","180","443462","0.0-1.0-7.0-3.0-0.41","19:06:47","2","","","","","","","fixation","","","","","","","","","","","","","","","","","","",""
"2129","8","pic_response","html-keyboard-response","181","445595","0.0-1.0-7.0-3.0-1.41","19:06:47","2","","","","","","","<div>
            <img class='stim' src=""pictures/food/1.jpg""></div><div class=""button_prompt"">
                    <b>请用数字键0-9回答</b>
                    </div>","","","","","","","","","","","","","","","","","","",""
"2129","null","sub_response","html-keyboard-response","182","446598","0.0-1.0-7.0-3.0-2.41","19:06:47","2","","","","","","","<div style='text-align: center;'>
                            <span style=""color: red; font-size: 40px""><b>错误！+0 pts</b></span></div>
                            ","","learn","1","1","1","learn","6","6","[0, 1, 2, 3, 4, 5, 6, 7, 8, 9]","41","13","setsize","3S10A","food","1","0","7","0",""
"null","null","fixation","html-keyboard-response","183","447099","0.0-1.0-7.0-3.0-0.42","19:06:47","2","","","","","","","fixation","","","","","","","","","","","","","","","","","","",""
"556","9","pic_response","html-keyboard-response","184","447657","0.0-1.0-7.0-3.0-1.42","19:06:47","2","","","","","","","<div>
            <img class='stim' src=""pictures/food/1.jpg""></div><div class=""button_prompt"">
                    <b>请用数字键0-9回答</b>
                    </div>","","","","","","","","","","","","","","","","","","",""
"556","null","sub_response","html-keyboard-response","185","448658","0.0-1.0-7.0-3.0-2.42","19:06:47","2","","","","","","","<div style='text-align: center;'>
                            <span style=""color: red; font-size: 40px""><b>错误！+0 pts</b></span></div>
                            ","","learn","1","1","1","learn","6","6","[0, 1, 2, 3, 4, 5, 6, 7, 8, 9]","42","14","setsize","3S10A","food","1","0","8","0",""
"null","null","fixation","html-keyboard-response","186","449160","0.0-1.0-7.0-3.0-0.43","19:06:47","2","","","","","","","fixation","","","","","","","","","","","","","","","","","","",""
"803","3","pic_response","html-keyboard-response","187","449965","0.0-1.0-7.0-3.0-1.43","19:06:47","2","","","","","","","<div>
            <img class='stim' src=""pictures/food/0.jpg""></div><div class=""button_prompt"">
                    <b>请用数字键0-9回答</b>
                    </div>","","","","","","","","","","","","","","","","","","",""
"803","null","sub_response","html-keyboard-response","188","450967","0.0-1.0-7.0-3.0-2.43","19:06:47","2","","","","","","","<div style='text-align: center;'>
                            <span style=""color: green; font-size: 40px""><b>正确！+1 pts</b></span></div>
                            ","","learn","0","0","0","learn","2","2","[0, 1, 2, 3, 4, 5, 6, 7, 8, 9]","43","14","setsize","3S10A","food","1","1","2","1",""
"null","null","fixation","html-keyboard-response","189","451467","0.0-1.0-7.0-3.0-0.44","19:06:47","2","","","","","","","fixation","","","","","","","","","","","","","","","","","","",""
"1692","8","pic_response","html-keyboard-response","190","453160","0.0-1.0-7.0-3.0-1.44","19:06:47","2","","","","","","","<div>
            <img class='stim' src=""pictures/food/2.jpg""></div><div class=""button_prompt"">
                    <b>请用数字键0-9回答</b>
                    </div>","","","","","","","","","","","","","","","","","","",""
"1692","null","sub_response","html-keyboard-response","191","454162","0.0-1.0-7.0-3.0-2.44","19:06:47","2","","","","","","","<div style='text-align: center;'>
                            <span style=""color: red; font-size: 40px""><b>错误！+0 pts</b></span></div>
                            ","","learn","2","2","2","learn","9","9","[0, 1, 2, 3, 4, 5, 6, 7, 8, 9]","44","14","setsize","3S10A","food","1","0","7","0",""
"null","null","fixation","html-keyboard-response","192","454664","0.0-1.0-7.0-3.0-0.45","19:06:47","2","","","","","","","fixation","","","","","","","","","","","","","","","","","","",""
"246","9","pic_response","html-keyboard-response","193","454911","0.0-1.0-7.0-3.0-1.45","19:06:47","2","","","","","","","<div>
            <img class='stim' src=""pictures/food/0.jpg""></div><div class=""button_prompt"">
                    <b>请用数字键0-9回答</b>
                    </div>","","","","","","","","","","","","","","","","","","",""
"246","null","sub_response","html-keyboard-response","194","455912","0.0-1.0-7.0-3.0-2.45","19:06:47","2","","","","","","","<div style='text-align: center;'>
                            <span style=""color: red; font-size: 40px""><b>错误！+0 pts</b></span></div>
                            ","","learn","0","0","0","learn","2","2","[0, 1, 2, 3, 4, 5, 6, 7, 8, 9]","45","15","setsize","3S10A","food","1","0","8","0",""
"null","null","fixation","html-keyboard-response","195","456415","0.0-1.0-7.0-3.0-0.46","19:06:47","2","","","","","","","fixation","","","","","","","","","","","","","","","","","","",""
"745","9","pic_response","html-keyboard-response","196","457162","0.0-1.0-7.0-3.0-1.46","19:06:47","2","","","","","","","<div>
            <img class='stim' src=""pictures/food/1.jpg""></div><div class=""button_prompt"">
                    <b>请用数字键0-9回答</b>
                    </div>","","","","","","","","","","","","","","","","","","",""
"745","null","sub_response","html-keyboard-response","197","458163","0.0-1.0-7.0-3.0-2.46","19:06:47","2","","","","","","","<div style='text-align: center;'>
                            <span style=""color: red; font-size: 40px""><b>错误！+0 pts</b></span></div>
                            ","","learn","1","1","1","learn","6","6","[0, 1, 2, 3, 4, 5, 6, 7, 8, 9]","46","15","setsize","3S10A","food","1","0","8","0",""
"null","null","fixation","html-keyboard-response","198","458665","0.0-1.0-7.0-3.0-0.47","19:06:47","2","","","","","","","fixation","","","","","","","","","","","","","","","","","","",""
"282","0","pic_response","html-keyboard-response","199","458948","0.0-1.0-7.0-3.0-1.47","19:06:47","2","","","","","","","<div>
            <img class='stim' src=""pictures/food/2.jpg""></div><div class=""button_prompt"">
                    <b>请用数字键0-9回答</b>
                    </div>","","","","","","","","","","","","","","","","","","",""
"282","null","sub_response","html-keyboard-response","200","459950","0.0-1.0-7.0-3.0-2.47","19:06:47","2","","","","","","","<div style='text-align: center;'>
                            <span style=""color: green; font-size: 40px""><b>正确！+1 pts</b></span></div>
                            ","","learn","2","2","2","learn","9","9","[0, 1, 2, 3, 4, 5, 6, 7, 8, 9]","47","15","setsize","3S10A","food","1","1","9","1",""
"null","null","fixation","html-keyboard-response","201","460451","0.0-1.0-7.0-3.0-0.48","19:06:47","2","","","","","","","fixation","","","","","","","","","","","","","","","","","","",""
"2812","4","pic_response","html-keyboard-response","202","463264","0.0-1.0-7.0-3.0-1.48","19:06:47","2","","","","","","","<div>
            <img class='stim' src=""pictures/food/1.jpg""></div><div class=""button_prompt"">
                    <b>请用数字键0-9回答</b>
                    </div>","","","","","","","","","","","","","","","","","","",""
"2812","null","sub_response","html-keyboard-response","203","464267","0.0-1.0-7.0-3.0-2.48","19:06:47","2","","","","","","","<div style='text-align: center;'>
                            <span style=""color: red; font-size: 40px""><b>错误！+0 pts</b></span></div>
                            ","","learn","1","1","1","learn","6","6","[0, 1, 2, 3, 4, 5, 6, 7, 8, 9]","48","16","setsize","3S10A","food","1","0","3","0",""
"null","null","fixation","html-keyboard-response","204","464769","0.0-1.0-7.0-3.0-0.49","19:06:47","2","","","","","","","fixation","","","","","","","","","","","","","","","","","","",""
"879","3","pic_response","html-keyboard-response","205","465650","0.0-1.0-7.0-3.0-1.49","19:06:47","2","","","","","","","<div>
            <img class='stim' src=""pictures/food/0.jpg""></div><div class=""button_prompt"">
                    <b>请用数字键0-9回答</b>
                    </div>","","","","","","","","","","","","","","","","","","",""
"879","null","sub_response","html-keyboard-response","206","466651","0.0-1.0-7.0-3.0-2.49","19:06:47","2","","","","","","","<div style='text-align: center;'>
                            <span style=""color: green; font-size: 40px""><b>正确！+1 pts</b></span></div>
                            ","","learn","0","0","0","learn","2","2","[0, 1, 2, 3, 4, 5, 6, 7, 8, 9]","49","16","setsize","3S10A","food","1","1","2","1",""
"null","null","fixation","html-keyboard-response","207","467152","0.0-1.0-7.0-3.0-0.50","19:06:47","2","","","","","","","fixation","","","","","","","","","","","","","","","","","","",""
"1240","0","pic_response","html-keyboard-response","208","468393","0.0-1.0-7.0-3.0-1.50","19:06:47","2","","","","","","","<div>
            <img class='stim' src=""pictures/food/2.jpg""></div><div class=""button_prompt"">
                    <b>请用数字键0-9回答</b>
                    </div>","","","","","","","","","","","","","","","","","","",""
"1240","null","sub_response","html-keyboard-response","209","469395","0.0-1.0-7.0-3.0-2.50","19:06:47","2","","","","","","","<div style='text-align: center;'>
                            <span style=""color: green; font-size: 40px""><b>正确！+1 pts</b></span></div>
                            ","","learn","2","2","2","learn","9","9","[0, 1, 2, 3, 4, 5, 6, 7, 8, 9]","50","16","setsize","3S10A","food","1","2","9","1",""
"null","null","fixation","html-keyboard-response","210","469896","0.0-1.0-7.0-3.0-0.51","19:06:47","2","","","","","","","fixation","","","","","","","","","","","","","","","","","","",""
"350","2","pic_response","html-keyboard-response","211","470247","0.0-1.0-7.0-3.0-1.51","19:06:47","2","","","","","","","<div>
            <img class='stim' src=""pictures/food/0.jpg""></div><div class=""button_prompt"">
                    <b>请用数字键0-9回答</b>
                    </div>","","","","","","","","","","","","","","","","","","",""
"350","null","sub_response","html-keyboard-response","212","471248","0.0-1.0-7.0-3.0-2.51","19:06:47","2","","","","","","","<div style='text-align: center;'>
                            <span style=""color: red; font-size: 40px""><b>错误！+0 pts</b></span></div>
                            ","","learn","0","0","0","learn","2","2","[0, 1, 2, 3, 4, 5, 6, 7, 8, 9]","51","17","setsize","3S10A","food","1","0","1","0",""
"null","null","fixation","html-keyboard-response","213","471750","0.0-1.0-7.0-3.0-0.52","19:06:47","2","","","","","","","fixation","","","","","","","","","","","","","","","","","","",""
"719","2","pic_response","html-keyboard-response","214","472470","0.0-1.0-7.0-3.0-1.52","19:06:47","2","","","","","","","<div>
            <img class='stim' src=""pictures/food/2.jpg""></div><div class=""button_prompt"">
                    <b>请用数字键0-9回答</b>
                    </div>","","","","","","","","","","","","","","","","","","",""
"719","null","sub_response","html-keyboard-response","215","473472","0.0-1.0-7.0-3.0-2.52","19:06:47","2","","","","","","","<div style='text-align: center;'>
                            <span style=""color: red; font-size: 40px""><b>错误！+0 pts</b></span></div>
                            ","","learn","2","2","2","learn","9","9","[0, 1, 2, 3, 4, 5, 6, 7, 8, 9]","52","17","setsize","3S10A","food","1","0","1","0",""
"null","null","fixation","html-keyboard-response","216","473975","0.0-1.0-7.0-3.0-0.53","19:06:47","2","","","","","","","fixation","","","","","","","","","","","","","","","","","","",""
"null","null","pic_response","html-keyboard-response","217","476977","0.0-1.0-7.0-3.0-1.53","19:06:47","2","","","","","","","<div>
            <img class='stim' src=""pictures/food/1.jpg""></div><div class=""button_prompt"">
                    <b>请用数字键0-9回答</b>
                    </div>","","","","","","","","","","","","","","","","","","",""
"null","null","sub_response","html-keyboard-response","218","477978","0.0-1.0-7.0-3.0-2.53","19:06:47","2","","","","","","","<div style='text-align: center;'>
                            <span style=""color: red; font-size: 40px""><b>错误！+0 pts</b></span></div>
                            ","","learn","1","1","1","learn","6","6","[0, 1, 2, 3, 4, 5, 6, 7, 8, 9]","53","17","setsize","3S10A","food","1","0","999","0",""
"null","null","fixation","html-keyboard-response","219","478481","0.0-1.0-7.0-3.0-0.54","19:06:47","2","","","","","","","fixation","","","","","","","","","","","","","","","","","","",""
"787","3","pic_response","html-keyboard-response","220","479269","0.0-1.0-7.0-3.0-1.54","19:06:47","2","","","","","","","<div>
            <img class='stim' src=""pictures/food/0.jpg""></div><div class=""button_prompt"">
                    <b>请用数字键0-9回答</b>
                    </div>","","","","","","","","","","","","","","","","","","",""
"787","null","sub_response","html-keyboard-response","221","480271","0.0-1.0-7.0-3.0-2.54","19:06:47","2","","","","","","","<div style='text-align: center;'>
                            <span style=""color: green; font-size: 40px""><b>正确！+1 pts</b></span></div>
                            ","","learn","0","0","0","learn","2","2","[0, 1, 2, 3, 4, 5, 6, 7, 8, 9]","54","18","setsize","3S10A","food","1","1","2","1",""
"null","null","fixation","html-keyboard-response","222","480773","0.0-1.0-7.0-3.0-0.55","19:06:47","2","","","","","","","fixation","","","","","","","","","","","","","","","","","","",""
"543","1","pic_response","html-keyboard-response","223","481317","0.0-1.0-7.0-3.0-1.55","19:06:47","2","","","","","","","<div>
            <img class='stim' src=""pictures/food/1.jpg""></div><div class=""button_prompt"">
                    <b>请用数字键0-9回答</b>
                    </div>","","","","","","","","","","","","","","","","","","",""
"543","null","sub_response","html-keyboard-response","224","482319","0.0-1.0-7.0-3.0-2.55","19:06:47","2","","","","","","","<div style='text-align: center;'>
                            <span style=""color: red; font-size: 40px""><b>错误！+0 pts</b></span></div>
                            ","","learn","1","1","1","learn","6","6","[0, 1, 2, 3, 4, 5, 6, 7, 8, 9]","55","18","setsize","3S10A","food","1","0","0","0",""
"null","null","fixation","html-keyboard-response","225","482822","0.0-1.0-7.0-3.0-0.56","19:06:47","2","","","","","","","fixation","","","","","","","","","","","","","","","","","","",""
"1505","0","pic_response","html-keyboard-response","226","484328","0.0-1.0-7.0-3.0-1.56","19:06:47","2","","","","","","","<div>
            <img class='stim' src=""pictures/food/2.jpg""></div><div class=""button_prompt"">
                    <b>请用数字键0-9回答</b>
                    </div>","","","","","","","","","","","","","","","","","","",""
"1505","null","sub_response","html-keyboard-response","227","485331","0.0-1.0-7.0-3.0-2.56","19:06:47","2","","","","","","","<div style='text-align: center;'>
                            <span style=""color: green; font-size: 40px""><b>正确！+1 pts</b></span></div>
                            ","","learn","2","2","2","learn","9","9","[0, 1, 2, 3, 4, 5, 6, 7, 8, 9]","56","18","setsize","3S10A","food","1","1","9","1",""
"null","null","fixation","html-keyboard-response","228","485832","0.0-1.0-7.0-3.0-0.57","19:06:47","2","","","","","","","fixation","","","","","","","","","","","","","","","","","","",""
"951","4","pic_response","html-keyboard-response","229","486783","0.0-1.0-7.0-3.0-1.57","19:06:47","2","","","","","","","<div>
            <img class='stim' src=""pictures/food/2.jpg""></div><div class=""button_prompt"">
                    <b>请用数字键0-9回答</b>
                    </div>","","","","","","","","","","","","","","","","","","",""
"951","null","sub_response","html-keyboard-response","230","487785","0.0-1.0-7.0-3.0-2.57","19:06:47","2","","","","","","","<div style='text-align: center;'>
                            <span style=""color: red; font-size: 40px""><b>错误！+0 pts</b></span></div>
                            ","","learn","2","2","2","learn","9","9","[0, 1, 2, 3, 4, 5, 6, 7, 8, 9]","57","19","setsize","3S10A","food","1","0","3","0",""
"null","null","fixation","html-keyboard-response","231","488287","0.0-1.0-7.0-3.0-0.58","19:06:47","2","","","","","","","fixation","","","","","","","","","","","","","","","","","","",""
"715","3","pic_response","html-keyboard-response","232","489003","0.0-1.0-7.0-3.0-1.58","19:06:47","2","","","","","","","<div>
            <img class='stim' src=""pictures/food/0.jpg""></div><div class=""button_prompt"">
                    <b>请用数字键0-9回答</b>
                    </div>","","","","","","","","","","","","","","","","","","",""
"715","null","sub_response","html-keyboard-response","233","490005","0.0-1.0-7.0-3.0-2.58","19:06:47","2","","","","","","","<div style='text-align: center;'>
                            <span style=""color: green; font-size: 40px""><b>正确！+1 pts</b></span></div>
                            ","","learn","0","0","0","learn","2","2","[0, 1, 2, 3, 4, 5, 6, 7, 8, 9]","58","19","setsize","3S10A","food","1","1","2","1",""
"null","null","fixation","html-keyboard-response","234","490508","0.0-1.0-7.0-3.0-0.59","19:06:47","2","","","","","","","fixation","","","","","","","","","","","","","","","","","","",""
"523","5","pic_response","html-keyboard-response","235","491032","0.0-1.0-7.0-3.0-1.59","19:06:47","2","","","","","","","<div>
            <img class='stim' src=""pictures/food/1.jpg""></div><div class=""button_prompt"">
                    <b>请用数字键0-9回答</b>
                    </div>","","","","","","","","","","","","","","","","","","",""
"523","null","sub_response","html-keyboard-response","236","492033","0.0-1.0-7.0-3.0-2.59","19:06:47","2","","","","","","","<div style='text-align: center;'>
                            <span style=""color: red; font-size: 40px""><b>错误！+0 pts</b></span></div>
                            ","","learn","1","1","1","learn","6","6","[0, 1, 2, 3, 4, 5, 6, 7, 8, 9]","59","19","setsize","3S10A","food","1","0","4","0",""
"null","null","fixation","html-keyboard-response","237","492534","0.0-1.0-7.0-3.0-0.60","19:06:47","2","","","","","","","fixation","","","","","","","","","","","","","","","","","","",""
"1362","0","pic_response","html-keyboard-response","238","493896","0.0-1.0-7.0-3.0-1.60","19:06:47","2","","","","","","","<div>
            <img class='stim' src=""pictures/food/2.jpg""></div><div class=""button_prompt"">
                    <b>请用数字键0-9回答</b>
                    </div>","","","","","","","","","","","","","","","","","","",""
"1362","null","sub_response","html-keyboard-response","239","494898","0.0-1.0-7.0-3.0-2.60","19:06:47","2","","","","","","","<div style='text-align: center;'>
                            <span style=""color: green; font-size: 40px""><b>正确！+1 pts</b></span></div>
                            ","","learn","2","2","2","learn","9","9","[0, 1, 2, 3, 4, 5, 6, 7, 8, 9]","60","20","setsize","3S10A","food","1","1","9","1",""
"null","null","fixation","html-keyboard-response","240","495400","0.0-1.0-7.0-3.0-0.61","19:06:47","2","","","","","","","fixation","","","","","","","","","","","","","","","","","","",""
"332","6","pic_response","html-keyboard-response","241","495733","0.0-1.0-7.0-3.0-1.61","19:06:47","2","","","","","","","<div>
            <img class='stim' src=""pictures/food/1.jpg""></div><div class=""button_prompt"">
                    <b>请用数字键0-9回答</b>
                    </div>","","","","","","","","","","","","","","","","","","",""
"332","null","sub_response","html-keyboard-response","242","496734","0.0-1.0-7.0-3.0-2.61","19:06:47","2","","","","","","","<div style='text-align: center;'>
                            <span style=""color: red; font-size: 40px""><b>错误！+0 pts</b></span></div>
                            ","","learn","1","1","1","learn","6","6","[0, 1, 2, 3, 4, 5, 6, 7, 8, 9]","61","20","setsize","3S10A","food","1","0","5","0",""
"null","null","fixation","html-keyboard-response","243","497235","0.0-1.0-7.0-3.0-0.62","19:06:47","2","","","","","","","fixation","","","","","","","","","","","","","","","","","","",""
"657","3","pic_response","html-keyboard-response","244","497894","0.0-1.0-7.0-3.0-1.62","19:06:47","2","","","","","","","<div>
            <img class='stim' src=""pictures/food/0.jpg""></div><div class=""button_prompt"">
                    <b>请用数字键0-9回答</b>
                    </div>","","","","","","","","","","","","","","","","","","",""
"657","null","sub_response","html-keyboard-response","245","498897","0.0-1.0-7.0-3.0-2.62","19:06:47","2","","","","","","","<div style='text-align: center;'>
                            <span style=""color: green; font-size: 40px""><b>正确！+1 pts</b></span></div>
                            ","","learn","0","0","0","learn","2","2","[0, 1, 2, 3, 4, 5, 6, 7, 8, 9]","62","20","setsize","3S10A","food","1","1","2","1",""
"null","null","fixation","html-keyboard-response","246","499399","0.0-1.0-7.0-3.0-0.63","19:06:47","2","","","","","","","fixation","","","","","","","","","","","","","","","","","","",""
"682","3","pic_response","html-keyboard-response","247","500082","0.0-1.0-7.0-3.0-1.63","19:06:47","2","","","","","","","<div>
            <img class='stim' src=""pictures/food/0.jpg""></div><div class=""button_prompt"">
                    <b>请用数字键0-9回答</b>
                    </div>","","","","","","","","","","","","","","","","","","",""
"682","null","sub_response","html-keyboard-response","248","501085","0.0-1.0-7.0-3.0-2.63","19:06:47","2","","","","","","","<div style='text-align: center;'>
                            <span style=""color: green; font-size: 40px""><b>正确！+1 pts</b></span></div>
                            ","","learn","0","0","0","learn","2","2","[0, 1, 2, 3, 4, 5, 6, 7, 8, 9]","63","21","setsize","3S10A","food","1","2","2","1",""
"null","null","fixation","html-keyboard-response","249","501586","0.0-1.0-7.0-3.0-0.64","19:06:47","2","","","","","","","fixation","","","","","","","","","","","","","","","","","","",""
"990","0","pic_response","html-keyboard-response","250","502577","0.0-1.0-7.0-3.0-1.64","19:06:47","2","","","","","","","<div>
            <img class='stim' src=""pictures/food/2.jpg""></div><div class=""button_prompt"">
                    <b>请用数字键0-9回答</b>
                    </div>","","","","","","","","","","","","","","","","","","",""
"990","null","sub_response","html-keyboard-response","251","503582","0.0-1.0-7.0-3.0-2.64","19:06:47","2","","","","","","","<div style='text-align: center;'>
                            <span style=""color: green; font-size: 40px""><b>正确！+1 pts</b></span></div>
                            ","","learn","2","2","2","learn","9","9","[0, 1, 2, 3, 4, 5, 6, 7, 8, 9]","64","21","setsize","3S10A","food","1","3","9","1",""
"null","null","fixation","html-keyboard-response","252","504083","0.0-1.0-7.0-3.0-0.65","19:06:47","2","","","","","","","fixation","","","","","","","","","","","","","","","","","","",""
"455","7","pic_response","html-keyboard-response","253","504539","0.0-1.0-7.0-3.0-1.65","19:06:47","2","","","","","","","<div>
            <img class='stim' src=""pictures/food/1.jpg""></div><div class=""button_prompt"">
                    <b>请用数字键0-9回答</b>
                    </div>","","","","","","","","","","","","","","","","","","",""
"455","null","sub_response","html-keyboard-response","254","505541","0.0-1.0-7.0-3.0-2.65","19:06:47","2","","","","","","","<div style='text-align: center;'>
                            <span style=""color: green; font-size: 40px""><b>正确！+1 pts</b></span></div>
                            ","","learn","1","1","1","learn","6","6","[0, 1, 2, 3, 4, 5, 6, 7, 8, 9]","65","21","setsize","3S10A","food","1","4","6","1",""
"null","null","fixation","html-keyboard-response","255","506043","0.0-1.0-7.0-3.0-0.66","19:06:47","2","","","","","","","fixation","","","","","","","","","","","","","","","","","","",""
"550","3","pic_response","html-keyboard-response","256","506594","0.0-1.0-7.0-3.0-1.66","19:06:47","2","","","","","","","<div>
            <img class='stim' src=""pictures/food/0.jpg""></div><div class=""button_prompt"">
                    <b>请用数字键0-9回答</b>
                    </div>","","","","","","","","","","","","","","","","","","",""
"550","null","sub_response","html-keyboard-response","257","507596","0.0-1.0-7.0-3.0-2.66","19:06:47","2","","","","","","","<div style='text-align: center;'>
                            <span style=""color: green; font-size: 40px""><b>正确！+1 pts</b></span></div>
                            ","","learn","0","0","0","learn","2","2","[0, 1, 2, 3, 4, 5, 6, 7, 8, 9]","66","22","setsize","3S10A","food","1","5","2","1",""
"null","null","fixation","html-keyboard-response","258","508099","0.0-1.0-7.0-3.0-0.67","19:06:47","2","","","","","","","fixation","","","","","","","","","","","","","","","","","","",""
"464","7","pic_response","html-keyboard-response","259","508565","0.0-1.0-7.0-3.0-1.67","19:06:47","2","","","","","","","<div>
            <img class='stim' src=""pictures/food/2.jpg""></div><div class=""button_prompt"">
                    <b>请用数字键0-9回答</b>
                    </div>","","","","","","","","","","","","","","","","","","",""
"464","null","sub_response","html-keyboard-response","260","509566","0.0-1.0-7.0-3.0-2.67","19:06:47","2","","","","","","","<div style='text-align: center;'>
                            <span style=""color: red; font-size: 40px""><b>错误！+0 pts</b></span></div>
                            ","","learn","2","2","2","learn","9","9","[0, 1, 2, 3, 4, 5, 6, 7, 8, 9]","67","22","setsize","3S10A","food","1","0","6","0",""
"null","null","fixation","html-keyboard-response","261","510068","0.0-1.0-7.0-3.0-0.68","19:06:47","2","","","","","","","fixation","","","","","","","","","","","","","","","","","","",""
"1485","7","pic_response","html-keyboard-response","262","511554","0.0-1.0-7.0-3.0-1.68","19:06:47","2","","","","","","","<div>
            <img class='stim' src=""pictures/food/1.jpg""></div><div class=""button_prompt"">
                    <b>请用数字键0-9回答</b>
                    </div>","","","","","","","","","","","","","","","","","","",""
"1485","null","sub_response","html-keyboard-response","263","512555","0.0-1.0-7.0-3.0-2.68","19:06:47","2","","","","","","","<div style='text-align: center;'>
                            <span style=""color: green; font-size: 40px""><b>正确！+1 pts</b></span></div>
                            ","","learn","1","1","1","learn","6","6","[0, 1, 2, 3, 4, 5, 6, 7, 8, 9]","68","22","setsize","3S10A","food","1","1","6","1",""
"null","null","fixation","html-keyboard-response","264","513056","0.0-1.0-7.0-3.0-0.69","19:06:47","2","","","","","","","fixation","","","","","","","","","","","","","","","","","","",""
"341","0","pic_response","html-keyboard-response","265","513399","0.0-1.0-7.0-3.0-1.69","19:06:47","2","","","","","","","<div>
            <img class='stim' src=""pictures/food/2.jpg""></div><div class=""button_prompt"">
                    <b>请用数字键0-9回答</b>
                    </div>","","","","","","","","","","","","","","","","","","",""
"341","null","sub_response","html-keyboard-response","266","514402","0.0-1.0-7.0-3.0-2.69","19:06:47","2","","","","","","","<div style='text-align: center;'>
                            <span style=""color: green; font-size: 40px""><b>正确！+1 pts</b></span></div>
                            ","","learn","2","2","2","learn","9","9","[0, 1, 2, 3, 4, 5, 6, 7, 8, 9]","69","23","setsize","3S10A","food","1","2","9","1",""
"null","null","fixation","html-keyboard-response","267","514913","0.0-1.0-7.0-3.0-0.70","19:06:47","2","","","","","","","fixation","","","","","","","","","","","","","","","","","","",""
"371","3","pic_response","html-keyboard-response","268","515286","0.0-1.0-7.0-3.0-1.70","19:06:47","2","","","","","","","<div>
            <img class='stim' src=""pictures/food/0.jpg""></div><div class=""button_prompt"">
                    <b>请用数字键0-9回答</b>
                    </div>","","","","","","","","","","","","","","","","","","",""
"371","null","sub_response","html-keyboard-response","269","516288","0.0-1.0-7.0-3.0-2.70","19:06:47","2","","","","","","","<div style='text-align: center;'>
                            <span style=""color: green; font-size: 40px""><b>正确！+1 pts</b></span></div>
                            ","","learn","0","0","0","learn","2","2","[0, 1, 2, 3, 4, 5, 6, 7, 8, 9]","70","23","setsize","3S10A","food","1","3","2","1",""
"null","null","fixation","html-keyboard-response","270","516791","0.0-1.0-7.0-3.0-0.71","19:06:47","2","","","","","","","fixation","","","","","","","","","","","","","","","","","","",""
"1381","7","pic_response","html-keyboard-response","271","518174","0.0-1.0-7.0-3.0-1.71","19:06:47","2","","","","","","","<div>
            <img class='stim' src=""pictures/food/1.jpg""></div><div class=""button_prompt"">
                    <b>请用数字键0-9回答</b>
                    </div>","","","","","","","","","","","","","","","","","","",""
"1381","null","sub_response","html-keyboard-response","272","519175","0.0-1.0-7.0-3.0-2.71","19:06:47","2","","","","","","","<div style='text-align: center;'>
                            <span style=""color: green; font-size: 40px""><b>正确！+1 pts</b></span></div>
                            ","","learn","1","1","1","learn","6","6","[0, 1, 2, 3, 4, 5, 6, 7, 8, 9]","71","23","setsize","3S10A","food","1","4","6","1",""
"null","null","fixation","html-keyboard-response","273","519678","0.0-1.0-7.0-3.0-0.72","19:06:47","2","","","","","","","fixation","","","","","","","","","","","","","","","","","","",""
"524","7","pic_response","html-keyboard-response","274","520202","0.0-1.0-7.0-3.0-1.72","19:06:47","2","","","","","","","<div>
            <img class='stim' src=""pictures/food/1.jpg""></div><div class=""button_prompt"">
                    <b>请用数字键0-9回答</b>
                    </div>","","","","","","","","","","","","","","","","","","",""
"524","null","sub_response","html-keyboard-response","275","521204","0.0-1.0-7.0-3.0-2.72","19:06:47","2","","","","","","","<div style='text-align: center;'>
                            <span style=""color: green; font-size: 40px""><b>正确！+1 pts</b></span></div>
                            ","","learn","1","1","1","learn","6","6","[0, 1, 2, 3, 4, 5, 6, 7, 8, 9]","72","24","setsize","3S10A","food","1","5","6","1",""
"null","null","fixation","html-keyboard-response","276","521705","0.0-1.0-7.0-3.0-0.73","19:06:47","2","","","","","","","fixation","","","","","","","","","","","","","","","","","","",""
"550","0","pic_response","html-keyboard-response","277","522256","0.0-1.0-7.0-3.0-1.73","19:06:47","2","","","","","","","<div>
            <img class='stim' src=""pictures/food/2.jpg""></div><div class=""button_prompt"">
                    <b>请用数字键0-9回答</b>
                    </div>","","","","","","","","","","","","","","","","","","",""
"550","null","sub_response","html-keyboard-response","278","523258","0.0-1.0-7.0-3.0-2.73","19:06:47","2","","","","","","","<div style='text-align: center;'>
                            <span style=""color: green; font-size: 40px""><b>正确！+1 pts</b></span></div>
                            ","","learn","2","2","2","learn","9","9","[0, 1, 2, 3, 4, 5, 6, 7, 8, 9]","73","24","setsize","3S10A","food","1","6","9","1",""
"null","null","fixation","html-keyboard-response","279","523760","0.0-1.0-7.0-3.0-0.74","19:06:47","2","","","","","","","fixation","","","","","","","","","","","","","","","","","","",""
"558","3","pic_response","html-keyboard-response","280","524318","0.0-1.0-7.0-3.0-1.74","19:06:47","2","","","","","","","<div>
            <img class='stim' src=""pictures/food/0.jpg""></div><div class=""button_prompt"">
                    <b>请用数字键0-9回答</b>
                    </div>","","","","","","","","","","","","","","","","","","",""
"558","null","sub_response","html-keyboard-response","281","525320","0.0-1.0-7.0-3.0-2.74","19:06:47","2","","","","","","","<div style='text-align: center;'>
                            <span style=""color: green; font-size: 40px""><b>正确！+1 pts</b></span></div>
                            ","","learn","0","0","0","learn","2","2","[0, 1, 2, 3, 4, 5, 6, 7, 8, 9]","74","24","setsize","3S10A","food","1","7","2","1",""
"null","null","fixation","html-keyboard-response","282","525822","0.0-1.0-7.0-3.0-0.75","19:06:47","2","","","","","","","fixation","","","","","","","","","","","","","","","","","","",""
"1106","0","pic_response","html-keyboard-response","283","526929","0.0-1.0-7.0-3.0-1.75","19:06:47","2","","","","","","","<div>
            <img class='stim' src=""pictures/food/2.jpg""></div><div class=""button_prompt"">
                    <b>请用数字键0-9回答</b>
                    </div>","","","","","","","","","","","","","","","","","","",""
"1106","null","sub_response","html-keyboard-response","284","527931","0.0-1.0-7.0-3.0-2.75","19:06:47","2","","","","","","","<div style='text-align: center;'>
                            <span style=""color: green; font-size: 40px""><b>正确！+1 pts</b></span></div>
                            ","","learn","2","2","2","learn","9","9","[0, 1, 2, 3, 4, 5, 6, 7, 8, 9]","75","25","setsize","3S10A","food","1","8","9","1",""
"null","null","fixation","html-keyboard-response","285","528434","0.0-1.0-7.0-3.0-0.76","19:06:47","2","","","","","","","fixation","","","","","","","","","","","","","","","","","","",""
"466","3","pic_response","html-keyboard-response","286","528901","0.0-1.0-7.0-3.0-1.76","19:06:47","2","","","","","","","<div>
            <img class='stim' src=""pictures/food/0.jpg""></div><div class=""button_prompt"">
                    <b>请用数字键0-9回答</b>
                    </div>","","","","","","","","","","","","","","","","","","",""
"466","null","sub_response","html-keyboard-response","287","529902","0.0-1.0-7.0-3.0-2.76","19:06:47","2","","","","","","","<div style='text-align: center;'>
                            <span style=""color: green; font-size: 40px""><b>正确！+1 pts</b></span></div>
                            ","","learn","0","0","0","learn","2","2","[0, 1, 2, 3, 4, 5, 6, 7, 8, 9]","76","25","setsize","3S10A","food","1","9","2","1",""
"1070"," ","","html-keyboard-response","288","530973","0.0-1.0-8.0","19:06:47","2","","","","","","","<div style=""font-size: 25px""><p>距下一个实验开始还有</p><div style=""font-size: 50px; color: blue""><p><span id=""clock"">1:00</span></div></p><p>按""空格""跳过休息</p></div>","","","","","","","","","","","","","","","","","","",""
"","","","preload","289","531037","0.0-1.0-9.0-0.0","19:06:47","2","true","false","[]","[]","[]","","","","","","","","","","","","","","","","","","","","",""
"512"," ","","html-keyboard-response","290","531550","0.0-1.0-9.0-1.0","19:06:47","2","","","","","","","<div style='font-size: 32px; text-align: center;'
                    <p>请学习图片和数字之间的对应关系</p>
                    <p>我们将<span style='color: blue'><b> 告诉 </b></span>您选择的对错。请根据反馈学习。</p>
                    <p>请按""空格""继续实验。</p></div>","","","","","","","","","","","","","","","","","","",""
"29834"," ","inst","html-keyboard-response","291","561384","0.0-1.0-9.0-2.0","19:06:47","2","","","","","","","<img class='instruct_stim' src=""instruction/sports10.PNG""></div>","","","","","","","","","","","","","","","","","","",""
"null","null","fixation","html-keyboard-response","292","561886","0.0-1.0-9.0-3.0-0.0","19:06:47","2","","","","","","","fixation","","","","","","","","","","","","","","","","","","",""
"1434","1","pic_response","html-keyboard-response","293","563320","0.0-1.0-9.0-3.0-1.0","19:06:47","2","","","","","","","<div>
            <img class='stim' src=""pictures/sports/4.jpg""></div><div class=""button_prompt"">
                    <b>请用数字键0-9回答</b>
                    </div>","","","","","","","","","","","","","","","","","","",""
"1434","null","sub_response","html-keyboard-response","294","564323","0.0-1.0-9.0-3.0-2.0","19:06:47","2","","","","","","","<div style='text-align: center;'>
                            <span style=""color: red; font-size: 40px""><b>错误！+0 pts</b></span></div>
                            ","","learn","4","4","4","learn","4","4","[0, 1, 2, 3, 4, 5, 6, 7, 8, 9]","0","0","setsize","10S10A","sports","2","0","0","0",""
"null","null","fixation","html-keyboard-response","295","564827","0.0-1.0-9.0-3.0-0.1","19:06:47","2","","","","","","","fixation","","","","","","","","","","","","","","","","","","",""
"856","1","pic_response","html-keyboard-response","296","565684","0.0-1.0-9.0-3.0-1.1","19:06:47","2","","","","","","","<div>
            <img class='stim' src=""pictures/sports/7.jpg""></div><div class=""button_prompt"">
                    <b>请用数字键0-9回答</b>
                    </div>","","","","","","","","","","","","","","","","","","",""
"856","null","sub_response","html-keyboard-response","297","566686","0.0-1.0-9.0-3.0-2.1","19:06:47","2","","","","","","","<div style='text-align: center;'>
                            <span style=""color: red; font-size: 40px""><b>错误！+0 pts</b></span></div>
                            ","","learn","7","7","7","learn","7","7","[0, 1, 2, 3, 4, 5, 6, 7, 8, 9]","1","0","setsize","10S10A","sports","2","0","0","0",""
"null","null","fixation","html-keyboard-response","298","567188","0.0-1.0-9.0-3.0-0.2","19:06:47","2","","","","","","","fixation","","","","","","","","","","","","","","","","","","",""
"464","1","pic_response","html-keyboard-response","299","567654","0.0-1.0-9.0-3.0-1.2","19:06:47","2","","","","","","","<div>
            <img class='stim' src=""pictures/sports/3.jpg""></div><div class=""button_prompt"">
                    <b>请用数字键0-9回答</b>
                    </div>","","","","","","","","","","","","","","","","","","",""
"464","null","sub_response","html-keyboard-response","300","568656","0.0-1.0-9.0-3.0-2.2","19:06:47","2","","","","","","","<div style='text-align: center;'>
                            <span style=""color: red; font-size: 40px""><b>错误！+0 pts</b></span></div>
                            ","","learn","3","3","3","learn","3","3","[0, 1, 2, 3, 4, 5, 6, 7, 8, 9]","2","0","setsize","10S10A","sports","2","0","0","0",""
"null","null","fixation","html-keyboard-response","301","569158","0.0-1.0-9.0-3.0-0.3","19:06:47","2","","","","","","","fixation","","","","","","","","","","","","","","","","","","",""
"1413","6","pic_response","html-keyboard-response","302","570573","0.0-1.0-9.0-3.0-1.3","19:06:47","2","","","","","","","<div>
            <img class='stim' src=""pictures/sports/9.jpg""></div><div class=""button_prompt"">
                    <b>请用数字键0-9回答</b>
                    </div>","","","","","","","","","","","","","","","","","","",""
"1413","null","sub_response","html-keyboard-response","303","571575","0.0-1.0-9.0-3.0-2.3","19:06:47","2","","","","","","","<div style='text-align: center;'>
                            <span style=""color: red; font-size: 40px""><b>错误！+0 pts</b></span></div>
                            ","","learn","9","9","9","learn","9","9","[0, 1, 2, 3, 4, 5, 6, 7, 8, 9]","3","0","setsize","10S10A","sports","2","0","5","0",""
"null","null","fixation","html-keyboard-response","304","572076","0.0-1.0-9.0-3.0-0.4","19:06:47","2","","","","","","","fixation","","","","","","","","","","","","","","","","","","",""
"488","6","pic_response","html-keyboard-response","305","572565","0.0-1.0-9.0-3.0-1.4","19:06:47","2","","","","","","","<div>
            <img class='stim' src=""pictures/sports/2.jpg""></div><div class=""button_prompt"">
                    <b>请用数字键0-9回答</b>
                    </div>","","","","","","","","","","","","","","","","","","",""
"488","null","sub_response","html-keyboard-response","306","573566","0.0-1.0-9.0-3.0-2.4","19:06:47","2","","","","","","","<div style='text-align: center;'>
                            <span style=""color: red; font-size: 40px""><b>错误！+0 pts</b></span></div>
                            ","","learn","2","2","2","learn","2","2","[0, 1, 2, 3, 4, 5, 6, 7, 8, 9]","4","0","setsize","10S10A","sports","2","0","5","0",""
"null","null","fixation","html-keyboard-response","307","574068","0.0-1.0-9.0-3.0-0.5","19:06:47","2","","","","","","","fixation","","","","","","","","","","","","","","","","","","",""
"643","6","pic_response","html-keyboard-response","308","574713","0.0-1.0-9.0-3.0-1.5","19:06:47","2","","","","","","","<div>
            <img class='stim' src=""pictures/sports/5.jpg""></div><div class=""button_prompt"">
                    <b>请用数字键0-9回答</b>
                    </div>","","","","","","","","","","","","","","","","","","",""
"643","null","sub_response","html-keyboard-response","309","575715","0.0-1.0-9.0-3.0-2.5","19:06:47","2","","","","","","","<div style='text-align: center;'>
                            <span style=""color: green; font-size: 40px""><b>正确！+1 pts</b></span></div>
                            ","","learn","5","5","5","learn","5","5","[0, 1, 2, 3, 4, 5, 6, 7, 8, 9]","5","0","setsize","10S10A","sports","2","1","5","1",""
"null","null","fixation","html-keyboard-response","310","576217","0.0-1.0-9.0-3.0-0.6","19:06:47","2","","","","","","","fixation","","","","","","","","","","","","","","","","","","",""
"1296","7","pic_response","html-keyboard-response","311","577515","0.0-1.0-9.0-3.0-1.6","19:06:47","2","","","","","","","<div>
            <img class='stim' src=""pictures/sports/6.jpg""></div><div class=""button_prompt"">
                    <b>请用数字键0-9回答</b>
                    </div>","","","","","","","","","","","","","","","","","","",""
"1296","null","sub_response","html-keyboard-response","312","578517","0.0-1.0-9.0-3.0-2.6","19:06:47","2","","","","","","","<div style='text-align: center;'>
                            <span style=""color: green; font-size: 40px""><b>正确！+1 pts</b></span></div>
                            ","","learn","6","6","6","learn","6","6","[0, 1, 2, 3, 4, 5, 6, 7, 8, 9]","6","0","setsize","10S10A","sports","2","2","6","1",""
"null","null","fixation","html-keyboard-response","313","579020","0.0-1.0-9.0-3.0-0.7","19:06:47","2","","","","","","","fixation","","","","","","","","","","","","","","","","","","",""
"1052","8","pic_response","html-keyboard-response","314","580073","0.0-1.0-9.0-3.0-1.7","19:06:47","2","","","","","","","<div>
            <img class='stim' src=""pictures/sports/0.jpg""></div><div class=""button_prompt"">
                    <b>请用数字键0-9回答</b>
                    </div>","","","","","","","","","","","","","","","","","","",""
"1052","null","sub_response","html-keyboard-response","315","581074","0.0-1.0-9.0-3.0-2.7","19:06:47","2","","","","","","","<div style='text-align: center;'>
                            <span style=""color: red; font-size: 40px""><b>错误！+0 pts</b></span></div>
                            ","","learn","0","0","0","learn","0","0","[0, 1, 2, 3, 4, 5, 6, 7, 8, 9]","7","0","setsize","10S10A","sports","2","0","7","0",""
"null","null","fixation","html-keyboard-response","316","581575","0.0-1.0-9.0-3.0-0.8","19:06:47","2","","","","","","","fixation","","","","","","","","","","","","","","","","","","",""
"880","1","pic_response","html-keyboard-response","317","582456","0.0-1.0-9.0-3.0-1.8","19:06:47","2","","","","","","","<div>
            <img class='stim' src=""pictures/sports/1.jpg""></div><div class=""button_prompt"">
                    <b>请用数字键0-9回答</b>
                    </div>","","","","","","","","","","","","","","","","","","",""
"880","null","sub_response","html-keyboard-response","318","583458","0.0-1.0-9.0-3.0-2.8","19:06:47","2","","","","","","","<div style='text-align: center;'>
                            <span style=""color: red; font-size: 40px""><b>错误！+0 pts</b></span></div>
