"rt","response","screen_id","trial_type","trial_index","time_elapsed","internal_node_id","start_time","n_Prac","success","timeout","failed_images","failed_audio","failed_video","view_history","stimulus","question_order","stage","s","word","word_id","phase","a_cor","a_real","a_ava","trial","tps","task_type","block_typ","pic_typ","block_id","cum_r","a","r","plugin_name"
"37733","{""sub_id"":""1"",""task_type"":""task1"",""name"":""谢馨平"",""gender"":""M""}","basic_info","survey-html-form","0","37736","0.0-0.0","19:43:25","4","","","","","","","","","","","","","","","","","","","","","","","","","",""
"","","","preload","1","39946","0.0-1.0-0.0","19:43:25","4","true","false","[]","[]","[]","","","","","","","","","","","","","","","","","","","","",""
"","","","preload","2","40278","0.0-1.0-1.0","19:43:25","4","true","false","[]","[]","[]","","","","","","","","","","","","","","","","","","","","",""
"","","","fullscreen","3","43617","0.0-1.0-2.0","19:43:25","4","true","","","","","","","","","","","","","","","","","","","","","","","","",""
"27172","","instruct","instructions","4","70789","0.0-1.0-3.0-0.0","19:43:25","4","","","","","","[{""page_index"":0,""viewing_time"":5048},{""page_index"":1,""viewing_time"":8654},{""page_index"":2,""viewing_time"":4800},{""page_index"":1,""viewing_time"":448},{""page_index"":0,""viewing_time"":2622},{""page_index"":1,""viewing_time"":1578},{""page_index"":2,""viewing_time"":4022}]","","","","","","","","","","","","","","","","","","","",""
"23704","{""Q0"":"""",""task1"":""<span style='font-size: 24px'>学习图片和数字的对应关系</span>"",""task2"":""<span style='font-size: 24px'> 数字键1-3 </span>"",""task3"":""<span style='font-size: 24px'> 看到图片选出正确对应的数字 </span>""}","question","survey-multi-choice","5","94494","0.0-1.0-3.0-1.0","19:43:25","4","","","","","","","","[0,1,2,3]","","","","","","","","","","","","","","","","","",""
"3386"," ","inst_q","html-keyboard-response","6","97882","0.0-1.0-3.0-2.0","19:43:25","4","","","","","","","inst","","1","","","","","","","","","","","","","","","","",""
"9737","","instruct","instructions","7","107619","0.0-1.0-3.1-0.1","19:43:25","4","","","","","","[{""page_index"":0,""viewing_time"":2979},{""page_index"":1,""viewing_time"":1904},{""page_index"":2,""viewing_time"":4854}]","","","","","","","","","","","","","","","","","","","",""
"19680","{""Q0"":"""",""task1"":""<span style='font-size: 24px'>学习图片和数字的对应关系</span>"",""task2"":""<span style='font-size: 24px'> 数字键1-3 </span>"",""task3"":""<span style='font-size: 24px'> 看到图片选出正确对应的数字 </span>""}","question","survey-multi-choice","8","127301","0.0-1.0-3.1-1.1","19:43:25","4","","","","","","","","[0,1,2,3]","","","","","","","","","","","","","","","","","",""
"2165"," ","inst_q","html-keyboard-response","9","129467","0.0-1.0-3.1-2.1","19:43:25","4","","","","","","","inst","","1","","","","","","","","","","","","","","","","",""
"16312","","instruct","instructions","10","145779","0.0-1.0-3.2-0.2","19:43:25","4","","","","","","[{""page_index"":0,""viewing_time"":7504},{""page_index"":1,""viewing_time"":4704},{""page_index"":2,""viewing_time"":4104}]","","","","","","","","","","","","","","","","","","","",""
"17814","{""Q0"":"""",""task1"":""<span style='font-size: 24px'>学习图片和数字的对应关系</span>"",""task2"":""<span style='font-size: 24px'> 图片下方标注为可用的数字键（数字键1-3或0-9） </span>"",""task3"":""<span style='font-size: 24px'> 看到图片选出正确对应的数字 </span>""}","question","survey-multi-choice","11","163594","0.0-1.0-3.2-1.2","19:43:25","4","","","","","","","","[0,1,2,3]","","","","","","","","","","","","","","","","","",""
"2352"," ","inst_q","html-keyboard-response","12","165948","0.0-1.0-3.2-2.2","19:43:25","4","","","","","","","inst","","1","","","","","","","","","","","","","","","","",""
"","","","preload","13","166368","0.0-1.0-4.0-0.0","19:43:25","4","true","false","[]","[]","[]","","","","","","","","","","","","","","","","","","","","",""
"1990"," ","","html-keyboard-response","14","168358","0.0-1.0-4.0-1.0","19:43:25","4","","","","","","","<div style='font-size: 32px; text-align: center;'
                    <p>请学习图片和数字之间的对应关系</p>
                    <p>我们将<span style='color: blue'><b> 告诉 </b></span>您选择的对错。请根据反馈学习。</p>
                    <p>请按""空格""继续实验。</p></div>","","","","","","","","","","","","","","","","","","",""
"4970"," ","inst","html-keyboard-response","15","173329","0.0-1.0-4.0-2.0","19:43:25","4","","","","","","","<img class='instruct_stim' src=""instruction/prac3.PNG""></div>","","","","","","","","","","","","","","","","","","",""
"null","null","fixation","html-keyboard-response","16","173830","0.0-1.0-4.0-3.0-0.0","19:43:25","4","","","","","","","fixation","","","","","","","","","","","","","","","","","","",""
"1320","1","pic_response","html-keyboard-response","17","175151","0.0-1.0-4.0-3.0-1.0","19:43:25","4","","","","","","","<div>
            <img class='stim' src=""pictures/prac/2.jpg""></div><div class=""button_prompt"">
                        <b>请用数字键1-3回答</b>
                        </div>","","","","","","","","","","","","","","","","","","",""
"1320","null","sub_response","html-keyboard-response","18","176152","0.0-1.0-4.0-3.0-2.0","19:43:25","4","","","","","","","<div style='text-align: center;'>
                            <span style=""color: red; font-size: 40px""><b>错误！+0 pts</b></span></div>
                            ","","learn","2","2","2","learn","2","2","[0, 1, 2]","0","0","setsize","99","prac","0","0","0","0",""
"null","null","fixation","html-keyboard-response","19","176655","0.0-1.0-4.0-3.0-0.1","19:43:25","4","","","","","","","fixation","","","","","","","","","","","","","","","","","","",""
"1727","1","pic_response","html-keyboard-response","20","178382","0.0-1.0-4.0-3.0-1.1","19:43:25","4","","","","","","","<div>
            <img class='stim' src=""pictures/prac/1.jpg""></div><div class=""button_prompt"">
                        <b>请用数字键1-3回答</b>
                        </div>","","","","","","","","","","","","","","","","","","",""
"1727","null","sub_response","html-keyboard-response","21","179384","0.0-1.0-4.0-3.0-2.1","19:43:25","4","","","","","","","<div style='text-align: center;'>
                            <span style=""color: green; font-size: 40px""><b>正确！+1 pts</b></span></div>
                            ","","learn","1","1","1","learn","0","0","[0, 1, 2]","1","0","setsize","99","prac","0","1","0","1",""
"null","null","fixation","html-keyboard-response","22","179885","0.0-1.0-4.0-3.0-0.2","19:43:25","4","","","","","","","fixation","","","","","","","","","","","","","","","","","","",""
"1880","2","pic_response","html-keyboard-response","23","181766","0.0-1.0-4.0-3.0-1.2","19:43:25","4","","","","","","","<div>
            <img class='stim' src=""pictures/prac/0.jpg""></div><div class=""button_prompt"">
                        <b>请用数字键1-3回答</b>
                        </div>","","","","","","","","","","","","","","","","","","",""
"1880","null","sub_response","html-keyboard-response","24","182768","0.0-1.0-4.0-3.0-2.2","19:43:25","4","","","","","","","<div style='text-align: center;'>
                            <span style=""color: red; font-size: 40px""><b>错误！+0 pts</b></span></div>
                            ","","learn","0","0","0","learn","0","0","[0, 1, 2]","2","0","setsize","99","prac","0","0","1","0",""
"null","null","fixation","html-keyboard-response","25","183269","0.0-1.0-4.0-3.0-0.3","19:43:25","4","","","","","","","fixation","","","","","","","","","","","","","","","","","","",""
"1302","1","pic_response","html-keyboard-response","26","184572","0.0-1.0-4.0-3.0-1.3","19:43:25","4","","","","","","","<div>
            <img class='stim' src=""pictures/prac/2.jpg""></div><div class=""button_prompt"">
                        <b>请用数字键1-3回答</b>
                        </div>","","","","","","","","","","","","","","","","","","",""
"1302","null","sub_response","html-keyboard-response","27","185573","0.0-1.0-4.0-3.0-2.3","19:43:25","4","","","","","","","<div style='text-align: center;'>
                            <span style=""color: red; font-size: 40px""><b>错误！+0 pts</b></span></div>
                            ","","learn","2","2","2","learn","2","2","[0, 1, 2]","3","1","setsize","99","prac","0","0","0","0",""
"null","null","fixation","html-keyboard-response","28","186074","0.0-1.0-4.0-3.0-0.4","19:43:25","4","","","","","","","fixation","","","","","","","","","","","","","","","","","","",""
"2560","1","pic_response","html-keyboard-response","29","188634","0.0-1.0-4.0-3.0-1.4","19:43:25","4","","","","","","","<div>
            <img class='stim' src=""pictures/prac/0.jpg""></div><div class=""button_prompt"">
                        <b>请用数字键1-3回答</b>
                        </div>","","","","","","","","","","","","","","","","","","",""
"2560","null","sub_response","html-keyboard-response","30","189636","0.0-1.0-4.0-3.0-2.4","19:43:25","4","","","","","","","<div style='text-align: center;'>
                            <span style=""color: green; font-size: 40px""><b>正确！+1 pts</b></span></div>
                            ","","learn","0","0","0","learn","0","0","[0, 1, 2]","4","1","setsize","99","prac","0","1","0","1",""
"null","null","fixation","html-keyboard-response","31","190138","0.0-1.0-4.0-3.0-0.5","19:43:25","4","","","","","","","fixation","","","","","","","","","","","","","","","","","","",""
"1904","3","pic_response","html-keyboard-response","32","192042","0.0-1.0-4.0-3.0-1.5","19:43:25","4","","","","","","","<div>
            <img class='stim' src=""pictures/prac/1.jpg""></div><div class=""button_prompt"">
                        <b>请用数字键1-3回答</b>
                        </div>","","","","","","","","","","","","","","","","","","",""
"1904","null","sub_response","html-keyboard-response","33","193044","0.0-1.0-4.0-3.0-2.5","19:43:25","4","","","","","","","<div style='text-align: center;'>
                            <span style=""color: red; font-size: 40px""><b>错误！+0 pts</b></span></div>
                            ","","learn","1","1","1","learn","0","0","[0, 1, 2]","5","1","setsize","99","prac","0","0","2","0",""
"","","","preload","34","193050","0.0-1.0-4.1-0.1","19:43:25","4","true","false","[]","[]","[]","","","","","","","","","","","","","","","","","","","","",""
"2279"," ","","html-keyboard-response","35","195329","0.0-1.0-4.1-1.1","19:43:25","4","","","","","","","<div style='font-size: 32px; text-align: center;'
                    <p>请学习图片和数字之间的对应关系</p>
                    <p>我们将<span style='color: blue'><b> 告诉 </b></span>您选择的对错。请根据反馈学习。</p>
                    <p>请按""空格""继续实验。</p></div>","","","","","","","","","","","","","","","","","","",""
"1938"," ","inst","html-keyboard-response","36","197267","0.0-1.0-4.1-2.1","19:43:25","4","","","","","","","<img class='instruct_stim' src=""instruction/prac3.PNG""></div>","","","","","","","","","","","","","","","","","","",""
"null","null","fixation","html-keyboard-response","37","197769","0.0-1.0-4.1-3.1-0.6","19:43:25","4","","","","","","","fixation","","","","","","","","","","","","","","","","","","",""
"1002","1","pic_response","html-keyboard-response","38","198772","0.0-1.0-4.1-3.1-1.6","19:43:25","4","","","","","","","<div>
            <img class='stim' src=""pictures/prac/2.jpg""></div><div class=""button_prompt"">
                        <b>请用数字键1-3回答</b>
                        </div>","","","","","","","","","","","","","","","","","","",""
"1002","null","sub_response","html-keyboard-response","39","199773","0.0-1.0-4.1-3.1-2.6","19:43:25","4","","","","","","","<div style='text-align: center;'>
                            <span style=""color: red; font-size: 40px""><b>错误！+0 pts</b></span></div>
                            ","","learn","2","2","2","learn","2","2","[0, 1, 2]","0","0","setsize","99","prac","0","0","0","0",""
"null","null","fixation","html-keyboard-response","40","200275","0.0-1.0-4.1-3.1-0.7","19:43:25","4","","","","","","","fixation","","","","","","","","","","","","","","","","","","",""
"1018","1","pic_response","html-keyboard-response","41","201294","0.0-1.0-4.1-3.1-1.7","19:43:25","4","","","","","","","<div>
            <img class='stim' src=""pictures/prac/1.jpg""></div><div class=""button_prompt"">
                        <b>请用数字键1-3回答</b>
                        </div>","","","","","","","","","","","","","","","","","","",""
"1018","null","sub_response","html-keyboard-response","42","202295","0.0-1.0-4.1-3.1-2.7","19:43:25","4","","","","","","","<div style='text-align: center;'>
                            <span style=""color: green; font-size: 40px""><b>正确！+1 pts</b></span></div>
                            ","","learn","1","1","1","learn","0","0","[0, 1, 2]","1","0","setsize","99","prac","0","1","0","1",""
"null","null","fixation","html-keyboard-response","43","202796","0.0-1.0-4.1-3.1-0.8","19:43:25","4","","","","","","","fixation","","","","","","","","","","","","","","","","","","",""
"1504","2","pic_response","html-keyboard-response","44","204301","0.0-1.0-4.1-3.1-1.8","19:43:25","4","","","","","","","<div>
            <img class='stim' src=""pictures/prac/0.jpg""></div><div class=""button_prompt"">
                        <b>请用数字键1-3回答</b>
                        </div>","","","","","","","","","","","","","","","","","","",""
"1504","null","sub_response","html-keyboard-response","45","205302","0.0-1.0-4.1-3.1-2.8","19:43:25","4","","","","","","","<div style='text-align: center;'>
                            <span style=""color: red; font-size: 40px""><b>错误！+0 pts</b></span></div>
                            ","","learn","0","0","0","learn","0","0","[0, 1, 2]","2","0","setsize","99","prac","0","0","1","0",""
"null","null","fixation","html-keyboard-response","46","205804","0.0-1.0-4.1-3.1-0.9","19:43:25","4","","","","","","","fixation","","","","","","","","","","","","","","","","","","",""
"1295","2","pic_response","html-keyboard-response","47","207100","0.0-1.0-4.1-3.1-1.9","19:43:25","4","","","","","","","<div>
            <img class='stim' src=""pictures/prac/2.jpg""></div><div class=""button_prompt"">
                        <b>请用数字键1-3回答</b>
                        </div>","","","","","","","","","","","","","","","","","","",""
"1295","null","sub_response","html-keyboard-response","48","208101","0.0-1.0-4.1-3.1-2.9","19:43:25","4","","","","","","","<div style='text-align: center;'>
                            <span style=""color: red; font-size: 40px""><b>错误！+0 pts</b></span></div>
                            ","","learn","2","2","2","learn","2","2","[0, 1, 2]","3","1","setsize","99","prac","0","0","1","0",""
"null","null","fixation","html-keyboard-response","49","208602","0.0-1.0-4.1-3.1-0.10","19:43:25","4","","","","","","","fixation","","","","","","","","","","","","","","","","","","",""
"1017","3","pic_response","html-keyboard-response","50","209621","0.0-1.0-4.1-3.1-1.10","19:43:25","4","","","","","","","<div>
            <img class='stim' src=""pictures/prac/0.jpg""></div><div class=""button_prompt"">
                        <b>请用数字键1-3回答</b>
                        </div>","","","","","","","","","","","","","","","","","","",""
"1017","null","sub_response","html-keyboard-response","51","210622","0.0-1.0-4.1-3.1-2.10","19:43:25","4","","","","","","","<div style='text-align: center;'>
                            <span style=""color: red; font-size: 40px""><b>错误！+0 pts</b></span></div>
                            ","","learn","0","0","0","learn","0","0","[0, 1, 2]","4","1","setsize","99","prac","0","0","2","0",""
"null","null","fixation","html-keyboard-response","52","211124","0.0-1.0-4.1-3.1-0.11","19:43:25","4","","","","","","","fixation","","","","","","","","","","","","","","","","","","",""
"1113","1","pic_response","html-keyboard-response","53","212238","0.0-1.0-4.1-3.1-1.11","19:43:25","4","","","","","","","<div>
            <img class='stim' src=""pictures/prac/1.jpg""></div><div class=""button_prompt"">
                        <b>请用数字键1-3回答</b>
                        </div>","","","","","","","","","","","","","","","","","","",""
"1113","null","sub_response","html-keyboard-response","54","213239","0.0-1.0-4.1-3.1-2.11","19:43:25","4","","","","","","","<div style='text-align: center;'>
                            <span style=""color: green; font-size: 40px""><b>正确！+1 pts</b></span></div>
                            ","","learn","1","1","1","learn","0","0","[0, 1, 2]","5","1","setsize","99","prac","0","1","0","1",""
"","","","preload","55","213248","0.0-1.0-4.2-0.2","19:43:25","4","true","false","[]","[]","[]","","","","","","","","","","","","","","","","","","","","",""
"1420"," ","","html-keyboard-response","56","214669","0.0-1.0-4.2-1.2","19:43:25","4","","","","","","","<div style='font-size: 32px; text-align: center;'
                    <p>请学习图片和数字之间的对应关系</p>
                    <p>我们将<span style='color: blue'><b> 告诉 </b></span>您选择的对错。请根据反馈学习。</p>
                    <p>请按""空格""继续实验。</p></div>","","","","","","","","","","","","","","","","","","",""
"6242"," ","inst","html-keyboard-response","57","220911","0.0-1.0-4.2-2.2","19:43:25","4","","","","","","","<img class='instruct_stim' src=""instruction/prac3.PNG""></div>","","","","","","","","","","","","","","","","","","",""
"null","null","fixation","html-keyboard-response","58","221413","0.0-1.0-4.2-3.2-0.12","19:43:25","4","","","","","","","fixation","","","","","","","","","","","","","","","","","","",""
"1177","2","pic_response","html-keyboard-response","59","222591","0.0-1.0-4.2-3.2-1.12","19:43:25","4","","","","","","","<div>
            <img class='stim' src=""pictures/prac/2.jpg""></div><div class=""button_prompt"">
                        <b>请用数字键1-3回答</b>
                        </div>","","","","","","","","","","","","","","","","","","",""
"1177","null","sub_response","html-keyboard-response","60","223592","0.0-1.0-4.2-3.2-2.12","19:43:25","4","","","","","","","<div style='text-align: center;'>
                            <span style=""color: red; font-size: 40px""><b>错误！+0 pts</b></span></div>
                            ","","learn","2","2","2","learn","2","2","[0, 1, 2]","0","0","setsize","99","prac","0","0","1","0",""
"null","null","fixation","html-keyboard-response","61","224094","0.0-1.0-4.2-3.2-0.13","19:43:25","4","","","","","","","fixation","","","","","","","","","","","","","","","","","","",""
"1387","1","pic_response","html-keyboard-response","62","225481","0.0-1.0-4.2-3.2-1.13","19:43:25","4","","","","","","","<div>
            <img class='stim' src=""pictures/prac/1.jpg""></div><div class=""button_prompt"">
                        <b>请用数字键1-3回答</b>
                        </div>","","","","","","","","","","","","","","","","","","",""
"1387","null","sub_response","html-keyboard-response","63","226482","0.0-1.0-4.2-3.2-2.13","19:43:25","4","","","","","","","<div style='text-align: center;'>
                            <span style=""color: green; font-size: 40px""><b>正确！+1 pts</b></span></div>
                            ","","learn","1","1","1","learn","0","0","[0, 1, 2]","1","0","setsize","99","prac","0","1","0","1",""
"null","null","fixation","html-keyboard-response","64","226983","0.0-1.0-4.2-3.2-0.14","19:43:25","4","","","","","","","fixation","","","","","","","","","","","","","","","","","","",""
"1112","2","pic_response","html-keyboard-response","65","228096","0.0-1.0-4.2-3.2-1.14","19:43:25","4","","","","","","","<div>
            <img class='stim' src=""pictures/prac/0.jpg""></div><div class=""button_prompt"">
                        <b>请用数字键1-3回答</b>
                        </div>","","","","","","","","","","","","","","","","","","",""
"1112","null","sub_response","html-keyboard-response","66","229098","0.0-1.0-4.2-3.2-2.14","19:43:25","4","","","","","","","<div style='text-align: center;'>
                            <span style=""color: red; font-size: 40px""><b>错误！+0 pts</b></span></div>
                            ","","learn","0","0","0","learn","0","0","[0, 1, 2]","2","0","setsize","99","prac","0","0","1","0",""
"null","null","fixation","html-keyboard-response","67","229600","0.0-1.0-4.2-3.2-0.15","19:43:25","4","","","","","","","fixation","","","","","","","","","","","","","","","","","","",""
"2587","2","pic_response","html-keyboard-response","68","232188","0.0-1.0-4.2-3.2-1.15","19:43:25","4","","","","","","","<div>
            <img class='stim' src=""pictures/prac/2.jpg""></div><div class=""button_prompt"">
                        <b>请用数字键1-3回答</b>
                        </div>","","","","","","","","","","","","","","","","","","",""
"2587","null","sub_response","html-keyboard-response","69","233190","0.0-1.0-4.2-3.2-2.15","19:43:25","4","","","","","","","<div style='text-align: center;'>
                            <span style=""color: red; font-size: 40px""><b>错误！+0 pts</b></span></div>
                            ","","learn","2","2","2","learn","2","2","[0, 1, 2]","3","1","setsize","99","prac","0","0","1","0",""
"null","null","fixation","html-keyboard-response","70","233691","0.0-1.0-4.2-3.2-0.16","19:43:25","4","","","","","","","fixation","","","","","","","","","","","","","","","","","","",""
"553","1","pic_response","html-keyboard-response","71","234245","0.0-1.0-4.2-3.2-1.16","19:43:25","4","","","","","","","<div>
            <img class='stim' src=""pictures/prac/0.jpg""></div><div class=""button_prompt"">
                        <b>请用数字键1-3回答</b>
                        </div>","","","","","","","","","","","","","","","","","","",""
"553","null","sub_response","html-keyboard-response","72","235247","0.0-1.0-4.2-3.2-2.16","19:43:25","4","","","","","","","<div style='text-align: center;'>
                            <span style=""color: green; font-size: 40px""><b>正确！+1 pts</b></span></div>
                            ","","learn","0","0","0","learn","0","0","[0, 1, 2]","4","1","setsize","99","prac","0","1","0","1",""
"null","null","fixation","html-keyboard-response","73","235749","0.0-1.0-4.2-3.2-0.17","19:43:25","4","","","","","","","fixation","","","","","","","","","","","","","","","","","","",""
"858","1","pic_response","html-keyboard-response","74","236608","0.0-1.0-4.2-3.2-1.17","19:43:25","4","","","","","","","<div>
            <img class='stim' src=""pictures/prac/1.jpg""></div><div class=""button_prompt"">
                        <b>请用数字键1-3回答</b>
                        </div>","","","","","","","","","","","","","","","","","","",""
"858","null","sub_response","html-keyboard-response","75","237610","0.0-1.0-4.2-3.2-2.17","19:43:25","4","","","","","","","<div style='text-align: center;'>
                            <span style=""color: green; font-size: 40px""><b>正确！+1 pts</b></span></div>
                            ","","learn","1","1","1","learn","0","0","[0, 1, 2]","5","1","setsize","99","prac","0","2","0","1",""
"","","","preload","76","237614","0.0-1.0-4.3-0.3","19:43:25","4","true","false","[]","[]","[]","","","","","","","","","","","","","","","","","","","","",""
"936"," ","","html-keyboard-response","77","238551","0.0-1.0-4.3-1.3","19:43:25","4","","","","","","","<div style='font-size: 32px; text-align: center;'
                    <p>请学习图片和数字之间的对应关系</p>
                    <p>我们将<span style='color: blue'><b> 告诉 </b></span>您选择的对错。请根据反馈学习。</p>
                    <p>请按""空格""继续实验。</p></div>","","","","","","","","","","","","","","","","","","",""
"1885"," ","inst","html-keyboard-response","78","240436","0.0-1.0-4.3-2.3","19:43:25","4","","","","","","","<img class='instruct_stim' src=""instruction/prac3.PNG""></div>","","","","","","","","","","","","","","","","","","",""
"null","null","fixation","html-keyboard-response","79","240937","0.0-1.0-4.3-3.3-0.18","19:43:25","4","","","","","","","fixation","","","","","","","","","","","","","","","","","","",""
"1468","1","pic_response","html-keyboard-response","80","242406","0.0-1.0-4.3-3.3-1.18","19:43:25","4","","","","","","","<div>
            <img class='stim' src=""pictures/prac/2.jpg""></div><div class=""button_prompt"">
                        <b>请用数字键1-3回答</b>
                        </div>","","","","","","","","","","","","","","","","","","",""
"1468","null","sub_response","html-keyboard-response","81","243408","0.0-1.0-4.3-3.3-2.18","19:43:25","4","","","","","","","<div style='text-align: center;'>
                            <span style=""color: red; font-size: 40px""><b>错误！+0 pts</b></span></div>
                            ","","learn","2","2","2","learn","2","2","[0, 1, 2]","0","0","setsize","99","prac","0","0","0","0",""
"null","null","fixation","html-keyboard-response","82","243909","0.0-1.0-4.3-3.3-0.19","19:43:25","4","","","","","","","fixation","","","","","","","","","","","","","","","","","","",""
"813","1","pic_response","html-keyboard-response","83","244723","0.0-1.0-4.3-3.3-1.19","19:43:25","4","","","","","","","<div>
            <img class='stim' src=""pictures/prac/1.jpg""></div><div class=""button_prompt"">
                        <b>请用数字键1-3回答</b>
                        </div>","","","","","","","","","","","","","","","","","","",""
"813","null","sub_response","html-keyboard-response","84","245725","0.0-1.0-4.3-3.3-2.19","19:43:25","4","","","","","","","<div style='text-align: center;'>
                            <span style=""color: green; font-size: 40px""><b>正确！+1 pts</b></span></div>
                            ","","learn","1","1","1","learn","0","0","[0, 1, 2]","1","0","setsize","99","prac","0","1","0","1",""
"null","null","fixation","html-keyboard-response","85","246227","0.0-1.0-4.3-3.3-0.20","19:43:25","4","","","","","","","fixation","","","","","","","","","","","","","","","","","","",""
"1223","1","pic_response","html-keyboard-response","86","247450","0.0-1.0-4.3-3.3-1.20","19:43:25","4","","","","","","","<div>
            <img class='stim' src=""pictures/prac/0.jpg""></div><div class=""button_prompt"">
                        <b>请用数字键1-3回答</b>
                        </div>","","","","","","","","","","","","","","","","","","",""
"1223","null","sub_response","html-keyboard-response","87","248451","0.0-1.0-4.3-3.3-2.20","19:43:25","4","","","","","","","<div style='text-align: center;'>
                            <span style=""color: green; font-size: 40px""><b>正确！+1 pts</b></span></div>
                            ","","learn","0","0","0","learn","0","0","[0, 1, 2]","2","0","setsize","99","prac","0","2","0","1",""
"null","null","fixation","html-keyboard-response","88","248953","0.0-1.0-4.3-3.3-0.21","19:43:25","4","","","","","","","fixation","","","","","","","","","","","","","","","","","","",""
"952","3","pic_response","html-keyboard-response","89","249905","0.0-1.0-4.3-3.3-1.21","19:43:25","4","","","","","","","<div>
            <img class='stim' src=""pictures/prac/2.jpg""></div><div class=""button_prompt"">
                        <b>请用数字键1-3回答</b>
                        </div>","","","","","","","","","","","","","","","","","","",""
"952","null","sub_response","html-keyboard-response","90","250906","0.0-1.0-4.3-3.3-2.21","19:43:25","4","","","","","","","<div style='text-align: center;'>
                            <span style=""color: green; font-size: 40px""><b>正确！+1 pts</b></span></div>
                            ","","learn","2","2","2","learn","2","2","[0, 1, 2]","3","1","setsize","99","prac","0","3","2","1",""
"null","null","fixation","html-keyboard-response","91","251408","0.0-1.0-4.3-3.3-0.22","19:43:25","4","","","","","","","fixation","","","","","","","","","","","","","","","","","","",""
"1386","1","pic_response","html-keyboard-response","92","252794","0.0-1.0-4.3-3.3-1.22","19:43:25","4","","","","","","","<div>
            <img class='stim' src=""pictures/prac/0.jpg""></div><div class=""button_prompt"">
                        <b>请用数字键1-3回答</b>
                        </div>","","","","","","","","","","","","","","","","","","",""
"1386","null","sub_response","html-keyboard-response","93","253795","0.0-1.0-4.3-3.3-2.22","19:43:25","4","","","","","","","<div style='text-align: center;'>
                            <span style=""color: green; font-size: 40px""><b>正确！+1 pts</b></span></div>
                            ","","learn","0","0","0","learn","0","0","[0, 1, 2]","4","1","setsize","99","prac","0","4","0","1",""
"null","null","fixation","html-keyboard-response","94","254296","0.0-1.0-4.3-3.3-0.23","19:43:25","4","","","","","","","fixation","","","","","","","","","","","","","","","","","","",""
"868","1","pic_response","html-keyboard-response","95","255165","0.0-1.0-4.3-3.3-1.23","19:43:25","4","","","","","","","<div>
            <img class='stim' src=""pictures/prac/1.jpg""></div><div class=""button_prompt"">
                        <b>请用数字键1-3回答</b>
                        </div>","","","","","","","","","","","","","","","","","","",""
"868","null","sub_response","html-keyboard-response","96","256166","0.0-1.0-4.3-3.3-2.23","19:43:25","4","","","","","","","<div style='text-align: center;'>
                            <span style=""color: green; font-size: 40px""><b>正确！+1 pts</b></span></div>
                            ","","learn","1","1","1","learn","0","0","[0, 1, 2]","5","1","setsize","99","prac","0","5","0","1",""
"1716"," ","","html-keyboard-response","97","257883","0.0-1.0-5.0","19:43:25","4","","","","","","","<div style=""font-size: 25px""><p>距下一个实验开始还有</p><div style=""font-size: 50px; color: blue""><p><span id=""clock"">1:00</span></div></p><p>按""空格""跳过休息</p></div>","","","","","","","","","","","","","","","","","","",""
"894"," ","","html-keyboard-response","98","258777","0.0-1.0-6.0","19:43:25","4","","","","","","","<div style='font-size: 32px; text-align: center;'
                    <p>请按""空格""继续正式实验。</p></div>","","","","","","","","","","","","","","","","","","",""
"","","","preload","99","259434","0.0-1.0-7.0-0.0","19:43:25","4","true","false","[]","[]","[]","","","","","","","","","","","","","","","","","","","","",""
"1185"," ","","html-keyboard-response","100","260620","0.0-1.0-7.0-1.0","19:43:25","4","","","","","","","<div style='font-size: 32px; text-align: center;'
                    <p>请学习图片和数字之间的对应关系</p>
                    <p>我们将<span style='color: blue'><b> 告诉 </b></span>您选择的对错。请根据反馈学习。</p>
                    <p>请按""空格""继续实验。</p></div>","","","","","","","","","","","","","","","","","","",""
"4262"," ","inst","html-keyboard-response","101","264883","0.0-1.0-7.0-2.0","19:43:25","4","","","","","","","<img class='instruct_stim' src=""instruction/sports3.PNG""></div>","","","","","","","","","","","","","","","","","","",""
"null","null","fixation","html-keyboard-response","102","265384","0.0-1.0-7.0-3.0-0.0","19:43:25","4","","","","","","","fixation","","","","","","","","","","","","","","","","","","",""
"842","1","pic_response","html-keyboard-response","103","266227","0.0-1.0-7.0-3.0-1.0","19:43:25","4","","","","","","","<div>
            <img class='stim' src=""pictures/sports/0.jpg""></div><div class=""button_prompt"">
                    <b>请用数字键0-9回答</b>
                    </div>","","","","","","","","","","","","","","","","","","",""
"842","null","sub_response","html-keyboard-response","104","267228","0.0-1.0-7.0-3.0-2.0","19:43:25","4","","","","","","","<div style='text-align: center;'>
                            <span style=""color: red; font-size: 40px""><b>错误！+0 pts</b></span></div>
                            ","","learn","0","0","0","learn","2","2","[0, 1, 2, 3, 4, 5, 6, 7, 8, 9]","0","0","setsize","3S10A","sports","1","0","0","0",""
"null","null","fixation","html-keyboard-response","105","267730","0.0-1.0-7.0-3.0-0.1","19:43:25","4","","","","","","","fixation","","","","","","","","","","","","","","","","","","",""
"588","1","pic_response","html-keyboard-response","106","268319","0.0-1.0-7.0-3.0-1.1","19:43:25","4","","","","","","","<div>
            <img class='stim' src=""pictures/sports/1.jpg""></div><div class=""button_prompt"">
                    <b>请用数字键0-9回答</b>
                    </div>","","","","","","","","","","","","","","","","","","",""
"588","null","sub_response","html-keyboard-response","107","269320","0.0-1.0-7.0-3.0-2.1","19:43:25","4","","","","","","","<div style='text-align: center;'>
                            <span style=""color: red; font-size: 40px""><b>错误！+0 pts</b></span></div>
                            ","","learn","1","1","1","learn","6","6","[0, 1, 2, 3, 4, 5, 6, 7, 8, 9]","1","0","setsize","3S10A","sports","1","0","0","0",""
"null","null","fixation","html-keyboard-response","108","269822","0.0-1.0-7.0-3.0-0.2","19:43:25","4","","","","","","","fixation","","","","","","","","","","","","","","","","","","",""
"586","1","pic_response","html-keyboard-response","109","270409","0.0-1.0-7.0-3.0-1.2","19:43:25","4","","","","","","","<div>
            <img class='stim' src=""pictures/sports/2.jpg""></div><div class=""button_prompt"">
                    <b>请用数字键0-9回答</b>
                    </div>","","","","","","","","","","","","","","","","","","",""
"586","null","sub_response","html-keyboard-response","110","271410","0.0-1.0-7.0-3.0-2.2","19:43:25","4","","","","","","","<div style='text-align: center;'>
                            <span style=""color: red; font-size: 40px""><b>错误！+0 pts</b></span></div>
                            ","","learn","2","2","2","learn","9","9","[0, 1, 2, 3, 4, 5, 6, 7, 8, 9]","2","0","setsize","3S10A","sports","1","0","0","0",""
"null","null","fixation","html-keyboard-response","111","271911","0.0-1.0-7.0-3.0-0.3","19:43:25","4","","","","","","","fixation","","","","","","","","","","","","","","","","","","",""
"530","2","pic_response","html-keyboard-response","112","272442","0.0-1.0-7.0-3.0-1.3","19:43:25","4","","","","","","","<div>
            <img class='stim' src=""pictures/sports/0.jpg""></div><div class=""button_prompt"">
                    <b>请用数字键0-9回答</b>
                    </div>","","","","","","","","","","","","","","","","","","",""
"530","null","sub_response","html-keyboard-response","113","273444","0.0-1.0-7.0-3.0-2.3","19:43:25","4","","","","","","","<div style='text-align: center;'>
                            <span style=""color: red; font-size: 40px""><b>错误！+0 pts</b></span></div>
                            ","","learn","0","0","0","learn","2","2","[0, 1, 2, 3, 4, 5, 6, 7, 8, 9]","3","1","setsize","3S10A","sports","1","0","1","0",""
"null","null","fixation","html-keyboard-response","114","273945","0.0-1.0-7.0-3.0-0.4","19:43:25","4","","","","","","","fixation","","","","","","","","","","","","","","","","","","",""
"738","2","pic_response","html-keyboard-response","115","274684","0.0-1.0-7.0-3.0-1.4","19:43:25","4","","","","","","","<div>
            <img class='stim' src=""pictures/sports/2.jpg""></div><div class=""button_prompt"">
                    <b>请用数字键0-9回答</b>
                    </div>","","","","","","","","","","","","","","","","","","",""
"738","null","sub_response","html-keyboard-response","116","275685","0.0-1.0-7.0-3.0-2.4","19:43:25","4","","","","","","","<div style='text-align: center;'>
                            <span style=""color: red; font-size: 40px""><b>错误！+0 pts</b></span></div>
                            ","","learn","2","2","2","learn","9","9","[0, 1, 2, 3, 4, 5, 6, 7, 8, 9]","4","1","setsize","3S10A","sports","1","0","1","0",""
"null","null","fixation","html-keyboard-response","117","276186","0.0-1.0-7.0-3.0-0.5","19:43:25","4","","","","","","","fixation","","","","","","","","","","","","","","","","","","",""
"363","2","pic_response","html-keyboard-response","118","276550","0.0-1.0-7.0-3.0-1.5","19:43:25","4","","","","","","","<div>
            <img class='stim' src=""pictures/sports/1.jpg""></div><div class=""button_prompt"">
                    <b>请用数字键0-9回答</b>
                    </div>","","","","","","","","","","","","","","","","","","",""
"363","null","sub_response","html-keyboard-response","119","277551","0.0-1.0-7.0-3.0-2.5","19:43:25","4","","","","","","","<div style='text-align: center;'>
                            <span style=""color: red; font-size: 40px""><b>错误！+0 pts</b></span></div>
                            ","","learn","1","1","1","learn","6","6","[0, 1, 2, 3, 4, 5, 6, 7, 8, 9]","5","1","setsize","3S10A","sports","1","0","1","0",""
"null","null","fixation","html-keyboard-response","120","278053","0.0-1.0-7.0-3.0-0.6","19:43:25","4","","","","","","","fixation","","","","","","","","","","","","","","","","","","",""
"521","3","pic_response","html-keyboard-response","121","278575","0.0-1.0-7.0-3.0-1.6","19:43:25","4","","","","","","","<div>
            <img class='stim' src=""pictures/sports/0.jpg""></div><div class=""button_prompt"">
                    <b>请用数字键0-9回答</b>
                    </div>","","","","","","","","","","","","","","","","","","",""
"521","null","sub_response","html-keyboard-response","122","279576","0.0-1.0-7.0-3.0-2.6","19:43:25","4","","","","","","","<div style='text-align: center;'>
                            <span style=""color: green; font-size: 40px""><b>正确！+1 pts</b></span></div>
                            ","","learn","0","0","0","learn","2","2","[0, 1, 2, 3, 4, 5, 6, 7, 8, 9]","6","2","setsize","3S10A","sports","1","1","2","1",""
"null","null","fixation","html-keyboard-response","123","280078","0.0-1.0-7.0-3.0-0.7","19:43:25","4","","","","","","","fixation","","","","","","","","","","","","","","","","","","",""
"356","3","pic_response","html-keyboard-response","124","280434","0.0-1.0-7.0-3.0-1.7","19:43:25","4","","","","","","","<div>
            <img class='stim' src=""pictures/sports/1.jpg""></div><div class=""button_prompt"">
                    <b>请用数字键0-9回答</b>
                    </div>","","","","","","","","","","","","","","","","","","",""
"356","null","sub_response","html-keyboard-response","125","281435","0.0-1.0-7.0-3.0-2.7","19:43:25","4","","","","","","","<div style='text-align: center;'>
                            <span style=""color: red; font-size: 40px""><b>错误！+0 pts</b></span></div>
                            ","","learn","1","1","1","learn","6","6","[0, 1, 2, 3, 4, 5, 6, 7, 8, 9]","7","2","setsize","3S10A","sports","1","0","2","0",""
"null","null","fixation","html-keyboard-response","126","281937","0.0-1.0-7.0-3.0-0.8","19:43:25","4","","","","","","","fixation","","","","","","","","","","","","","","","","","","",""
"946","3","pic_response","html-keyboard-response","127","282884","0.0-1.0-7.0-3.0-1.8","19:43:25","4","","","","","","","<div>
            <img class='stim' src=""pictures/sports/2.jpg""></div><div class=""button_prompt"">
                    <b>请用数字键0-9回答</b>
                    </div>","","","","","","","","","","","","","","","","","","",""
"946","null","sub_response","html-keyboard-response","128","283885","0.0-1.0-7.0-3.0-2.8","19:43:25","4","","","","","","","<div style='text-align: center;'>
                            <span style=""color: red; font-size: 40px""><b>错误！+0 pts</b></span></div>
                            ","","learn","2","2","2","learn","9","9","[0, 1, 2, 3, 4, 5, 6, 7, 8, 9]","8","2","setsize","3S10A","sports","1","0","2","0",""
"null","null","fixation","html-keyboard-response","129","284387","0.0-1.0-7.0-3.0-0.9","19:43:25","4","","","","","","","fixation","","","","","","","","","","","","","","","","","","",""
"366","4","pic_response","html-keyboard-response","130","284753","0.0-1.0-7.0-3.0-1.9","19:43:25","4","","","","","","","<div>
            <img class='stim' src=""pictures/sports/0.jpg""></div><div class=""button_prompt"">
                    <b>请用数字键0-9回答</b>
                    </div>","","","","","","","","","","","","","","","","","","",""
"366","null","sub_response","html-keyboard-response","131","285754","0.0-1.0-7.0-3.0-2.9","19:43:25","4","","","","","","","<div style='text-align: center;'>
                            <span style=""color: red; font-size: 40px""><b>错误！+0 pts</b></span></div>
                            ","","learn","0","0","0","learn","2","2","[0, 1, 2, 3, 4, 5, 6, 7, 8, 9]","9","3","setsize","3S10A","sports","1","0","3","0",""
"null","null","fixation","html-keyboard-response","132","286256","0.0-1.0-7.0-3.0-0.10","19:43:25","4","","","","","","","fixation","","","","","","","","","","","","","","","","","","",""
"1165","5","pic_response","html-keyboard-response","133","287423","0.0-1.0-7.0-3.0-1.10","19:43:25","4","","","","","","","<div>
            <img class='stim' src=""pictures/sports/1.jpg""></div><div class=""button_prompt"">
                    <b>请用数字键0-9回答</b>
                    </div>","","","","","","","","","","","","","","","","","","",""
"1165","null","sub_response","html-keyboard-response","134","288424","0.0-1.0-7.0-3.0-2.10","19:43:25","4","","","","","","","<div style='text-align: center;'>
                            <span style=""color: red; font-size: 40px""><b>错误！+0 pts</b></span></div>
                            ","","learn","1","1","1","learn","6","6","[0, 1, 2, 3, 4, 5, 6, 7, 8, 9]","10","3","setsize","3S10A","sports","1","0","4","0",""
"null","null","fixation","html-keyboard-response","135","288926","0.0-1.0-7.0-3.0-0.11","19:43:25","4","","","","","","","fixation","","","","","","","","","","","","","","","","","","",""
"754","6","pic_response","html-keyboard-response","136","289681","0.0-1.0-7.0-3.0-1.11","19:43:25","4","","","","","","","<div>
            <img class='stim' src=""pictures/sports/2.jpg""></div><div class=""button_prompt"">
                    <b>请用数字键0-9回答</b>
                    </div>","","","","","","","","","","","","","","","","","","",""
"754","null","sub_response","html-keyboard-response","137","290682","0.0-1.0-7.0-3.0-2.11","19:43:25","4","","","","","","","<div style='text-align: center;'>
                            <span style=""color: red; font-size: 40px""><b>错误！+0 pts</b></span></div>
                            ","","learn","2","2","2","learn","9","9","[0, 1, 2, 3, 4, 5, 6, 7, 8, 9]","11","3","setsize","3S10A","sports","1","0","5","0",""
"null","null","fixation","html-keyboard-response","138","291184","0.0-1.0-7.0-3.0-0.12","19:43:25","4","","","","","","","fixation","","","","","","","","","","","","","","","","","","",""
"1065","7","pic_response","html-keyboard-response","139","292250","0.0-1.0-7.0-3.0-1.12","19:43:25","4","","","","","","","<div>
            <img class='stim' src=""pictures/sports/2.jpg""></div><div class=""button_prompt"">
                    <b>请用数字键0-9回答</b>
                    </div>","","","","","","","","","","","","","","","","","","",""
"1065","null","sub_response","html-keyboard-response","140","293252","0.0-1.0-7.0-3.0-2.12","19:43:25","4","","","","","","","<div style='text-align: center;'>
                            <span style=""color: red; font-size: 40px""><b>错误！+0 pts</b></span></div>
                            ","","learn","2","2","2","learn","9","9","[0, 1, 2, 3, 4, 5, 6, 7, 8, 9]","12","4","setsize","3S10A","sports","1","0","6","0",""
"null","null","fixation","html-keyboard-response","141","293754","0.0-1.0-7.0-3.0-0.13","19:43:25","4","","","","","","","fixation","","","","","","","","","","","","","","","","","","",""
"1775","4","pic_response","html-keyboard-response","142","295529","0.0-1.0-7.0-3.0-1.13","19:43:25","4","","","","","","","<div>
            <img class='stim' src=""pictures/sports/1.jpg""></div><div class=""button_prompt"">
                    <b>请用数字键0-9回答</b>
                    </div>","","","","","","","","","","","","","","","","","","",""
"1775","null","sub_response","html-keyboard-response","143","296531","0.0-1.0-7.0-3.0-2.13","19:43:25","4","","","","","","","<div style='text-align: center;'>
                            <span style=""color: red; font-size: 40px""><b>错误！+0 pts</b></span></div>
                            ","","learn","1","1","1","learn","6","6","[0, 1, 2, 3, 4, 5, 6, 7, 8, 9]","13","4","setsize","3S10A","sports","1","0","3","0",""
"null","null","fixation","html-keyboard-response","144","297033","0.0-1.0-7.0-3.0-0.14","19:43:25","4","","","","","","","fixation","","","","","","","","","","","","","","","","","","",""
"689","5","pic_response","html-keyboard-response","145","297722","0.0-1.0-7.0-3.0-1.14","19:43:25","4","","","","","","","<div>
            <img class='stim' src=""pictures/sports/0.jpg""></div><div class=""button_prompt"">
                    <b>请用数字键0-9回答</b>
                    </div>","","","","","","","","","","","","","","","","","","",""
"689","null","sub_response","html-keyboard-response","146","298723","0.0-1.0-7.0-3.0-2.14","19:43:25","4","","","","","","","<div style='text-align: center;'>
                            <span style=""color: red; font-size: 40px""><b>错误！+0 pts</b></span></div>
                            ","","learn","0","0","0","learn","2","2","[0, 1, 2, 3, 4, 5, 6, 7, 8, 9]","14","4","setsize","3S10A","sports","1","0","4","0",""
"null","null","fixation","html-keyboard-response","147","299226","0.0-1.0-7.0-3.0-0.15","19:43:25","4","","","","","","","fixation","","","","","","","","","","","","","","","","","","",""
"1315","3","pic_response","html-keyboard-response","148","300541","0.0-1.0-7.0-3.0-1.15","19:43:25","4","","","","","","","<div>
            <img class='stim' src=""pictures/sports/0.jpg""></div><div class=""button_prompt"">
                    <b>请用数字键0-9回答</b>
                    </div>","","","","","","","","","","","","","","","","","","",""
"1315","null","sub_response","html-keyboard-response","149","301543","0.0-1.0-7.0-3.0-2.15","19:43:25","4","","","","","","","<div style='text-align: center;'>
                            <span style=""color: green; font-size: 40px""><b>正确！+1 pts</b></span></div>
                            ","","learn","0","0","0","learn","2","2","[0, 1, 2, 3, 4, 5, 6, 7, 8, 9]","15","5","setsize","3S10A","sports","1","1","2","1",""
"null","null","fixation","html-keyboard-response","150","302044","0.0-1.0-7.0-3.0-0.16","19:43:25","4","","","","","","","fixation","","","","","","","","","","","","","","","","","","",""
"701","6","pic_response","html-keyboard-response","151","302746","0.0-1.0-7.0-3.0-1.16","19:43:25","4","","","","","","","<div>
            <img class='stim' src=""pictures/sports/1.jpg""></div><div class=""button_prompt"">
                    <b>请用数字键0-9回答</b>
                    </div>","","","","","","","","","","","","","","","","","","",""
"701","null","sub_response","html-keyboard-response","152","303748","0.0-1.0-7.0-3.0-2.16","19:43:25","4","","","","","","","<div style='text-align: center;'>
                            <span style=""color: red; font-size: 40px""><b>错误！+0 pts</b></span></div>
                            ","","learn","1","1","1","learn","6","6","[0, 1, 2, 3, 4, 5, 6, 7, 8, 9]","16","5","setsize","3S10A","sports","1","0","5","0",""
"null","null","fixation","html-keyboard-response","153","304255","0.0-1.0-7.0-3.0-0.17","19:43:25","4","","","","","","","fixation","","","","","","","","","","","","","","","","","","",""
"401","8","pic_response","html-keyboard-response","154","304657","0.0-1.0-7.0-3.0-1.17","19:43:25","4","","","","","","","<div>
            <img class='stim' src=""pictures/sports/2.jpg""></div><div class=""button_prompt"">
                    <b>请用数字键0-9回答</b>
                    </div>","","","","","","","","","","","","","","","","","","",""
"401","null","sub_response","html-keyboard-response","155","305658","0.0-1.0-7.0-3.0-2.17","19:43:25","4","","","","","","","<div style='text-align: center;'>
                            <span style=""color: red; font-size: 40px""><b>错误！+0 pts</b></span></div>
                            ","","learn","2","2","2","learn","9","9","[0, 1, 2, 3, 4, 5, 6, 7, 8, 9]","17","5","setsize","3S10A","sports","1","0","7","0",""
"null","null","fixation","html-keyboard-response","156","306159","0.0-1.0-7.0-3.0-0.18","19:43:25","4","","","","","","","fixation","","","","","","","","","","","","","","","","","","",""
"882","9","pic_response","html-keyboard-response","157","307042","0.0-1.0-7.0-3.0-1.18","19:43:25","4","","","","","","","<div>
            <img class='stim' src=""pictures/sports/0.jpg""></div><div class=""button_prompt"">
                    <b>请用数字键0-9回答</b>
                    </div>","","","","","","","","","","","","","","","","","","",""
"882","null","sub_response","html-keyboard-response","158","308044","0.0-1.0-7.0-3.0-2.18","19:43:25","4","","","","","","","<div style='text-align: center;'>
                            <span style=""color: red; font-size: 40px""><b>错误！+0 pts</b></span></div>
                            ","","learn","0","0","0","learn","2","2","[0, 1, 2, 3, 4, 5, 6, 7, 8, 9]","18","6","setsize","3S10A","sports","1","0","8","0",""
"null","null","fixation","html-keyboard-response","159","308545","0.0-1.0-7.0-3.0-0.19","19:43:25","4","","","","","","","fixation","","","","","","","","","","","","","","","","","","",""
"858","0","pic_response","html-keyboard-response","160","309403","0.0-1.0-7.0-3.0-1.19","19:43:25","4","","","","","","","<div>
            <img class='stim' src=""pictures/sports/2.jpg""></div><div class=""button_prompt"">
                    <b>请用数字键0-9回答</b>
                    </div>","","","","","","","","","","","","","","","","","","",""
"858","null","sub_response","html-keyboard-response","161","310405","0.0-1.0-7.0-3.0-2.19","19:43:25","4","","","","","","","<div style='text-align: center;'>
                            <span style=""color: green; font-size: 40px""><b>正确！+1 pts</b></span></div>
                            ","","learn","2","2","2","learn","9","9","[0, 1, 2, 3, 4, 5, 6, 7, 8, 9]","19","6","setsize","3S10A","sports","1","1","9","1",""
"null","null","fixation","html-keyboard-response","162","310906","0.0-1.0-7.0-3.0-0.20","19:43:25","4","","","","","","","fixation","","","","","","","","","","","","","","","","","","",""
"1094","3","pic_response","html-keyboard-response","163","312000","0.0-1.0-7.0-3.0-1.20","19:43:25","4","","","","","","","<div>
            <img class='stim' src=""pictures/sports/1.jpg""></div><div class=""button_prompt"">
                    <b>请用数字键0-9回答</b>
                    </div>","","","","","","","","","","","","","","","","","","",""
"1094","null","sub_response","html-keyboard-response","164","313001","0.0-1.0-7.0-3.0-2.20","19:43:25","4","","","","","","","<div style='text-align: center;'>
                            <span style=""color: red; font-size: 40px""><b>错误！+0 pts</b></span></div>
                            ","","learn","1","1","1","learn","6","6","[0, 1, 2, 3, 4, 5, 6, 7, 8, 9]","20","6","setsize","3S10A","sports","1","0","2","0",""
"null","null","fixation","html-keyboard-response","165","313502","0.0-1.0-7.0-3.0-0.21","19:43:25","4","","","","","","","fixation","","","","","","","","","","","","","","","","","","",""
"710","0","pic_response","html-keyboard-response","166","314213","0.0-1.0-7.0-3.0-1.21","19:43:25","4","","","","","","","<div>
            <img class='stim' src=""pictures/sports/2.jpg""></div><div class=""button_prompt"">
                    <b>请用数字键0-9回答</b>
                    </div>","","","","","","","","","","","","","","","","","","",""
"710","null","sub_response","html-keyboard-response","167","315213","0.0-1.0-7.0-3.0-2.21","19:43:25","4","","","","","","","<div style='text-align: center;'>
                            <span style=""color: green; font-size: 40px""><b>正确！+1 pts</b></span></div>
                            ","","learn","2","2","2","learn","9","9","[0, 1, 2, 3, 4, 5, 6, 7, 8, 9]","21","7","setsize","3S10A","sports","1","1","9","1",""
"null","null","fixation","html-keyboard-response","168","315715","0.0-1.0-7.0-3.0-0.22","19:43:25","4","","","","","","","fixation","","","","","","","","","","","","","","","","","","",""
"1453","3","pic_response","html-keyboard-response","169","317168","0.0-1.0-7.0-3.0-1.22","19:43:25","4","","","","","","","<div>
            <img class='stim' src=""pictures/sports/1.jpg""></div><div class=""button_prompt"">
                    <b>请用数字键0-9回答</b>
                    </div>","","","","","","","","","","","","","","","","","","",""
"1453","null","sub_response","html-keyboard-response","170","318169","0.0-1.0-7.0-3.0-2.22","19:43:25","4","","","","","","","<div style='text-align: center;'>
                            <span style=""color: red; font-size: 40px""><b>错误！+0 pts</b></span></div>
                            ","","learn","1","1","1","learn","6","6","[0, 1, 2, 3, 4, 5, 6, 7, 8, 9]","22","7","setsize","3S10A","sports","1","0","2","0",""
"null","null","fixation","html-keyboard-response","171","318671","0.0-1.0-7.0-3.0-0.23","19:43:25","4","","","","","","","fixation","","","","","","","","","","","","","","","","","","",""
"917","3","pic_response","html-keyboard-response","172","319589","0.0-1.0-7.0-3.0-1.23","19:43:25","4","","","","","","","<div>
            <img class='stim' src=""pictures/sports/0.jpg""></div><div class=""button_prompt"">
                    <b>请用数字键0-9回答</b>
                    </div>","","","","","","","","","","","","","","","","","","",""
"917","null","sub_response","html-keyboard-response","173","320590","0.0-1.0-7.0-3.0-2.23","19:43:25","4","","","","","","","<div style='text-align: center;'>
                            <span style=""color: green; font-size: 40px""><b>正确！+1 pts</b></span></div>
                            ","","learn","0","0","0","learn","2","2","[0, 1, 2, 3, 4, 5, 6, 7, 8, 9]","23","7","setsize","3S10A","sports","1","1","2","1",""
"null","null","fixation","html-keyboard-response","174","321091","0.0-1.0-7.0-3.0-0.24","19:43:25","4","","","","","","","fixation","","","","","","","","","","","","","","","","","","",""
"337","8","pic_response","html-keyboard-response","175","321429","0.0-1.0-7.0-3.0-1.24","19:43:25","4","","","","","","","<div>
            <img class='stim' src=""pictures/sports/1.jpg""></div><div class=""button_prompt"">
                    <b>请用数字键0-9回答</b>
                    </div>","","","","","","","","","","","","","","","","","","",""
"337","null","sub_response","html-keyboard-response","176","322430","0.0-1.0-7.0-3.0-2.24","19:43:25","4","","","","","","","<div style='text-align: center;'>
                            <span style=""color: red; font-size: 40px""><b>错误！+0 pts</b></span></div>
                            ","","learn","1","1","1","learn","6","6","[0, 1, 2, 3, 4, 5, 6, 7, 8, 9]","24","8","setsize","3S10A","sports","1","0","7","0",""
"null","null","fixation","html-keyboard-response","177","322931","0.0-1.0-7.0-3.0-0.25","19:43:25","4","","","","","","","fixation","","","","","","","","","","","","","","","","","","",""
"1487","0","pic_response","html-keyboard-response","178","324420","0.0-1.0-7.0-3.0-1.25","19:43:25","4","","","","","","","<div>
            <img class='stim' src=""pictures/sports/2.jpg""></div><div class=""button_prompt"">
                    <b>请用数字键0-9回答</b>
                    </div>","","","","","","","","","","","","","","","","","","",""
"1487","null","sub_response","html-keyboard-response","179","325421","0.0-1.0-7.0-3.0-2.25","19:43:25","4","","","","","","","<div style='text-align: center;'>
                            <span style=""color: green; font-size: 40px""><b>正确！+1 pts</b></span></div>
                            ","","learn","2","2","2","learn","9","9","[0, 1, 2, 3, 4, 5, 6, 7, 8, 9]","25","8","setsize","3S10A","sports","1","1","9","1",""
"null","null","fixation","html-keyboard-response","180","325922","0.0-1.0-7.0-3.0-0.26","19:43:25","4","","","","","","","fixation","","","","","","","","","","","","","","","","","","",""
"439","9","pic_response","html-keyboard-response","181","326362","0.0-1.0-7.0-3.0-1.26","19:43:25","4","","","","","","","<div>
            <img class='stim' src=""pictures/sports/0.jpg""></div><div class=""button_prompt"">
                    <b>请用数字键0-9回答</b>
                    </div>","","","","","","","","","","","","","","","","","","",""
"439","null","sub_response","html-keyboard-response","182","327363","0.0-1.0-7.0-3.0-2.26","19:43:25","4","","","","","","","<div style='text-align: center;'>
                            <span style=""color: red; font-size: 40px""><b>错误！+0 pts</b></span></div>
                            ","","learn","0","0","0","learn","2","2","[0, 1, 2, 3, 4, 5, 6, 7, 8, 9]","26","8","setsize","3S10A","sports","1","0","8","0",""
"null","null","fixation","html-keyboard-response","183","327866","0.0-1.0-7.0-3.0-0.27","19:43:25","4","","","","","","","fixation","","","","","","","","","","","","","","","","","","",""
"1961","0","pic_response","html-keyboard-response","184","329828","0.0-1.0-7.0-3.0-1.27","19:43:25","4","","","","","","","<div>
            <img class='stim' src=""pictures/sports/2.jpg""></div><div class=""button_prompt"">
                    <b>请用数字键0-9回答</b>
                    </div>","","","","","","","","","","","","","","","","","","",""
"1961","null","sub_response","html-keyboard-response","185","330829","0.0-1.0-7.0-3.0-2.27","19:43:25","4","","","","","","","<div style='text-align: center;'>
                            <span style=""color: green; font-size: 40px""><b>正确！+1 pts</b></span></div>
                            ","","learn","2","2","2","learn","9","9","[0, 1, 2, 3, 4, 5, 6, 7, 8, 9]","27","9","setsize","3S10A","sports","1","1","9","1",""
"null","null","fixation","html-keyboard-response","186","331333","0.0-1.0-7.0-3.0-0.28","19:43:25","4","","","","","","","fixation","","","","","","","","","","","","","","","","","","",""
"1219","3","pic_response","html-keyboard-response","187","332552","0.0-1.0-7.0-3.0-1.28","19:43:25","4","","","","","","","<div>
            <img class='stim' src=""pictures/sports/0.jpg""></div><div class=""button_prompt"">
                    <b>请用数字键0-9回答</b>
                    </div>","","","","","","","","","","","","","","","","","","",""
"1219","null","sub_response","html-keyboard-response","188","333554","0.0-1.0-7.0-3.0-2.28","19:43:25","4","","","","","","","<div style='text-align: center;'>
                            <span style=""color: green; font-size: 40px""><b>正确！+1 pts</b></span></div>
                            ","","learn","0","0","0","learn","2","2","[0, 1, 2, 3, 4, 5, 6, 7, 8, 9]","28","9","setsize","3S10A","sports","1","2","2","1",""
"null","null","fixation","html-keyboard-response","189","334055","0.0-1.0-7.0-3.0-0.29","19:43:25","4","","","","","","","fixation","","","","","","","","","","","","","","","","","","",""
"523","4","pic_response","html-keyboard-response","190","334579","0.0-1.0-7.0-3.0-1.29","19:43:25","4","","","","","","","<div>
            <img class='stim' src=""pictures/sports/1.jpg""></div><div class=""button_prompt"">
                    <b>请用数字键0-9回答</b>
                    </div>","","","","","","","","","","","","","","","","","","",""
"523","null","sub_response","html-keyboard-response","191","335580","0.0-1.0-7.0-3.0-2.29","19:43:25","4","","","","","","","<div style='text-align: center;'>
                            <span style=""color: red; font-size: 40px""><b>错误！+0 pts</b></span></div>
                            ","","learn","1","1","1","learn","6","6","[0, 1, 2, 3, 4, 5, 6, 7, 8, 9]","29","9","setsize","3S10A","sports","1","0","3","0",""
"null","null","fixation","html-keyboard-response","192","336081","0.0-1.0-7.0-3.0-0.30","19:43:25","4","","","","","","","fixation","","","","","","","","","","","","","","","","","","",""
"1977","5","pic_response","html-keyboard-response","193","338058","0.0-1.0-7.0-3.0-1.30","19:43:25","4","","","","","","","<div>
            <img class='stim' src=""pictures/sports/1.jpg""></div><div class=""button_prompt"">
                    <b>请用数字键0-9回答</b>
                    </div>","","","","","","","","","","","","","","","","","","",""
"1977","null","sub_response","html-keyboard-response","194","339061","0.0-1.0-7.0-3.0-2.30","19:43:25","4","","","","","","","<div style='text-align: center;'>
                            <span style=""color: red; font-size: 40px""><b>错误！+0 pts</b></span></div>
                            ","","learn","1","1","1","learn","6","6","[0, 1, 2, 3, 4, 5, 6, 7, 8, 9]","30","10","setsize","3S10A","sports","1","0","4","0",""
"null","null","fixation","html-keyboard-response","195","339561","0.0-1.0-7.0-3.0-0.31","19:43:25","4","","","","","","","fixation","","","","","","","","","","","","","","","","","","",""
"938","0","pic_response","html-keyboard-response","196","340500","0.0-1.0-7.0-3.0-1.31","19:43:25","4","","","","","","","<div>
            <img class='stim' src=""pictures/sports/2.jpg""></div><div class=""button_prompt"">
                    <b>请用数字键0-9回答</b>
                    </div>","","","","","","","","","","","","","","","","","","",""
"938","null","sub_response","html-keyboard-response","197","341501","0.0-1.0-7.0-3.0-2.31","19:43:25","4","","","","","","","<div style='text-align: center;'>
                            <span style=""color: green; font-size: 40px""><b>正确！+1 pts</b></span></div>
                            ","","learn","2","2","2","learn","9","9","[0, 1, 2, 3, 4, 5, 6, 7, 8, 9]","31","10","setsize","3S10A","sports","1","1","9","1",""
"null","null","fixation","html-keyboard-response","198","342003","0.0-1.0-7.0-3.0-0.32","19:43:25","4","","","","","","","fixation","","","","","","","","","","","","","","","","","","",""
"2066","3","pic_response","html-keyboard-response","199","344069","0.0-1.0-7.0-3.0-1.32","19:43:25","4","","","","","","","<div>
            <img class='stim' src=""pictures/sports/0.jpg""></div><div class=""button_prompt"">
                    <b>请用数字键0-9回答</b>
                    </div>","","","","","","","","","","","","","","","","","","",""
"2066","null","sub_response","html-keyboard-response","200","345070","0.0-1.0-7.0-3.0-2.32","19:43:25","4","","","","","","","<div style='text-align: center;'>
                            <span style=""color: green; font-size: 40px""><b>正确！+1 pts</b></span></div>
                            ","","learn","0","0","0","learn","2","2","[0, 1, 2, 3, 4, 5, 6, 7, 8, 9]","32","10","setsize","3S10A","sports","1","2","2","1",""
"null","null","fixation","html-keyboard-response","201","345572","0.0-1.0-7.0-3.0-0.33","19:43:25","4","","","","","","","fixation","","","","","","","","","","","","","","","","","","",""
"852","0","pic_response","html-keyboard-response","202","346424","0.0-1.0-7.0-3.0-1.33","19:43:25","4","","","","","","","<div>
            <img class='stim' src=""pictures/sports/2.jpg""></div><div class=""button_prompt"">
                    <b>请用数字键0-9回答</b>
                    </div>","","","","","","","","","","","","","","","","","","",""
"852","null","sub_response","html-keyboard-response","203","347426","0.0-1.0-7.0-3.0-2.33","19:43:25","4","","","","","","","<div style='text-align: center;'>
                            <span style=""color: green; font-size: 40px""><b>正确！+1 pts</b></span></div>
                            ","","learn","2","2","2","learn","9","9","[0, 1, 2, 3, 4, 5, 6, 7, 8, 9]","33","11","setsize","3S10A","sports","1","3","9","1",""
"null","null","fixation","html-keyboard-response","204","347928","0.0-1.0-7.0-3.0-0.34","19:43:25","4","","","","","","","fixation","","","","","","","","","","","","","","","","","","",""
"369","6","pic_response","html-keyboard-response","205","348297","0.0-1.0-7.0-3.0-1.34","19:43:25","4","","","","","","","<div>
            <img class='stim' src=""pictures/sports/0.jpg""></div><div class=""button_prompt"">
                    <b>请用数字键0-9回答</b>
                    </div>","","","","","","","","","","","","","","","","","","",""
"369","null","sub_response","html-keyboard-response","206","349299","0.0-1.0-7.0-3.0-2.34","19:43:25","4","","","","","","","<div style='text-align: center;'>
                            <span style=""color: red; font-size: 40px""><b>错误！+0 pts</b></span></div>
                            ","","learn","0","0","0","learn","2","2","[0, 1, 2, 3, 4, 5, 6, 7, 8, 9]","34","11","setsize","3S10A","sports","1","0","5","0",""
"null","null","fixation","html-keyboard-response","207","349800","0.0-1.0-7.0-3.0-0.35","19:43:25","4","","","","","","","fixation","","","","","","","","","","","","","","","","","","",""
"2111","3","pic_response","html-keyboard-response","208","351911","0.0-1.0-7.0-3.0-1.35","19:43:25","4","","","","","","","<div>
            <img class='stim' src=""pictures/sports/1.jpg""></div><div class=""button_prompt"">
                    <b>请用数字键0-9回答</b>
                    </div>","","","","","","","","","","","","","","","","","","",""
"2111","null","sub_response","html-keyboard-response","209","352913","0.0-1.0-7.0-3.0-2.35","19:43:25","4","","","","","","","<div style='text-align: center;'>
                            <span style=""color: red; font-size: 40px""><b>错误！+0 pts</b></span></div>
                            ","","learn","1","1","1","learn","6","6","[0, 1, 2, 3, 4, 5, 6, 7, 8, 9]","35","11","setsize","3S10A","sports","1","0","2","0",""
"null","null","fixation","html-keyboard-response","210","353415","0.0-1.0-7.0-3.0-0.36","19:43:25","4","","","","","","","fixation","","","","","","","","","","","","","","","","","","",""
"1223","3","pic_response","html-keyboard-response","211","354638","0.0-1.0-7.0-3.0-1.36","19:43:25","4","","","","","","","<div>
            <img class='stim' src=""pictures/sports/0.jpg""></div><div class=""button_prompt"">
                    <b>请用数字键0-9回答</b>
                    </div>","","","","","","","","","","","","","","","","","","",""
"1223","null","sub_response","html-keyboard-response","212","355639","0.0-1.0-7.0-3.0-2.36","19:43:25","4","","","","","","","<div style='text-align: center;'>
                            <span style=""color: green; font-size: 40px""><b>正确！+1 pts</b></span></div>
                            ","","learn","0","0","0","learn","2","2","[0, 1, 2, 3, 4, 5, 6, 7, 8, 9]","36","12","setsize","3S10A","sports","1","1","2","1",""
"null","null","fixation","html-keyboard-response","213","356141","0.0-1.0-7.0-3.0-0.37","19:43:25","4","","","","","","","fixation","","","","","","","","","","","","","","","","","","",""
"578","1","pic_response","html-keyboard-response","214","356720","0.0-1.0-7.0-3.0-1.37","19:43:25","4","","","","","","","<div>
            <img class='stim' src=""pictures/sports/1.jpg""></div><div class=""button_prompt"">
                    <b>请用数字键0-9回答</b>
                    </div>","","","","","","","","","","","","","","","","","","",""
"578","null","sub_response","html-keyboard-response","215","357722","0.0-1.0-7.0-3.0-2.37","19:43:25","4","","","","","","","<div style='text-align: center;'>
                            <span style=""color: red; font-size: 40px""><b>错误！+0 pts</b></span></div>
                            ","","learn","1","1","1","learn","6","6","[0, 1, 2, 3, 4, 5, 6, 7, 8, 9]","37","12","setsize","3S10A","sports","1","0","0","0",""
"null","null","fixation","html-keyboard-response","216","358222","0.0-1.0-7.0-3.0-0.38","19:43:25","4","","","","","","","fixation","","","","","","","","","","","","","","","","","","",""
"698","0","pic_response","html-keyboard-response","217","358921","0.0-1.0-7.0-3.0-1.38","19:43:25","4","","","","","","","<div>
            <img class='stim' src=""pictures/sports/2.jpg""></div><div class=""button_prompt"">
                    <b>请用数字键0-9回答</b>
                    </div>","","","","","","","","","","","","","","","","","","",""
"698","null","sub_response","html-keyboard-response","218","359922","0.0-1.0-7.0-3.0-2.38","19:43:25","4","","","","","","","<div style='text-align: center;'>
                            <span style=""color: green; font-size: 40px""><b>正确！+1 pts</b></span></div>
                            ","","learn","2","2","2","learn","9","9","[0, 1, 2, 3, 4, 5, 6, 7, 8, 9]","38","12","setsize","3S10A","sports","1","1","9","1",""
"null","null","fixation","html-keyboard-response","219","360424","0.0-1.0-7.0-3.0-0.39","19:43:25","4","","","","","","","fixation","","","","","","","","","","","","","","","","","","",""
"585","2","pic_response","html-keyboard-response","220","361009","0.0-1.0-7.0-3.0-1.39","19:43:25","4","","","","","","","<div>
            <img class='stim' src=""pictures/sports/1.jpg""></div><div class=""button_prompt"">
                    <b>请用数字键0-9回答</b>
                    </div>","","","","","","","","","","","","","","","","","","",""
"585","null","sub_response","html-keyboard-response","221","362011","0.0-1.0-7.0-3.0-2.39","19:43:25","4","","","","","","","<div style='text-align: center;'>
                            <span style=""color: red; font-size: 40px""><b>错误！+0 pts</b></span></div>
                            ","","learn","1","1","1","learn","6","6","[0, 1, 2, 3, 4, 5, 6, 7, 8, 9]","39","13","setsize","3S10A","sports","1","0","1","0",""
"null","null","fixation","html-keyboard-response","222","362512","0.0-1.0-7.0-3.0-0.40","19:43:25","4","","","","","","","fixation","","","","","","","","","","","","","","","","","","",""
"1480","3","pic_response","html-keyboard-response","223","363993","0.0-1.0-7.0-3.0-1.40","19:43:25","4","","","","","","","<div>
            <img class='stim' src=""pictures/sports/0.jpg""></div><div class=""button_prompt"">
                    <b>请用数字键0-9回答</b>
                    </div>","","","","","","","","","","","","","","","","","","",""
"1480","null","sub_response","html-keyboard-response","224","364994","0.0-1.0-7.0-3.0-2.40","19:43:25","4","","","","","","","<div style='text-align: center;'>
                            <span style=""color: green; font-size: 40px""><b>正确！+1 pts</b></span></div>
                            ","","learn","0","0","0","learn","2","2","[0, 1, 2, 3, 4, 5, 6, 7, 8, 9]","40","13","setsize","3S10A","sports","1","1","2","1",""
"null","null","fixation","html-keyboard-response","225","365497","0.0-1.0-7.0-3.0-0.41","19:43:25","4","","","","","","","fixation","","","","","","","","","","","","","","","","","","",""
"1050","0","pic_response","html-keyboard-response","226","366547","0.0-1.0-7.0-3.0-1.41","19:43:25","4","","","","","","","<div>
            <img class='stim' src=""pictures/sports/2.jpg""></div><div class=""button_prompt"">
                    <b>请用数字键0-9回答</b>
                    </div>","","","","","","","","","","","","","","","","","","",""
"1050","null","sub_response","html-keyboard-response","227","367548","0.0-1.0-7.0-3.0-2.41","19:43:25","4","","","","","","","<div style='text-align: center;'>
                            <span style=""color: green; font-size: 40px""><b>正确！+1 pts</b></span></div>
                            ","","learn","2","2","2","learn","9","9","[0, 1, 2, 3, 4, 5, 6, 7, 8, 9]","41","13","setsize","3S10A","sports","1","2","9","1",""
"null","null","fixation","html-keyboard-response","228","368050","0.0-1.0-7.0-3.0-0.42","19:43:25","4","","","","","","","fixation","","","","","","","","","","","","","","","","","","",""
"474","5","pic_response","html-keyboard-response","229","368524","0.0-1.0-7.0-3.0-1.42","19:43:25","4","","","","","","","<div>
            <img class='stim' src=""pictures/sports/1.jpg""></div><div class=""button_prompt"">
                    <b>请用数字键0-9回答</b>
                    </div>","","","","","","","","","","","","","","","","","","",""
"474","null","sub_response","html-keyboard-response","230","369526","0.0-1.0-7.0-3.0-2.42","19:43:25","4","","","","","","","<div style='text-align: center;'>
                            <span style=""color: red; font-size: 40px""><b>错误！+0 pts</b></span></div>
                            ","","learn","1","1","1","learn","6","6","[0, 1, 2, 3, 4, 5, 6, 7, 8, 9]","42","14","setsize","3S10A","sports","1","0","4","0",""
"null","null","fixation","html-keyboard-response","231","370027","0.0-1.0-7.0-3.0-0.43","19:43:25","4","","","","","","","fixation","","","","","","","","","","","","","","","","","","",""
"null","null","pic_response","html-keyboard-response","232","373029","0.0-1.0-7.0-3.0-1.43","19:43:25","4","","","","","","","<div>
            <img class='stim' src=""pictures/sports/0.jpg""></div><div class=""button_prompt"">
                    <b>请用数字键0-9回答</b>
                    </div>","","","","","","","","","","","","","","","","","","",""
"null","null","sub_response","html-keyboard-response","233","374031","0.0-1.0-7.0-3.0-2.43","19:43:25","4","","","","","","","<div style='text-align: center;'>
                            <span style=""color: red; font-size: 40px""><b>错误！+0 pts</b></span></div>
                            ","","learn","0","0","0","learn","2","2","[0, 1, 2, 3, 4, 5, 6, 7, 8, 9]","43","14","setsize","3S10A","sports","1","0","999","0",""
"null","null","fixation","html-keyboard-response","234","374532","0.0-1.0-7.0-3.0-0.44","19:43:25","4","","","","","","","fixation","","","","","","","","","","","","","","","","","","",""
"618","0","pic_response","html-keyboard-response","235","375151","0.0-1.0-7.0-3.0-1.44","19:43:25","4","","","","","","","<div>
            <img class='stim' src=""pictures/sports/2.jpg""></div><div class=""button_prompt"">
                    <b>请用数字键0-9回答</b>
                    </div>","","","","","","","","","","","","","","","","","","",""
"618","null","sub_response","html-keyboard-response","236","376153","0.0-1.0-7.0-3.0-2.44","19:43:25","4","","","","","","","<div style='text-align: center;'>
                            <span style=""color: green; font-size: 40px""><b>正确！+1 pts</b></span></div>
                            ","","learn","2","2","2","learn","9","9","[0, 1, 2, 3, 4, 5, 6, 7, 8, 9]","44","14","setsize","3S10A","sports","1","1","9","1",""
"null","null","fixation","html-keyboard-response","237","376654","0.0-1.0-7.0-3.0-0.45","19:43:25","4","","","","","","","fixation","","","","","","","","","","","","","","","","","","",""
"1238","0","pic_response","html-keyboard-response","238","377893","0.0-1.0-7.0-3.0-1.45","19:43:25","4","","","","","","","<div>
            <img class='stim' src=""pictures/sports/2.jpg""></div><div class=""button_prompt"">
                    <b>请用数字键0-9回答</b>
                    </div>","","","","","","","","","","","","","","","","","","",""
"1238","null","sub_response","html-keyboard-response","239","378894","0.0-1.0-7.0-3.0-2.45","19:43:25","4","","","","","","","<div style='text-align: center;'>
                            <span style=""color: green; font-size: 40px""><b>正确！+1 pts</b></span></div>
                            ","","learn","2","2","2","learn","9","9","[0, 1, 2, 3, 4, 5, 6, 7, 8, 9]","45","15","setsize","3S10A","sports","1","2","9","1",""
"null","null","fixation","html-keyboard-response","240","379395","0.0-1.0-7.0-3.0-0.46","19:43:25","4","","","","","","","fixation","","","","","","","","","","","","","","","","","","",""
"508","0","pic_response","html-keyboard-response","241","379904","0.0-1.0-7.0-3.0-1.46","19:43:25","4","","","","","","","<div>
            <img class='stim' src=""pictures/sports/1.jpg""></div><div class=""button_prompt"">
                    <b>请用数字键0-9回答</b>
                    </div>","","","","","","","","","","","","","","","","","","",""
"508","null","sub_response","html-keyboard-response","242","380905","0.0-1.0-7.0-3.0-2.46","19:43:25","4","","","","","","","<div style='text-align: center;'>
                            <span style=""color: red; font-size: 40px""><b>错误！+0 pts</b></span></div>
                            ","","learn","1","1","1","learn","6","6","[0, 1, 2, 3, 4, 5, 6, 7, 8, 9]","46","15","setsize","3S10A","sports","1","0","9","0",""
"null","null","fixation","html-keyboard-response","243","381407","0.0-1.0-7.0-3.0-0.47","19:43:25","4","","","","","","","fixation","","","","","","","","","","","","","","","","","","",""
"785","3","pic_response","html-keyboard-response","244","382193","0.0-1.0-7.0-3.0-1.47","19:43:25","4","","","","","","","<div>
            <img class='stim' src=""pictures/sports/0.jpg""></div><div class=""button_prompt"">
                    <b>请用数字键0-9回答</b>
                    </div>","","","","","","","","","","","","","","","","","","",""
"785","null","sub_response","html-keyboard-response","245","383193","0.0-1.0-7.0-3.0-2.47","19:43:25","4","","","","","","","<div style='text-align: center;'>
                            <span style=""color: green; font-size: 40px""><b>正确！+1 pts</b></span></div>
                            ","","learn","0","0","0","learn","2","2","[0, 1, 2, 3, 4, 5, 6, 7, 8, 9]","47","15","setsize","3S10A","sports","1","1","2","1",""
"null","null","fixation","html-keyboard-response","246","383694","0.0-1.0-7.0-3.0-0.48","19:43:25","4","","","","","","","fixation","","","","","","","","","","","","","","","","","","",""
"435","9","pic_response","html-keyboard-response","247","384129","0.0-1.0-7.0-3.0-1.48","19:43:25","4","","","","","","","<div>
            <img class='stim' src=""pictures/sports/1.jpg""></div><div class=""button_prompt"">
                    <b>请用数字键0-9回答</b>
                    </div>","","","","","","","","","","","","","","","","","","",""
"435","null","sub_response","html-keyboard-response","248","385131","0.0-1.0-7.0-3.0-2.48","19:43:25","4","","","","","","","<div style='text-align: center;'>
                            <span style=""color: red; font-size: 40px""><b>错误！+0 pts</b></span></div>
                            ","","learn","1","1","1","learn","6","6","[0, 1, 2, 3, 4, 5, 6, 7, 8, 9]","48","16","setsize","3S10A","sports","1","0","8","0",""
"null","null","fixation","html-keyboard-response","249","385632","0.0-1.0-7.0-3.0-0.49","19:43:25","4","","","","","","","fixation","","","","","","","","","","","","","","","","","","",""
"1538","0","pic_response","html-keyboard-response","250","387171","0.0-1.0-7.0-3.0-1.49","19:43:25","4","","","","","","","<div>
            <img class='stim' src=""pictures/sports/2.jpg""></div><div class=""button_prompt"">
                    <b>请用数字键0-9回答</b>
                    </div>","","","","","","","","","","","","","","","","","","",""
"1538","null","sub_response","html-keyboard-response","251","388172","0.0-1.0-7.0-3.0-2.49","19:43:25","4","","","","","","","<div style='text-align: center;'>
                            <span style=""color: green; font-size: 40px""><b>正确！+1 pts</b></span></div>
                            ","","learn","2","2","2","learn","9","9","[0, 1, 2, 3, 4, 5, 6, 7, 8, 9]","49","16","setsize","3S10A","sports","1","1","9","1",""
"null","null","fixation","html-keyboard-response","252","388674","0.0-1.0-7.0-3.0-0.50","19:43:25","4","","","","","","","fixation","","","","","","","","","","","","","","","","","","",""
"574","2","pic_response","html-keyboard-response","253","389248","0.0-1.0-7.0-3.0-1.50","19:43:25","4","","","","","","","<div>
            <img class='stim' src=""pictures/sports/0.jpg""></div><div class=""button_prompt"">
                    <b>请用数字键0-9回答</b>
                    </div>","","","","","","","","","","","","","","","","","","",""
"574","null","sub_response","html-keyboard-response","254","390249","0.0-1.0-7.0-3.0-2.50","19:43:25","4","","","","","","","<div style='text-align: center;'>
                            <span style=""color: red; font-size: 40px""><b>错误！+0 pts</b></span></div>
                            ","","learn","0","0","0","learn","2","2","[0, 1, 2, 3, 4, 5, 6, 7, 8, 9]","50","16","setsize","3S10A","sports","1","0","1","0",""
"null","null","fixation","html-keyboard-response","255","390751","0.0-1.0-7.0-3.0-0.51","19:43:25","4","","","","","","","fixation","","","","","","","","","","","","","","","","","","",""
"809","2","pic_response","html-keyboard-response","256","391561","0.0-1.0-7.0-3.0-1.51","19:43:25","4","","","","","","","<div>
            <img class='stim' src=""pictures/sports/1.jpg""></div><div class=""button_prompt"">
                    <b>请用数字键0-9回答</b>
                    </div>","","","","","","","","","","","","","","","","","","",""
"809","null","sub_response","html-keyboard-response","257","392561","0.0-1.0-7.0-3.0-2.51","19:43:25","4","","","","","","","<div style='text-align: center;'>
                            <span style=""color: red; font-size: 40px""><b>错误！+0 pts</b></span></div>
                            ","","learn","1","1","1","learn","6","6","[0, 1, 2, 3, 4, 5, 6, 7, 8, 9]","51","17","setsize","3S10A","sports","1","0","1","0",""
"null","null","fixation","html-keyboard-response","258","393062","0.0-1.0-7.0-3.0-0.52","19:43:25","4","","","","","","","fixation","","","","","","","","","","","","","","","","","","",""
"1853","0","pic_response","html-keyboard-response","259","394916","0.0-1.0-7.0-3.0-1.52","19:43:25","4","","","","","","","<div>
            <img class='stim' src=""pictures/sports/2.jpg""></div><div class=""button_prompt"">
                    <b>请用数字键0-9回答</b>
                    </div>","","","","","","","","","","","","","","","","","","",""
"1853","null","sub_response","html-keyboard-response","260","395917","0.0-1.0-7.0-3.0-2.52","19:43:25","4","","","","","","","<div style='text-align: center;'>
                            <span style=""color: green; font-size: 40px""><b>正确！+1 pts</b></span></div>
                            ","","learn","2","2","2","learn","9","9","[0, 1, 2, 3, 4, 5, 6, 7, 8, 9]","52","17","setsize","3S10A","sports","1","1","9","1",""
"null","null","fixation","html-keyboard-response","261","396419","0.0-1.0-7.0-3.0-0.53","19:43:25","4","","","","","","","fixation","","","","","","","","","","","","","","","","","","",""
"576","3","pic_response","html-keyboard-response","262","396996","0.0-1.0-7.0-3.0-1.53","19:43:25","4","","","","","","","<div>
            <img class='stim' src=""pictures/sports/0.jpg""></div><div class=""button_prompt"">
                    <b>请用数字键0-9回答</b>
                    </div>","","","","","","","","","","","","","","","","","","",""
"576","null","sub_response","html-keyboard-response","263","397997","0.0-1.0-7.0-3.0-2.53","19:43:25","4","","","","","","","<div style='text-align: center;'>
                            <span style=""color: green; font-size: 40px""><b>正确！+1 pts</b></span></div>
                            ","","learn","0","0","0","learn","2","2","[0, 1, 2, 3, 4, 5, 6, 7, 8, 9]","53","17","setsize","3S10A","sports","1","2","2","1",""
"null","null","fixation","html-keyboard-response","264","398499","0.0-1.0-7.0-3.0-0.54","19:43:25","4","","","","","","","fixation","","","","","","","","","","","","","","","","","","",""
"926","7","pic_response","html-keyboard-response","265","399426","0.0-1.0-7.0-3.0-1.54","19:43:25","4","","","","","","","<div>
            <img class='stim' src=""pictures/sports/2.jpg""></div><div class=""button_prompt"">
                    <b>请用数字键0-9回答</b>
                    </div>","","","","","","","","","","","","","","","","","","",""
"926","null","sub_response","html-keyboard-response","266","400426","0.0-1.0-7.0-3.0-2.54","19:43:25","4","","","","","","","<div style='text-align: center;'>
                            <span style=""color: red; font-size: 40px""><b>错误！+0 pts</b></span></div>
                            ","","learn","2","2","2","learn","9","9","[0, 1, 2, 3, 4, 5, 6, 7, 8, 9]","54","18","setsize","3S10A","sports","1","0","6","0",""
"null","null","fixation","html-keyboard-response","267","400928","0.0-1.0-7.0-3.0-0.55","19:43:25","4","","","","","","","fixation","","","","","","","","","","","","","","","","","","",""
"1106","3","pic_response","html-keyboard-response","268","402034","0.0-1.0-7.0-3.0-1.55","19:43:25","4","","","","","","","<div>
            <img class='stim' src=""pictures/sports/0.jpg""></div><div class=""button_prompt"">
                    <b>请用数字键0-9回答</b>
                    </div>","","","","","","","","","","","","","","","","","","",""
"1106","null","sub_response","html-keyboard-response","269","403038","0.0-1.0-7.0-3.0-2.55","19:43:25","4","","","","","","","<div style='text-align: center;'>
                            <span style=""color: green; font-size: 40px""><b>正确！+1 pts</b></span></div>
                            ","","learn","0","0","0","learn","2","2","[0, 1, 2, 3, 4, 5, 6, 7, 8, 9]","55","18","setsize","3S10A","sports","1","1","2","1",""
"null","null","fixation","html-keyboard-response","270","403539","0.0-1.0-7.0-3.0-0.56","19:43:25","4","","","","","","","fixation","","","","","","","","","","","","","","","","","","",""
"1077","8","pic_response","html-keyboard-response","271","404617","0.0-1.0-7.0-3.0-1.56","19:43:25","4","","","","","","","<div>
            <img class='stim' src=""pictures/sports/1.jpg""></div><div class=""button_prompt"">
                    <b>请用数字键0-9回答</b>
                    </div>","","","","","","","","","","","","","","","","","","",""
"1077","null","sub_response","html-keyboard-response","272","405619","0.0-1.0-7.0-3.0-2.56","19:43:25","4","","","","","","","<div style='text-align: center;'>
                            <span style=""color: red; font-size: 40px""><b>错误！+0 pts</b></span></div>
                            ","","learn","1","1","1","learn","6","6","[0, 1, 2, 3, 4, 5, 6, 7, 8, 9]","56","18","setsize","3S10A","sports","1","0","7","0",""
"null","null","fixation","html-keyboard-response","273","406120","0.0-1.0-7.0-3.0-0.57","19:43:25","4","","","","","","","fixation","","","","","","","","","","","","","","","","","","",""
"1531","0","pic_response","html-keyboard-response","274","407652","0.0-1.0-7.0-3.0-1.57","19:43:25","4","","","","","","","<div>
            <img class='stim' src=""pictures/sports/2.jpg""></div><div class=""button_prompt"">
                    <b>请用数字键0-9回答</b>
                    </div>","","","","","","","","","","","","","","","","","","",""
"1531","null","sub_response","html-keyboard-response","275","408653","0.0-1.0-7.0-3.0-2.57","19:43:25","4","","","","","","","<div style='text-align: center;'>
                            <span style=""color: green; font-size: 40px""><b>正确！+1 pts</b></span></div>
                            ","","learn","2","2","2","learn","9","9","[0, 1, 2, 3, 4, 5, 6, 7, 8, 9]","57","19","setsize","3S10A","sports","1","1","9","1",""
"null","null","fixation","html-keyboard-response","276","409153","0.0-1.0-7.0-3.0-0.58","19:43:25","4","","","","","","","fixation","","","","","","","","","","","","","","","","","","",""
"660","1","pic_response","html-keyboard-response","277","409814","0.0-1.0-7.0-3.0-1.58","19:43:25","4","","","","","","","<div>
            <img class='stim' src=""pictures/sports/1.jpg""></div><div class=""button_prompt"">
                    <b>请用数字键0-9回答</b>
                    </div>","","","","","","","","","","","","","","","","","","",""
"660","null","sub_response","html-keyboard-response","278","410816","0.0-1.0-7.0-3.0-2.58","19:43:25","4","","","","","","","<div style='text-align: center;'>
                            <span style=""color: red; font-size: 40px""><b>错误！+0 pts</b></span></div>
                            ","","learn","1","1","1","learn","6","6","[0, 1, 2, 3, 4, 5, 6, 7, 8, 9]","58","19","setsize","3S10A","sports","1","0","0","0",""
"null","null","fixation","html-keyboard-response","279","411317","0.0-1.0-7.0-3.0-0.59","19:43:25","4","","","","","","","fixation","","","","","","","","","","","","","","","","","","",""
"717","3","pic_response","html-keyboard-response","280","412035","0.0-1.0-7.0-3.0-1.59","19:43:25","4","","","","","","","<div>
            <img class='stim' src=""pictures/sports/0.jpg""></div><div class=""button_prompt"">
                    <b>请用数字键0-9回答</b>
                    </div>","","","","","","","","","","","","","","","","","","",""
"717","null","sub_response","html-keyboard-response","281","413036","0.0-1.0-7.0-3.0-2.59","19:43:25","4","","","","","","","<div style='text-align: center;'>
                            <span style=""color: green; font-size: 40px""><b>正确！+1 pts</b></span></div>
                            ","","learn","0","0","0","learn","2","2","[0, 1, 2, 3, 4, 5, 6, 7, 8, 9]","59","19","setsize","3S10A","sports","1","1","2","1",""
"null","null","fixation","html-keyboard-response","282","413538","0.0-1.0-7.0-3.0-0.60","19:43:25","4","","","","","","","fixation","","","","","","","","","","","","","","","","","","",""
"1559","2","pic_response","html-keyboard-response","283","415098","0.0-1.0-7.0-3.0-1.60","19:43:25","4","","","","","","","<div>
            <img class='stim' src=""pictures/sports/2.jpg""></div><div class=""button_prompt"">
                    <b>请用数字键0-9回答</b>
                    </div>","","","","","","","","","","","","","","","","","","",""
"1559","null","sub_response","html-keyboard-response","284","416099","0.0-1.0-7.0-3.0-2.60","19:43:25","4","","","","","","","<div style='text-align: center;'>
                            <span style=""color: red; font-size: 40px""><b>错误！+0 pts</b></span></div>
                            ","","learn","2","2","2","learn","9","9","[0, 1, 2, 3, 4, 5, 6, 7, 8, 9]","60","20","setsize","3S10A","sports","1","0","1","0",""
"null","null","fixation","html-keyboard-response","285","416600","0.0-1.0-7.0-3.0-0.61","19:43:25","4","","","","","","","fixation","","","","","","","","","","","","","","","","","","",""
"1387","2","pic_response","html-keyboard-response","286","417988","0.0-1.0-7.0-3.0-1.61","19:43:25","4","","","","","","","<div>
            <img class='stim' src=""pictures/sports/1.jpg""></div><div class=""button_prompt"">
                    <b>请用数字键0-9回答</b>
                    </div>","","","","","","","","","","","","","","","","","","",""
"1387","null","sub_response","html-keyboard-response","287","418990","0.0-1.0-7.0-3.0-2.61","19:43:25","4","","","","","","","<div style='text-align: center;'>
                            <span style=""color: red; font-size: 40px""><b>错误！+0 pts</b></span></div>
                            ","","learn","1","1","1","learn","6","6","[0, 1, 2, 3, 4, 5, 6, 7, 8, 9]","61","20","setsize","3S10A","sports","1","0","1","0",""
"null","null","fixation","html-keyboard-response","288","419492","0.0-1.0-7.0-3.0-0.62","19:43:25","4","","","","","","","fixation","","","","","","","","","","","","","","","","","","",""
"1665","3","pic_response","html-keyboard-response","289","421157","0.0-1.0-7.0-3.0-1.62","19:43:25","4","","","","","","","<div>
            <img class='stim' src=""pictures/sports/0.jpg""></div><div class=""button_prompt"">
                    <b>请用数字键0-9回答</b>
                    </div>","","","","","","","","","","","","","","","","","","",""
"1665","null","sub_response","html-keyboard-response","290","422159","0.0-1.0-7.0-3.0-2.62","19:43:25","4","","","","","","","<div style='text-align: center;'>
                            <span style=""color: green; font-size: 40px""><b>正确！+1 pts</b></span></div>
                            ","","learn","0","0","0","learn","2","2","[0, 1, 2, 3, 4, 5, 6, 7, 8, 9]","62","20","setsize","3S10A","sports","1","1","2","1",""
"null","null","fixation","html-keyboard-response","291","422661","0.0-1.0-7.0-3.0-0.63","19:43:25","4","","","","","","","fixation","","","","","","","","","","","","","","","","","","",""
"533","3","pic_response","html-keyboard-response","292","423195","0.0-1.0-7.0-3.0-1.63","19:43:25","4","","","","","","","<div>
            <img class='stim' src=""pictures/sports/1.jpg""></div><div class=""button_prompt"">
                    <b>请用数字键0-9回答</b>
                    </div>","","","","","","","","","","","","","","","","","","",""
"533","null","sub_response","html-keyboard-response","293","424197","0.0-1.0-7.0-3.0-2.63","19:43:25","4","","","","","","","<div style='text-align: center;'>
                            <span style=""color: red; font-size: 40px""><b>错误！+0 pts</b></span></div>
                            ","","learn","1","1","1","learn","6","6","[0, 1, 2, 3, 4, 5, 6, 7, 8, 9]","63","21","setsize","3S10A","sports","1","0","2","0",""
"null","null","fixation","html-keyboard-response","294","424698","0.0-1.0-7.0-3.0-0.64","19:43:25","4","","","","","","","fixation","","","","","","","","","","","","","","","","","","",""
"1455","0","pic_response","html-keyboard-response","295","426153","0.0-1.0-7.0-3.0-1.64","19:43:25","4","","","","","","","<div>
            <img class='stim' src=""pictures/sports/2.jpg""></div><div class=""button_prompt"">
                    <b>请用数字键0-9回答</b>
                    </div>","","","","","","","","","","","","","","","","","","",""
"1455","null","sub_response","html-keyboard-response","296","427155","0.0-1.0-7.0-3.0-2.64","19:43:25","4","","","","","","","<div style='text-align: center;'>
                            <span style=""color: green; font-size: 40px""><b>正确！+1 pts</b></span></div>
                            ","","learn","2","2","2","learn","9","9","[0, 1, 2, 3, 4, 5, 6, 7, 8, 9]","64","21","setsize","3S10A","sports","1","1","9","1",""
"null","null","fixation","html-keyboard-response","297","427657","0.0-1.0-7.0-3.0-0.65","19:43:25","4","","","","","","","fixation","","","","","","","","","","","","","","","","","","",""
"768","4","pic_response","html-keyboard-response","298","428426","0.0-1.0-7.0-3.0-1.65","19:43:25","4","","","","","","","<div>
            <img class='stim' src=""pictures/sports/0.jpg""></div><div class=""button_prompt"">
                    <b>请用数字键0-9回答</b>
                    </div>","","","","","","","","","","","","","","","","","","",""
"768","null","sub_response","html-keyboard-response","299","429427","0.0-1.0-7.0-3.0-2.65","19:43:25","4","","","","","","","<div style='text-align: center;'>
                            <span style=""color: red; font-size: 40px""><b>错误！+0 pts</b></span></div>
                            ","","learn","0","0","0","learn","2","2","[0, 1, 2, 3, 4, 5, 6, 7, 8, 9]","65","21","setsize","3S10A","sports","1","0","3","0",""
"null","null","fixation","html-keyboard-response","300","429928","0.0-1.0-7.0-3.0-0.66","19:43:25","4","","","","","","","fixation","","","","","","","","","","","","","","","","","","",""
"898","3","pic_response","html-keyboard-response","301","430827","0.0-1.0-7.0-3.0-1.66","19:43:25","4","","","","","","","<div>
            <img class='stim' src=""pictures/sports/0.jpg""></div><div class=""button_prompt"">
                    <b>请用数字键0-9回答</b>
                    </div>","","","","","","","","","","","","","","","","","","",""
"898","null","sub_response","html-keyboard-response","302","431827","0.0-1.0-7.0-3.0-2.66","19:43:25","4","","","","","","","<div style='text-align: center;'>
                            <span style=""color: green; font-size: 40px""><b>正确！+1 pts</b></span></div>
                            ","","learn","0","0","0","learn","2","2","[0, 1, 2, 3, 4, 5, 6, 7, 8, 9]","66","22","setsize","3S10A","sports","1","1","2","1",""
"null","null","fixation","html-keyboard-response","303","432329","0.0-1.0-7.0-3.0-0.67","19:43:25","4","","","","","","","fixation","","","","","","","","","","","","","","","","","","",""
"1763","8","pic_response","html-keyboard-response","304","434092","0.0-1.0-7.0-3.0-1.67","19:43:25","4","","","","","","","<div>
            <img class='stim' src=""pictures/sports/1.jpg""></div><div class=""button_prompt"">
                    <b>请用数字键0-9回答</b>
                    </div>","","","","","","","","","","","","","","","","","","",""
"1763","null","sub_response","html-keyboard-response","305","435093","0.0-1.0-7.0-3.0-2.67","19:43:25","4","","","","","","","<div style='text-align: center;'>
                            <span style=""color: red; font-size: 40px""><b>错误！+0 pts</b></span></div>
                            ","","learn","1","1","1","learn","6","6","[0, 1, 2, 3, 4, 5, 6, 7, 8, 9]","67","22","setsize","3S10A","sports","1","0","7","0",""
"null","null","fixation","html-keyboard-response","306","435594","0.0-1.0-7.0-3.0-0.68","19:43:25","4","","","","","","","fixation","","","","","","","","","","","","","","","","","","",""
"868","0","pic_response","html-keyboard-response","307","436463","0.0-1.0-7.0-3.0-1.68","19:43:25","4","","","","","","","<div>
            <img class='stim' src=""pictures/sports/2.jpg""></div><div class=""button_prompt"">
                    <b>请用数字键0-9回答</b>
                    </div>","","","","","","","","","","","","","","","","","","",""
"868","null","sub_response","html-keyboard-response","308","437465","0.0-1.0-7.0-3.0-2.68","19:43:25","4","","","","","","","<div style='text-align: center;'>
                            <span style=""color: green; font-size: 40px""><b>正确！+1 pts</b></span></div>
                            ","","learn","2","2","2","learn","9","9","[0, 1, 2, 3, 4, 5, 6, 7, 8, 9]","68","22","setsize","3S10A","sports","1","1","9","1",""
"null","null","fixation","html-keyboard-response","309","437966","0.0-1.0-7.0-3.0-0.69","19:43:25","4","","","","","","","fixation","","","","","","","","","","","","","","","","","","",""
"924","0","pic_response","html-keyboard-response","310","438892","0.0-1.0-7.0-3.0-1.69","19:43:25","4","","","","","","","<div>
            <img class='stim' src=""pictures/sports/2.jpg""></div><div class=""button_prompt"">
                    <b>请用数字键0-9回答</b>
                    </div>","","","","","","","","","","","","","","","","","","",""
"924","null","sub_response","html-keyboard-response","311","439893","0.0-1.0-7.0-3.0-2.69","19:43:25","4","","","","","","","<div style='text-align: center;'>
                            <span style=""color: green; font-size: 40px""><b>正确！+1 pts</b></span></div>
                            ","","learn","2","2","2","learn","9","9","[0, 1, 2, 3, 4, 5, 6, 7, 8, 9]","69","23","setsize","3S10A","sports","1","2","9","1",""
"null","null","fixation","html-keyboard-response","312","440394","0.0-1.0-7.0-3.0-0.70","19:43:25","4","","","","","","","fixation","","","","","","","","","","","","","","","","","","",""
"813","0","pic_response","html-keyboard-response","313","441208","0.0-1.0-7.0-3.0-1.70","19:43:25","4","","","","","","","<div>
            <img class='stim' src=""pictures/sports/1.jpg""></div><div class=""button_prompt"">
                    <b>请用数字键0-9回答</b>
                    </div>","","","","","","","","","","","","","","","","","","",""
"813","null","sub_response","html-keyboard-response","314","442210","0.0-1.0-7.0-3.0-2.70","19:43:25","4","","","","","","","<div style='text-align: center;'>
                            <span style=""color: red; font-size: 40px""><b>错误！+0 pts</b></span></div>
                            ","","learn","1","1","1","learn","6","6","[0, 1, 2, 3, 4, 5, 6, 7, 8, 9]","70","23","setsize","3S10A","sports","1","0","9","0",""
"null","null","fixation","html-keyboard-response","315","442711","0.0-1.0-7.0-3.0-0.71","19:43:25","4","","","","","","","fixation","","","","","","","","","","","","","","","","","","",""
"786","3","pic_response","html-keyboard-response","316","443498","0.0-1.0-7.0-3.0-1.71","19:43:25","4","","","","","","","<div>
            <img class='stim' src=""pictures/sports/0.jpg""></div><div class=""button_prompt"">
                    <b>请用数字键0-9回答</b>
                    </div>","","","","","","","","","","","","","","","","","","",""
"786","null","sub_response","html-keyboard-response","317","444498","0.0-1.0-7.0-3.0-2.71","19:43:25","4","","","","","","","<div style='text-align: center;'>
                            <span style=""color: green; font-size: 40px""><b>正确！+1 pts</b></span></div>
                            ","","learn","0","0","0","learn","2","2","[0, 1, 2, 3, 4, 5, 6, 7, 8, 9]","71","23","setsize","3S10A","sports","1","1","2","1",""
"null","null","fixation","html-keyboard-response","318","445011","0.0-1.0-7.0-3.0-0.72","19:43:25","4","","","","","","","fixation","","","","","","","","","","","","","","","","","","",""
