"rt","response","screen_id","trial_type","trial_index","time_elapsed","internal_node_id","start_time","n_Prac","success","timeout","failed_images","failed_audio","failed_video","view_history","stimulus","question_order","stage","s","word","word_id","phase","a_cor","a_real","a_ava","trial","tps","task_type","block_typ","pic_typ","block_id","cum_r","a","r","plugin_name"
"35158","{""sub_id"":""13367659018"",""task_type"":""task1"",""name"":""健婷"",""gender"":""F""}","basic_info","survey-html-form","0","35168","0.0-0.0","10:38:34","2","","","","","","","","","","","","","","","","","","","","","","","","","",""
"","","","preload","1","48866","0.0-1.0-0.0","10:38:34","2","true","false","[]","[]","[]","","","","","","","","","","","","","","","","","","","","",""
"","","","preload","2","51605","0.0-1.0-1.0","10:38:34","2","true","false","[]","[]","[]","","","","","","","","","","","","","","","","","","","","",""
"","","","fullscreen","3","54728","0.0-1.0-2.0","10:38:34","2","true","","","","","","","","","","","","","","","","","","","","","","","","",""
"45301","","instruct","instructions","4","100031","0.0-1.0-3.0-0.0","10:38:34","2","","","","","","[{""page_index"":0,""viewing_time"":8956},{""page_index"":1,""viewing_time"":4656},{""page_index"":2,""viewing_time"":31688}]","","","","","","","","","","","","","","","","","","","",""
"25215","{""Q0"":"""",""task1"":""<span style='font-size: 24px'>学习图片和数字的对应关系</span>"",""task2"":""<span style='font-size: 24px'> 图片下方标注为可用的数字键（数字键1-3或0-9） </span>"",""task3"":""<span style='font-size: 24px'> 看到图片选出正确对应的数字 </span>""}","question","survey-multi-choice","5","125247","0.0-1.0-3.0-1.0","10:38:34","2","","","","","","","","[0,1,2,3]","","","","","","","","","","","","","","","","","",""
"5640"," ","inst_q","html-keyboard-response","6","130892","0.0-1.0-3.0-2.0","10:38:34","2","","","","","","","inst","","1","","","","","","","","","","","","","","","","",""
"","","","preload","7","131375","0.0-1.0-4.0-0.0","10:38:34","2","true","false","[]","[]","[]","","","","","","","","","","","","","","","","","","","","",""
"3951"," ","","html-keyboard-response","8","135329","0.0-1.0-4.0-1.0","10:38:34","2","","","","","","","<div style='font-size: 32px; text-align: center;'
                    <p>请学习图片和数字之间的对应关系</p>
                    <p>我们将<span style='color: blue'><b> 告诉 </b></span>您选择的对错。请根据反馈学习。</p>
                    <p>请按""空格""继续实验。</p></div>","","","","","","","","","","","","","","","","","","",""
"22181"," ","inst","html-keyboard-response","9","157513","0.0-1.0-4.0-2.0","10:38:34","2","","","","","","","<img class='instruct_stim' src=""instruction/prac3.PNG""></div>","","","","","","","","","","","","","","","","","","",""
"null","null","fixation","html-keyboard-response","10","158018","0.0-1.0-4.0-3.0-0.0","10:38:34","2","","","","","","","fixation","","","","","","","","","","","","","","","","","","",""
"1984","1","pic_response","html-keyboard-response","11","160007","0.0-1.0-4.0-3.0-1.0","10:38:34","2","","","","","","","<div>
            <img class='stim' src=""pictures/prac/1.jpg""></div><div class=""button_prompt"">
                        <b>请用数字键1-3回答</b>
                        </div>","","","","","","","","","","","","","","","","","","",""
"1984","null","sub_response","html-keyboard-response","12","161010","0.0-1.0-4.0-3.0-2.0","10:38:34","2","","","","","","","<div style='text-align: center;'>
                            <span style=""color: green; font-size: 40px""><b>正确！+1 pts</b></span></div>
                            ","","learn","1","1","1","learn","0","0","[0, 1, 2]","0","0","setsize","99","prac","0","1","0","1",""
"null","null","fixation","html-keyboard-response","13","161515","0.0-1.0-4.0-3.0-0.1","10:38:34","2","","","","","","","fixation","","","","","","","","","","","","","","","","","","",""
"1033","2","pic_response","html-keyboard-response","14","162550","0.0-1.0-4.0-3.0-1.1","10:38:34","2","","","","","","","<div>
            <img class='stim' src=""pictures/prac/2.jpg""></div><div class=""button_prompt"">
                        <b>请用数字键1-3回答</b>
                        </div>","","","","","","","","","","","","","","","","","","",""
"1033","null","sub_response","html-keyboard-response","15","163553","0.0-1.0-4.0-3.0-2.1","10:38:34","2","","","","","","","<div style='text-align: center;'>
                            <span style=""color: red; font-size: 40px""><b>错误！+0 pts</b></span></div>
                            ","","learn","2","2","2","learn","2","2","[0, 1, 2]","1","0","setsize","99","prac","0","0","1","0",""
"null","null","fixation","html-keyboard-response","16","164055","0.0-1.0-4.0-3.0-0.2","10:38:34","2","","","","","","","fixation","","","","","","","","","","","","","","","","","","",""
"333","3","pic_response","html-keyboard-response","17","164391","0.0-1.0-4.0-3.0-1.2","10:38:34","2","","","","","","","<div>
            <img class='stim' src=""pictures/prac/0.jpg""></div><div class=""button_prompt"">
                        <b>请用数字键1-3回答</b>
                        </div>","","","","","","","","","","","","","","","","","","",""
"333","null","sub_response","html-keyboard-response","18","165394","0.0-1.0-4.0-3.0-2.2","10:38:34","2","","","","","","","<div style='text-align: center;'>
                            <span style=""color: red; font-size: 40px""><b>错误！+0 pts</b></span></div>
                            ","","learn","0","0","0","learn","0","0","[0, 1, 2]","2","0","setsize","99","prac","0","0","2","0",""
"null","null","fixation","html-keyboard-response","19","165896","0.0-1.0-4.0-3.0-0.3","10:38:34","2","","","","","","","fixation","","","","","","","","","","","","","","","","","","",""
"510","1","pic_response","html-keyboard-response","20","166408","0.0-1.0-4.0-3.0-1.3","10:38:34","2","","","","","","","<div>
            <img class='stim' src=""pictures/prac/1.jpg""></div><div class=""button_prompt"">
                        <b>请用数字键1-3回答</b>
                        </div>","","","","","","","","","","","","","","","","","","",""
"510","null","sub_response","html-keyboard-response","21","167410","0.0-1.0-4.0-3.0-2.3","10:38:34","2","","","","","","","<div style='text-align: center;'>
                            <span style=""color: green; font-size: 40px""><b>正确！+1 pts</b></span></div>
                            ","","learn","1","1","1","learn","0","0","[0, 1, 2]","3","1","setsize","99","prac","0","1","0","1",""
"null","null","fixation","html-keyboard-response","22","167912","0.0-1.0-4.0-3.0-0.4","10:38:34","2","","","","","","","fixation","","","","","","","","","","","","","","","","","","",""
"646","1","pic_response","html-keyboard-response","23","168560","0.0-1.0-4.0-3.0-1.4","10:38:34","2","","","","","","","<div>
            <img class='stim' src=""pictures/prac/0.jpg""></div><div class=""button_prompt"">
                        <b>请用数字键1-3回答</b>
                        </div>","","","","","","","","","","","","","","","","","","",""
"646","null","sub_response","html-keyboard-response","24","169562","0.0-1.0-4.0-3.0-2.4","10:38:34","2","","","","","","","<div style='text-align: center;'>
                            <span style=""color: green; font-size: 40px""><b>正确！+1 pts</b></span></div>
                            ","","learn","0","0","0","learn","0","0","[0, 1, 2]","4","1","setsize","99","prac","0","2","0","1",""
"null","null","fixation","html-keyboard-response","25","170064","0.0-1.0-4.0-3.0-0.5","10:38:34","2","","","","","","","fixation","","","","","","","","","","","","","","","","","","",""
"1221","2","pic_response","html-keyboard-response","26","171287","0.0-1.0-4.0-3.0-1.5","10:38:34","2","","","","","","","<div>
            <img class='stim' src=""pictures/prac/2.jpg""></div><div class=""button_prompt"">
                        <b>请用数字键1-3回答</b>
                        </div>","","","","","","","","","","","","","","","","","","",""
"1221","null","sub_response","html-keyboard-response","27","172289","0.0-1.0-4.0-3.0-2.5","10:38:34","2","","","","","","","<div style='text-align: center;'>
                            <span style=""color: red; font-size: 40px""><b>错误！+0 pts</b></span></div>
                            ","","learn","2","2","2","learn","2","2","[0, 1, 2]","5","1","setsize","99","prac","0","0","1","0",""
"","","","preload","28","172300","0.0-1.0-4.1-0.1","10:38:34","2","true","false","[]","[]","[]","","","","","","","","","","","","","","","","","","","","",""
"528"," ","","html-keyboard-response","29","172831","0.0-1.0-4.1-1.1","10:38:34","2","","","","","","","<div style='font-size: 32px; text-align: center;'
                    <p>请学习图片和数字之间的对应关系</p>
                    <p>我们将<span style='color: blue'><b> 告诉 </b></span>您选择的对错。请根据反馈学习。</p>
                    <p>请按""空格""继续实验。</p></div>","","","","","","","","","","","","","","","","","","",""
"2949"," ","inst","html-keyboard-response","30","175782","0.0-1.0-4.1-2.1","10:38:34","2","","","","","","","<img class='instruct_stim' src=""instruction/prac3.PNG""></div>","","","","","","","","","","","","","","","","","","",""
"null","null","fixation","html-keyboard-response","31","176283","0.0-1.0-4.1-3.1-0.6","10:38:34","2","","","","","","","fixation","","","","","","","","","","","","","","","","","","",""
"2418","1","pic_response","html-keyboard-response","32","178703","0.0-1.0-4.1-3.1-1.6","10:38:34","2","","","","","","","<div>
            <img class='stim' src=""pictures/prac/1.jpg""></div><div class=""button_prompt"">
                        <b>请用数字键1-3回答</b>
                        </div>","","","","","","","","","","","","","","","","","","",""
"2418","null","sub_response","html-keyboard-response","33","179706","0.0-1.0-4.1-3.1-2.6","10:38:34","2","","","","","","","<div style='text-align: center;'>
                            <span style=""color: green; font-size: 40px""><b>正确！+1 pts</b></span></div>
                            ","","learn","1","1","1","learn","0","0","[0, 1, 2]","0","0","setsize","99","prac","0","1","0","1",""
"null","null","fixation","html-keyboard-response","34","180208","0.0-1.0-4.1-3.1-0.7","10:38:34","2","","","","","","","fixation","","","","","","","","","","","","","","","","","","",""
"2125","1","pic_response","html-keyboard-response","35","182335","0.0-1.0-4.1-3.1-1.7","10:38:34","2","","","","","","","<div>
            <img class='stim' src=""pictures/prac/2.jpg""></div><div class=""button_prompt"">
                        <b>请用数字键1-3回答</b>
                        </div>","","","","","","","","","","","","","","","","","","",""
"2125","null","sub_response","html-keyboard-response","36","183337","0.0-1.0-4.1-3.1-2.7","10:38:34","2","","","","","","","<div style='text-align: center;'>
                            <span style=""color: red; font-size: 40px""><b>错误！+0 pts</b></span></div>
                            ","","learn","2","2","2","learn","2","2","[0, 1, 2]","1","0","setsize","99","prac","0","0","0","0",""
"null","null","fixation","html-keyboard-response","37","183841","0.0-1.0-4.1-3.1-0.8","10:38:34","2","","","","","","","fixation","","","","","","","","","","","","","","","","","","",""
"532","1","pic_response","html-keyboard-response","38","184375","0.0-1.0-4.1-3.1-1.8","10:38:34","2","","","","","","","<div>
            <img class='stim' src=""pictures/prac/0.jpg""></div><div class=""button_prompt"">
                        <b>请用数字键1-3回答</b>
                        </div>","","","","","","","","","","","","","","","","","","",""
"532","null","sub_response","html-keyboard-response","39","185378","0.0-1.0-4.1-3.1-2.8","10:38:34","2","","","","","","","<div style='text-align: center;'>
                            <span style=""color: green; font-size: 40px""><b>正确！+1 pts</b></span></div>
                            ","","learn","0","0","0","learn","0","0","[0, 1, 2]","2","0","setsize","99","prac","0","1","0","1",""
"null","null","fixation","html-keyboard-response","40","185880","0.0-1.0-4.1-3.1-0.9","10:38:34","2","","","","","","","fixation","","","","","","","","","","","","","","","","","","",""
"2190","1","pic_response","html-keyboard-response","41","188071","0.0-1.0-4.1-3.1-1.9","10:38:34","2","","","","","","","<div>
            <img class='stim' src=""pictures/prac/1.jpg""></div><div class=""button_prompt"">
                        <b>请用数字键1-3回答</b>
                        </div>","","","","","","","","","","","","","","","","","","",""
"2190","null","sub_response","html-keyboard-response","42","189073","0.0-1.0-4.1-3.1-2.9","10:38:34","2","","","","","","","<div style='text-align: center;'>
                            <span style=""color: green; font-size: 40px""><b>正确！+1 pts</b></span></div>
                            ","","learn","1","1","1","learn","0","0","[0, 1, 2]","3","1","setsize","99","prac","0","2","0","1",""
"null","null","fixation","html-keyboard-response","43","189576","0.0-1.0-4.1-3.1-0.10","10:38:34","2","","","","","","","fixation","","","","","","","","","","","","","","","","","","",""
"2094","1","pic_response","html-keyboard-response","44","191672","0.0-1.0-4.1-3.1-1.10","10:38:34","2","","","","","","","<div>
            <img class='stim' src=""pictures/prac/0.jpg""></div><div class=""button_prompt"">
                        <b>请用数字键1-3回答</b>
                        </div>","","","","","","","","","","","","","","","","","","",""
"2094","null","sub_response","html-keyboard-response","45","192674","0.0-1.0-4.1-3.1-2.10","10:38:34","2","","","","","","","<div style='text-align: center;'>
                            <span style=""color: green; font-size: 40px""><b>正确！+1 pts</b></span></div>
                            ","","learn","0","0","0","learn","0","0","[0, 1, 2]","4","1","setsize","99","prac","0","3","0","1",""
"null","null","fixation","html-keyboard-response","46","193176","0.0-1.0-4.1-3.1-0.11","10:38:34","2","","","","","","","fixation","","","","","","","","","","","","","","","","","","",""
"965","3","pic_response","html-keyboard-response","47","194143","0.0-1.0-4.1-3.1-1.11","10:38:34","2","","","","","","","<div>
            <img class='stim' src=""pictures/prac/2.jpg""></div><div class=""button_prompt"">
                        <b>请用数字键1-3回答</b>
                        </div>","","","","","","","","","","","","","","","","","","",""
"965","null","sub_response","html-keyboard-response","48","195145","0.0-1.0-4.1-3.1-2.11","10:38:34","2","","","","","","","<div style='text-align: center;'>
                            <span style=""color: green; font-size: 40px""><b>正确！+1 pts</b></span></div>
                            ","","learn","2","2","2","learn","2","2","[0, 1, 2]","5","1","setsize","99","prac","0","4","2","1",""
"4318"," ","","html-keyboard-response","49","199465","0.0-1.0-5.0","10:38:34","2","","","","","","","<div style=""font-size: 25px""><p>距下一个实验开始还有</p><div style=""font-size: 50px; color: blue""><p><span id=""clock"">1:00</span></div></p><p>按""空格""跳过休息</p></div>","","","","","","","","","","","","","","","","","","",""
"3789"," ","","html-keyboard-response","50","203255","0.0-1.0-6.0","10:38:34","2","","","","","","","<div style='font-size: 32px; text-align: center;'
                    <p>请按""空格""继续正式实验。</p></div>","","","","","","","","","","","","","","","","","","",""
"","","","preload","51","206287","0.0-1.0-7.0-0.0","10:38:34","2","true","false","[]","[]","[]","","","","","","","","","","","","","","","","","","","","",""
"4368"," ","","html-keyboard-response","52","210656","0.0-1.0-7.0-1.0","10:38:34","2","","","","","","","<div style='font-size: 32px; text-align: center;'
                    <p>请学习图片和数字之间的对应关系</p>
                    <p>我们将<span style='color: blue'><b> 告诉 </b></span>您选择的对错。请根据反馈学习。</p>
                    <p>请按""空格""继续实验。</p></div>","","","","","","","","","","","","","","","","","","",""
"32872"," ","inst","html-keyboard-response","53","243529","0.0-1.0-7.0-2.0","10:38:34","2","","","","","","","<img class='instruct_stim' src=""instruction/sports10.PNG""></div>","","","","","","","","","","","","","","","","","","",""
"null","null","fixation","html-keyboard-response","54","244030","0.0-1.0-7.0-3.0-0.0","10:38:34","2","","","","","","","fixation","","","","","","","","","","","","","","","","","","",""
"2344","0","pic_response","html-keyboard-response","55","246375","0.0-1.0-7.0-3.0-1.0","10:38:34","2","","","","","","","<div>
            <img class='stim' src=""pictures/sports/4.jpg""></div><div class=""button_prompt"">
                    <b>请用数字键0-9回答</b>
                    </div>","","","","","","","","","","","","","","","","","","",""
"2344","null","sub_response","html-keyboard-response","56","247377","0.0-1.0-7.0-3.0-2.0","10:38:34","2","","","","","","","<div style='text-align: center;'>
                            <span style=""color: red; font-size: 40px""><b>错误！+0 pts</b></span></div>
                            ","","learn","4","4","4","learn","4","4","[0, 1, 2, 3, 4, 5, 6, 7, 8, 9]","0","0","setsize","10S10A","sports","1","0","9","0",""
"null","null","fixation","html-keyboard-response","57","247880","0.0-1.0-7.0-3.0-0.1","10:38:34","2","","","","","","","fixation","","","","","","","","","","","","","","","","","","",""
"1317","1","pic_response","html-keyboard-response","58","249199","0.0-1.0-7.0-3.0-1.1","10:38:34","2","","","","","","","<div>
            <img class='stim' src=""pictures/sports/1.jpg""></div><div class=""button_prompt"">
                    <b>请用数字键0-9回答</b>
                    </div>","","","","","","","","","","","","","","","","","","",""
"1317","null","sub_response","html-keyboard-response","59","250201","0.0-1.0-7.0-3.0-2.1","10:38:34","2","","","","","","","<div style='text-align: center;'>
                            <span style=""color: red; font-size: 40px""><b>错误！+0 pts</b></span></div>
                            ","","learn","1","1","1","learn","1","1","[0, 1, 2, 3, 4, 5, 6, 7, 8, 9]","1","0","setsize","10S10A","sports","1","0","0","0",""
"null","null","fixation","html-keyboard-response","60","250703","0.0-1.0-7.0-3.0-0.2","10:38:34","2","","","","","","","fixation","","","","","","","","","","","","","","","","","","",""
"1478","8","pic_response","html-keyboard-response","61","252183","0.0-1.0-7.0-3.0-1.2","10:38:34","2","","","","","","","<div>
            <img class='stim' src=""pictures/sports/7.jpg""></div><div class=""button_prompt"">
                    <b>请用数字键0-9回答</b>
                    </div>","","","","","","","","","","","","","","","","","","",""
"1478","null","sub_response","html-keyboard-response","62","253186","0.0-1.0-7.0-3.0-2.2","10:38:34","2","","","","","","","<div style='text-align: center;'>
                            <span style=""color: green; font-size: 40px""><b>正确！+1 pts</b></span></div>
                            ","","learn","7","7","7","learn","7","7","[0, 1, 2, 3, 4, 5, 6, 7, 8, 9]","2","0","setsize","10S10A","sports","1","1","7","1",""
"null","null","fixation","html-keyboard-response","63","253688","0.0-1.0-7.0-3.0-0.3","10:38:34","2","","","","","","","fixation","","","","","","","","","","","","","","","","","","",""
"1629","1","pic_response","html-keyboard-response","64","255319","0.0-1.0-7.0-3.0-1.3","10:38:34","2","","","","","","","<div>
            <img class='stim' src=""pictures/sports/2.jpg""></div><div class=""button_prompt"">
                    <b>请用数字键0-9回答</b>
                    </div>","","","","","","","","","","","","","","","","","","",""
"1629","null","sub_response","html-keyboard-response","65","256320","0.0-1.0-7.0-3.0-2.3","10:38:34","2","","","","","","","<div style='text-align: center;'>
                            <span style=""color: red; font-size: 40px""><b>错误！+0 pts</b></span></div>
                            ","","learn","2","2","2","learn","2","2","[0, 1, 2, 3, 4, 5, 6, 7, 8, 9]","3","0","setsize","10S10A","sports","1","0","0","0",""
"null","null","fixation","html-keyboard-response","66","256823","0.0-1.0-7.0-3.0-0.4","10:38:34","2","","","","","","","fixation","","","","","","","","","","","","","","","","","","",""
"2118","2","pic_response","html-keyboard-response","67","258943","0.0-1.0-7.0-3.0-1.4","10:38:34","2","","","","","","","<div>
            <img class='stim' src=""pictures/sports/3.jpg""></div><div class=""button_prompt"">
                    <b>请用数字键0-9回答</b>
                    </div>","","","","","","","","","","","","","","","","","","",""
"2118","null","sub_response","html-keyboard-response","68","259946","0.0-1.0-7.0-3.0-2.4","10:38:34","2","","","","","","","<div style='text-align: center;'>
                            <span style=""color: red; font-size: 40px""><b>错误！+0 pts</b></span></div>
                            ","","learn","3","3","3","learn","3","3","[0, 1, 2, 3, 4, 5, 6, 7, 8, 9]","4","0","setsize","10S10A","sports","1","0","1","0",""
"null","null","fixation","html-keyboard-response","69","260448","0.0-1.0-7.0-3.0-0.5","10:38:34","2","","","","","","","fixation","","","","","","","","","","","","","","","","","","",""
"1349","8","pic_response","html-keyboard-response","70","261799","0.0-1.0-7.0-3.0-1.5","10:38:34","2","","","","","","","<div>
            <img class='stim' src=""pictures/sports/9.jpg""></div><div class=""button_prompt"">
                    <b>请用数字键0-9回答</b>
                    </div>","","","","","","","","","","","","","","","","","","",""
"1349","null","sub_response","html-keyboard-response","71","262802","0.0-1.0-7.0-3.0-2.5","10:38:34","2","","","","","","","<div style='text-align: center;'>
                            <span style=""color: red; font-size: 40px""><b>错误！+0 pts</b></span></div>
                            ","","learn","9","9","9","learn","9","9","[0, 1, 2, 3, 4, 5, 6, 7, 8, 9]","5","0","setsize","10S10A","sports","1","0","7","0",""
"null","null","fixation","html-keyboard-response","72","263305","0.0-1.0-7.0-3.0-0.6","10:38:34","2","","","","","","","fixation","","","","","","","","","","","","","","","","","","",""
"1292","2","pic_response","html-keyboard-response","73","264599","0.0-1.0-7.0-3.0-1.6","10:38:34","2","","","","","","","<div>
            <img class='stim' src=""pictures/sports/5.jpg""></div><div class=""button_prompt"">
                    <b>请用数字键0-9回答</b>
                    </div>","","","","","","","","","","","","","","","","","","",""
"1292","null","sub_response","html-keyboard-response","74","265601","0.0-1.0-7.0-3.0-2.6","10:38:34","2","","","","","","","<div style='text-align: center;'>
                            <span style=""color: red; font-size: 40px""><b>错误！+0 pts</b></span></div>
                            ","","learn","5","5","5","learn","5","5","[0, 1, 2, 3, 4, 5, 6, 7, 8, 9]","6","0","setsize","10S10A","sports","1","0","1","0",""
"null","null","fixation","html-keyboard-response","75","266103","0.0-1.0-7.0-3.0-0.7","10:38:34","2","","","","","","","fixation","","","","","","","","","","","","","","","","","","",""
"2622","7","pic_response","html-keyboard-response","76","268727","0.0-1.0-7.0-3.0-1.7","10:38:34","2","","","","","","","<div>
            <img class='stim' src=""pictures/sports/6.jpg""></div><div class=""button_prompt"">
                    <b>请用数字键0-9回答</b>
                    </div>","","","","","","","","","","","","","","","","","","",""
"2622","null","sub_response","html-keyboard-response","77","269729","0.0-1.0-7.0-3.0-2.7","10:38:34","2","","","","","","","<div style='text-align: center;'>
                            <span style=""color: green; font-size: 40px""><b>正确！+1 pts</b></span></div>
                            ","","learn","6","6","6","learn","6","6","[0, 1, 2, 3, 4, 5, 6, 7, 8, 9]","7","0","setsize","10S10A","sports","1","1","6","1",""
"null","null","fixation","html-keyboard-response","78","270232","0.0-1.0-7.0-3.0-0.8","10:38:34","2","","","","","","","fixation","","","","","","","","","","","","","","","","","","",""
"1296","1","pic_response","html-keyboard-response","79","271529","0.0-1.0-7.0-3.0-1.8","10:38:34","2","","","","","","","<div>
            <img class='stim' src=""pictures/sports/0.jpg""></div><div class=""button_prompt"">
                    <b>请用数字键0-9回答</b>
                    </div>","","","","","","","","","","","","","","","","","","",""
"1296","null","sub_response","html-keyboard-response","80","272531","0.0-1.0-7.0-3.0-2.8","10:38:34","2","","","","","","","<div style='text-align: center;'>
                            <span style=""color: green; font-size: 40px""><b>正确！+1 pts</b></span></div>
                            ","","learn","0","0","0","learn","0","0","[0, 1, 2, 3, 4, 5, 6, 7, 8, 9]","8","0","setsize","10S10A","sports","1","2","0","1",""
"null","null","fixation","html-keyboard-response","81","273034","0.0-1.0-7.0-3.0-0.9","10:38:34","2","","","","","","","fixation","","","","","","","","","","","","","","","","","","",""
"1411","9","pic_response","html-keyboard-response","82","274447","0.0-1.0-7.0-3.0-1.9","10:38:34","2","","","","","","","<div>
            <img class='stim' src=""pictures/sports/8.jpg""></div><div class=""button_prompt"">
                    <b>请用数字键0-9回答</b>
                    </div>","","","","","","","","","","","","","","","","","","",""
"1411","null","sub_response","html-keyboard-response","83","275449","0.0-1.0-7.0-3.0-2.9","10:38:34","2","","","","","","","<div style='text-align: center;'>
                            <span style=""color: green; font-size: 40px""><b>正确！+1 pts</b></span></div>
                            ","","learn","8","8","8","learn","8","8","[0, 1, 2, 3, 4, 5, 6, 7, 8, 9]","9","0","setsize","10S10A","sports","1","3","8","1",""
"null","null","fixation","html-keyboard-response","84","275951","0.0-1.0-7.0-3.0-0.10","10:38:34","2","","","","","","","fixation","","","","","","","","","","","","","","","","","","",""
"2360","1","pic_response","html-keyboard-response","85","278312","0.0-1.0-7.0-3.0-1.10","10:38:34","2","","","","","","","<div>
            <img class='stim' src=""pictures/sports/0.jpg""></div><div class=""button_prompt"">
                    <b>请用数字键0-9回答</b>
                    </div>","","","","","","","","","","","","","","","","","","",""
"2360","null","sub_response","html-keyboard-response","86","279314","0.0-1.0-7.0-3.0-2.10","10:38:34","2","","","","","","","<div style='text-align: center;'>
                            <span style=""color: green; font-size: 40px""><b>正确！+1 pts</b></span></div>
                            ","","learn","0","0","0","learn","0","0","[0, 1, 2, 3, 4, 5, 6, 7, 8, 9]","10","1","setsize","10S10A","sports","1","4","0","1",""
"null","null","fixation","html-keyboard-response","87","279817","0.0-1.0-7.0-3.0-0.11","10:38:34","2","","","","","","","fixation","","","","","","","","","","","","","","","","","","",""
"883","2","pic_response","html-keyboard-response","88","280702","0.0-1.0-7.0-3.0-1.11","10:38:34","2","","","","","","","<div>
            <img class='stim' src=""pictures/sports/3.jpg""></div><div class=""button_prompt"">
                    <b>请用数字键0-9回答</b>
                    </div>","","","","","","","","","","","","","","","","","","",""
"883","null","sub_response","html-keyboard-response","89","281703","0.0-1.0-7.0-3.0-2.11","10:38:34","2","","","","","","","<div style='text-align: center;'>
                            <span style=""color: red; font-size: 40px""><b>错误！+0 pts</b></span></div>
                            ","","learn","3","3","3","learn","3","3","[0, 1, 2, 3, 4, 5, 6, 7, 8, 9]","11","1","setsize","10S10A","sports","1","0","1","0",""
"null","null","fixation","html-keyboard-response","90","282205","0.0-1.0-7.0-3.0-0.12","10:38:34","2","","","","","","","fixation","","","","","","","","","","","","","","","","","","",""
"1257","1","pic_response","html-keyboard-response","91","283464","0.0-1.0-7.0-3.0-1.12","10:38:34","2","","","","","","","<div>
            <img class='stim' src=""pictures/sports/2.jpg""></div><div class=""button_prompt"">
                    <b>请用数字键0-9回答</b>
                    </div>","","","","","","","","","","","","","","","","","","",""
"1257","null","sub_response","html-keyboard-response","92","284466","0.0-1.0-7.0-3.0-2.12","10:38:34","2","","","","","","","<div style='text-align: center;'>
                            <span style=""color: red; font-size: 40px""><b>错误！+0 pts</b></span></div>
                            ","","learn","2","2","2","learn","2","2","[0, 1, 2, 3, 4, 5, 6, 7, 8, 9]","12","1","setsize","10S10A","sports","1","0","0","0",""
"null","null","fixation","html-keyboard-response","93","284969","0.0-1.0-7.0-3.0-0.13","10:38:34","2","","","","","","","fixation","","","","","","","","","","","","","","","","","","",""
"2132","9","pic_response","html-keyboard-response","94","287103","0.0-1.0-7.0-3.0-1.13","10:38:34","2","","","","","","","<div>
            <img class='stim' src=""pictures/sports/9.jpg""></div><div class=""button_prompt"">
                    <b>请用数字键0-9回答</b>
                    </div>","","","","","","","","","","","","","","","","","","",""
"2132","null","sub_response","html-keyboard-response","95","288105","0.0-1.0-7.0-3.0-2.13","10:38:34","2","","","","","","","<div style='text-align: center;'>
                            <span style=""color: red; font-size: 40px""><b>错误！+0 pts</b></span></div>
                            ","","learn","9","9","9","learn","9","9","[0, 1, 2, 3, 4, 5, 6, 7, 8, 9]","13","1","setsize","10S10A","sports","1","0","8","0",""
"null","null","fixation","html-keyboard-response","96","288606","0.0-1.0-7.0-3.0-0.14","10:38:34","2","","","","","","","fixation","","","","","","","","","","","","","","","","","","",""
"2295","2","pic_response","html-keyboard-response","97","290903","0.0-1.0-7.0-3.0-1.14","10:38:34","2","","","","","","","<div>
            <img class='stim' src=""pictures/sports/4.jpg""></div><div class=""button_prompt"">
                    <b>请用数字键0-9回答</b>
                    </div>","","","","","","","","","","","","","","","","","","",""
"2295","null","sub_response","html-keyboard-response","98","291906","0.0-1.0-7.0-3.0-2.14","10:38:34","2","","","","","","","<div style='text-align: center;'>
                            <span style=""color: red; font-size: 40px""><b>错误！+0 pts</b></span></div>
                            ","","learn","4","4","4","learn","4","4","[0, 1, 2, 3, 4, 5, 6, 7, 8, 9]","14","1","setsize","10S10A","sports","1","0","1","0",""
"null","null","fixation","html-keyboard-response","99","292408","0.0-1.0-7.0-3.0-0.15","10:38:34","2","","","","","","","fixation","","","","","","","","","","","","","","","","","","",""
"1997","3","pic_response","html-keyboard-response","100","294407","0.0-1.0-7.0-3.0-1.15","10:38:34","2","","","","","","","<div>
            <img class='stim' src=""pictures/sports/6.jpg""></div><div class=""button_prompt"">
                    <b>请用数字键0-9回答</b>
                    </div>","","","","","","","","","","","","","","","","","","",""
"1997","null","sub_response","html-keyboard-response","101","295408","0.0-1.0-7.0-3.0-2.15","10:38:34","2","","","","","","","<div style='text-align: center;'>
                            <span style=""color: red; font-size: 40px""><b>错误！+0 pts</b></span></div>
                            ","","learn","6","6","6","learn","6","6","[0, 1, 2, 3, 4, 5, 6, 7, 8, 9]","15","1","setsize","10S10A","sports","1","0","2","0",""
"null","null","fixation","html-keyboard-response","102","295910","0.0-1.0-7.0-3.0-0.16","10:38:34","2","","","","","","","fixation","","","","","","","","","","","","","","","","","","",""
"1567","2","pic_response","html-keyboard-response","103","297479","0.0-1.0-7.0-3.0-1.16","10:38:34","2","","","","","","","<div>
            <img class='stim' src=""pictures/sports/5.jpg""></div><div class=""button_prompt"">
                    <b>请用数字键0-9回答</b>
                    </div>","","","","","","","","","","","","","","","","","","",""
"1567","null","sub_response","html-keyboard-response","104","298481","0.0-1.0-7.0-3.0-2.16","10:38:34","2","","","","","","","<div style='text-align: center;'>
                            <span style=""color: red; font-size: 40px""><b>错误！+0 pts</b></span></div>
                            ","","learn","5","5","5","learn","5","5","[0, 1, 2, 3, 4, 5, 6, 7, 8, 9]","16","1","setsize","10S10A","sports","1","0","1","0",""
"null","null","fixation","html-keyboard-response","105","298984","0.0-1.0-7.0-3.0-0.17","10:38:34","2","","","","","","","fixation","","","","","","","","","","","","","","","","","","",""
"1806","7","pic_response","html-keyboard-response","106","300791","0.0-1.0-7.0-3.0-1.17","10:38:34","2","","","","","","","<div>
            <img class='stim' src=""pictures/sports/7.jpg""></div><div class=""button_prompt"">
                    <b>请用数字键0-9回答</b>
                    </div>","","","","","","","","","","","","","","","","","","",""
"1806","null","sub_response","html-keyboard-response","107","301793","0.0-1.0-7.0-3.0-2.17","10:38:34","2","","","","","","","<div style='text-align: center;'>
                            <span style=""color: red; font-size: 40px""><b>错误！+0 pts</b></span></div>
                            ","","learn","7","7","7","learn","7","7","[0, 1, 2, 3, 4, 5, 6, 7, 8, 9]","17","1","setsize","10S10A","sports","1","0","6","0",""
"null","null","fixation","html-keyboard-response","108","302294","0.0-1.0-7.0-3.0-0.18","10:38:34","2","","","","","","","fixation","","","","","","","","","","","","","","","","","","",""
"1015","3","pic_response","html-keyboard-response","109","303311","0.0-1.0-7.0-3.0-1.18","10:38:34","2","","","","","","","<div>
            <img class='stim' src=""pictures/sports/8.jpg""></div><div class=""button_prompt"">
                    <b>请用数字键0-9回答</b>
                    </div>","","","","","","","","","","","","","","","","","","",""
"1015","null","sub_response","html-keyboard-response","110","304314","0.0-1.0-7.0-3.0-2.18","10:38:34","2","","","","","","","<div style='text-align: center;'>
                            <span style=""color: red; font-size: 40px""><b>错误！+0 pts</b></span></div>
                            ","","learn","8","8","8","learn","8","8","[0, 1, 2, 3, 4, 5, 6, 7, 8, 9]","18","1","setsize","10S10A","sports","1","0","2","0",""
"null","null","fixation","html-keyboard-response","111","304815","0.0-1.0-7.0-3.0-0.19","10:38:34","2","","","","","","","fixation","","","","","","","","","","","","","","","","","","",""
"1406","4","pic_response","html-keyboard-response","112","306223","0.0-1.0-7.0-3.0-1.19","10:38:34","2","","","","","","","<div>
            <img class='stim' src=""pictures/sports/1.jpg""></div><div class=""button_prompt"">
                    <b>请用数字键0-9回答</b>
                    </div>","","","","","","","","","","","","","","","","","","",""
"1406","null","sub_response","html-keyboard-response","113","307225","0.0-1.0-7.0-3.0-2.19","10:38:34","2","","","","","","","<div style='text-align: center;'>
                            <span style=""color: red; font-size: 40px""><b>错误！+0 pts</b></span></div>
                            ","","learn","1","1","1","learn","1","1","[0, 1, 2, 3, 4, 5, 6, 7, 8, 9]","19","1","setsize","10S10A","sports","1","0","3","0",""
"null","null","fixation","html-keyboard-response","114","307728","0.0-1.0-7.0-3.0-0.20","10:38:34","2","","","","","","","fixation","","","","","","","","","","","","","","","","","","",""
"781","1","pic_response","html-keyboard-response","115","308511","0.0-1.0-7.0-3.0-1.20","10:38:34","2","","","","","","","<div>
            <img class='stim' src=""pictures/sports/0.jpg""></div><div class=""button_prompt"">
                    <b>请用数字键0-9回答</b>
                    </div>","","","","","","","","","","","","","","","","","","",""
"781","null","sub_response","html-keyboard-response","116","309512","0.0-1.0-7.0-3.0-2.20","10:38:34","2","","","","","","","<div style='text-align: center;'>
                            <span style=""color: green; font-size: 40px""><b>正确！+1 pts</b></span></div>
                            ","","learn","0","0","0","learn","0","0","[0, 1, 2, 3, 4, 5, 6, 7, 8, 9]","20","2","setsize","10S10A","sports","1","1","0","1",""
"null","null","fixation","html-keyboard-response","117","310014","0.0-1.0-7.0-3.0-0.21","10:38:34","2","","","","","","","fixation","","","","","","","","","","","","","","","","","","",""
"1783","4","pic_response","html-keyboard-response","118","311799","0.0-1.0-7.0-3.0-1.21","10:38:34","2","","","","","","","<div>
            <img class='stim' src=""pictures/sports/4.jpg""></div><div class=""button_prompt"">
                    <b>请用数字键0-9回答</b>
                    </div>","","","","","","","","","","","","","","","","","","",""
"1783","null","sub_response","html-keyboard-response","119","312801","0.0-1.0-7.0-3.0-2.21","10:38:34","2","","","","","","","<div style='text-align: center;'>
                            <span style=""color: red; font-size: 40px""><b>错误！+0 pts</b></span></div>
                            ","","learn","4","4","4","learn","4","4","[0, 1, 2, 3, 4, 5, 6, 7, 8, 9]","21","2","setsize","10S10A","sports","1","0","3","0",""
"null","null","fixation","html-keyboard-response","120","313304","0.0-1.0-7.0-3.0-0.22","10:38:34","2","","","","","","","fixation","","","","","","","","","","","","","","","","","","",""
"1510","5","pic_response","html-keyboard-response","121","314815","0.0-1.0-7.0-3.0-1.22","10:38:34","2","","","","","","","<div>
            <img class='stim' src=""pictures/sports/3.jpg""></div><div class=""button_prompt"">
                    <b>请用数字键0-9回答</b>
                    </div>","","","","","","","","","","","","","","","","","","",""
"1510","null","sub_response","html-keyboard-response","122","315817","0.0-1.0-7.0-3.0-2.22","10:38:34","2","","","","","","","<div style='text-align: center;'>
                            <span style=""color: red; font-size: 40px""><b>错误！+0 pts</b></span></div>
                            ","","learn","3","3","3","learn","3","3","[0, 1, 2, 3, 4, 5, 6, 7, 8, 9]","22","2","setsize","10S10A","sports","1","0","4","0",""
"null","null","fixation","html-keyboard-response","123","316320","0.0-1.0-7.0-3.0-0.23","10:38:34","2","","","","","","","fixation","","","","","","","","","","","","","","","","","","",""
"1214","1","pic_response","html-keyboard-response","124","317535","0.0-1.0-7.0-3.0-1.23","10:38:34","2","","","","","","","<div>
            <img class='stim' src=""pictures/sports/2.jpg""></div><div class=""button_prompt"">
                    <b>请用数字键0-9回答</b>
                    </div>","","","","","","","","","","","","","","","","","","",""
"1214","null","sub_response","html-keyboard-response","125","318538","0.0-1.0-7.0-3.0-2.23","10:38:34","2","","","","","","","<div style='text-align: center;'>
                            <span style=""color: red; font-size: 40px""><b>错误！+0 pts</b></span></div>
                            ","","learn","2","2","2","learn","2","2","[0, 1, 2, 3, 4, 5, 6, 7, 8, 9]","23","2","setsize","10S10A","sports","1","0","0","0",""
"null","null","fixation","html-keyboard-response","126","319040","0.0-1.0-7.0-3.0-0.24","10:38:34","2","","","","","","","fixation","","","","","","","","","","","","","","","","","","",""
"1213","7","pic_response","html-keyboard-response","127","320255","0.0-1.0-7.0-3.0-1.24","10:38:34","2","","","","","","","<div>
            <img class='stim' src=""pictures/sports/6.jpg""></div><div class=""button_prompt"">
                    <b>请用数字键0-9回答</b>
                    </div>","","","","","","","","","","","","","","","","","","",""
"1213","null","sub_response","html-keyboard-response","128","321257","0.0-1.0-7.0-3.0-2.24","10:38:34","2","","","","","","","<div style='text-align: center;'>
                            <span style=""color: green; font-size: 40px""><b>正确！+1 pts</b></span></div>
                            ","","learn","6","6","6","learn","6","6","[0, 1, 2, 3, 4, 5, 6, 7, 8, 9]","24","2","setsize","10S10A","sports","1","1","6","1",""
"null","null","fixation","html-keyboard-response","129","321758","0.0-1.0-7.0-3.0-0.25","10:38:34","2","","","","","","","fixation","","","","","","","","","","","","","","","","","","",""
"1711","6","pic_response","html-keyboard-response","130","323471","0.0-1.0-7.0-3.0-1.25","10:38:34","2","","","","","","","<div>
            <img class='stim' src=""pictures/sports/7.jpg""></div><div class=""button_prompt"">
                    <b>请用数字键0-9回答</b>
                    </div>","","","","","","","","","","","","","","","","","","",""
"1711","null","sub_response","html-keyboard-response","131","324472","0.0-1.0-7.0-3.0-2.25","10:38:34","2","","","","","","","<div style='text-align: center;'>
                            <span style=""color: red; font-size: 40px""><b>错误！+0 pts</b></span></div>
                            ","","learn","7","7","7","learn","7","7","[0, 1, 2, 3, 4, 5, 6, 7, 8, 9]","25","2","setsize","10S10A","sports","1","0","5","0",""
"null","null","fixation","html-keyboard-response","132","324975","0.0-1.0-7.0-3.0-0.26","10:38:34","2","","","","","","","fixation","","","","","","","","","","","","","","","","","","",""
"1230","3","pic_response","html-keyboard-response","133","326207","0.0-1.0-7.0-3.0-1.26","10:38:34","2","","","","","","","<div>
            <img class='stim' src=""pictures/sports/9.jpg""></div><div class=""button_prompt"">
                    <b>请用数字键0-9回答</b>
                    </div>","","","","","","","","","","","","","","","","","","",""
"1230","null","sub_response","html-keyboard-response","134","327209","0.0-1.0-7.0-3.0-2.26","10:38:34","2","","","","","","","<div style='text-align: center;'>
                            <span style=""color: red; font-size: 40px""><b>错误！+0 pts</b></span></div>
                            ","","learn","9","9","9","learn","9","9","[0, 1, 2, 3, 4, 5, 6, 7, 8, 9]","26","2","setsize","10S10A","sports","1","0","2","0",""
"null","null","fixation","html-keyboard-response","135","327710","0.0-1.0-7.0-3.0-0.27","10:38:34","2","","","","","","","fixation","","","","","","","","","","","","","","","","","","",""
"1620","7","pic_response","html-keyboard-response","136","329332","0.0-1.0-7.0-3.0-1.27","10:38:34","2","","","","","","","<div>
            <img class='stim' src=""pictures/sports/1.jpg""></div><div class=""button_prompt"">
                    <b>请用数字键0-9回答</b>
                    </div>","","","","","","","","","","","","","","","","","","",""
"1620","null","sub_response","html-keyboard-response","137","330335","0.0-1.0-7.0-3.0-2.27","10:38:34","2","","","","","","","<div style='text-align: center;'>
                            <span style=""color: red; font-size: 40px""><b>错误！+0 pts</b></span></div>
                            ","","learn","1","1","1","learn","1","1","[0, 1, 2, 3, 4, 5, 6, 7, 8, 9]","27","2","setsize","10S10A","sports","1","0","6","0",""
"null","null","fixation","html-keyboard-response","138","330837","0.0-1.0-7.0-3.0-0.28","10:38:34","2","","","","","","","fixation","","","","","","","","","","","","","","","","","","",""
"1024","2","pic_response","html-keyboard-response","139","331863","0.0-1.0-7.0-3.0-1.28","10:38:34","2","","","","","","","<div>
            <img class='stim' src=""pictures/sports/5.jpg""></div><div class=""button_prompt"">
                    <b>请用数字键0-9回答</b>
                    </div>","","","","","","","","","","","","","","","","","","",""
"1024","null","sub_response","html-keyboard-response","140","332866","0.0-1.0-7.0-3.0-2.28","10:38:34","2","","","","","","","<div style='text-align: center;'>
                            <span style=""color: red; font-size: 40px""><b>错误！+0 pts</b></span></div>
                            ","","learn","5","5","5","learn","5","5","[0, 1, 2, 3, 4, 5, 6, 7, 8, 9]","28","2","setsize","10S10A","sports","1","0","1","0",""
"null","null","fixation","html-keyboard-response","141","333368","0.0-1.0-7.0-3.0-0.29","10:38:34","2","","","","","","","fixation","","","","","","","","","","","","","","","","","","",""
"1925","9","pic_response","html-keyboard-response","142","335295","0.0-1.0-7.0-3.0-1.29","10:38:34","2","","","","","","","<div>
            <img class='stim' src=""pictures/sports/8.jpg""></div><div class=""button_prompt"">
                    <b>请用数字键0-9回答</b>
                    </div>","","","","","","","","","","","","","","","","","","",""
"1925","null","sub_response","html-keyboard-response","143","336298","0.0-1.0-7.0-3.0-2.29","10:38:34","2","","","","","","","<div style='text-align: center;'>
                            <span style=""color: green; font-size: 40px""><b>正确！+1 pts</b></span></div>
                            ","","learn","8","8","8","learn","8","8","[0, 1, 2, 3, 4, 5, 6, 7, 8, 9]","29","2","setsize","10S10A","sports","1","1","8","1",""
"null","null","fixation","html-keyboard-response","144","336800","0.0-1.0-7.0-3.0-0.30","10:38:34","2","","","","","","","fixation","","","","","","","","","","","","","","","","","","",""
"1165","8","pic_response","html-keyboard-response","145","337967","0.0-1.0-7.0-3.0-1.30","10:38:34","2","","","","","","","<div>
            <img class='stim' src=""pictures/sports/6.jpg""></div><div class=""button_prompt"">
                    <b>请用数字键0-9回答</b>
                    </div>","","","","","","","","","","","","","","","","","","",""
"1165","null","sub_response","html-keyboard-response","146","338969","0.0-1.0-7.0-3.0-2.30","10:38:34","2","","","","","","","<div style='text-align: center;'>
                            <span style=""color: red; font-size: 40px""><b>错误！+0 pts</b></span></div>
                            ","","learn","6","6","6","learn","6","6","[0, 1, 2, 3, 4, 5, 6, 7, 8, 9]","30","3","setsize","10S10A","sports","1","0","7","0",""
"null","null","fixation","html-keyboard-response","147","339470","0.0-1.0-7.0-3.0-0.31","10:38:34","2","","","","","","","fixation","","","","","","","","","","","","","","","","","","",""
"904","1","pic_response","html-keyboard-response","148","340376","0.0-1.0-7.0-3.0-1.31","10:38:34","2","","","","","","","<div>
            <img class='stim' src=""pictures/sports/0.jpg""></div><div class=""button_prompt"">
                    <b>请用数字键0-9回答</b>
                    </div>","","","","","","","","","","","","","","","","","","",""
"904","null","sub_response","html-keyboard-response","149","341377","0.0-1.0-7.0-3.0-2.31","10:38:34","2","","","","","","","<div style='text-align: center;'>
                            <span style=""color: green; font-size: 40px""><b>正确！+1 pts</b></span></div>
                            ","","learn","0","0","0","learn","0","0","[0, 1, 2, 3, 4, 5, 6, 7, 8, 9]","31","3","setsize","10S10A","sports","1","1","0","1",""
"null","null","fixation","html-keyboard-response","150","341880","0.0-1.0-7.0-3.0-0.32","10:38:34","2","","","","","","","fixation","","","","","","","","","","","","","","","","","","",""
"2590","0","pic_response","html-keyboard-response","151","344472","0.0-1.0-7.0-3.0-1.32","10:38:34","2","","","","","","","<div>
            <img class='stim' src=""pictures/sports/9.jpg""></div><div class=""button_prompt"">
                    <b>请用数字键0-9回答</b>
                    </div>","","","","","","","","","","","","","","","","","","",""
"2590","null","sub_response","html-keyboard-response","152","345474","0.0-1.0-7.0-3.0-2.32","10:38:34","2","","","","","","","<div style='text-align: center;'>
                            <span style=""color: green; font-size: 40px""><b>正确！+1 pts</b></span></div>
                            ","","learn","9","9","9","learn","9","9","[0, 1, 2, 3, 4, 5, 6, 7, 8, 9]","32","3","setsize","10S10A","sports","1","2","9","1",""
"null","null","fixation","html-keyboard-response","153","345976","0.0-1.0-7.0-3.0-0.33","10:38:34","2","","","","","","","fixation","","","","","","","","","","","","","","","","","","",""
"1462","1","pic_response","html-keyboard-response","154","347439","0.0-1.0-7.0-3.0-1.33","10:38:34","2","","","","","","","<div>
            <img class='stim' src=""pictures/sports/5.jpg""></div><div class=""button_prompt"">
                    <b>请用数字键0-9回答</b>
                    </div>","","","","","","","","","","","","","","","","","","",""
"1462","null","sub_response","html-keyboard-response","155","348441","0.0-1.0-7.0-3.0-2.33","10:38:34","2","","","","","","","<div style='text-align: center;'>
                            <span style=""color: red; font-size: 40px""><b>错误！+0 pts</b></span></div>
                            ","","learn","5","5","5","learn","5","5","[0, 1, 2, 3, 4, 5, 6, 7, 8, 9]","33","3","setsize","10S10A","sports","1","0","0","0",""
"null","null","fixation","html-keyboard-response","156","348943","0.0-1.0-7.0-3.0-0.34","10:38:34","2","","","","","","","fixation","","","","","","","","","","","","","","","","","","",""
"758","2","pic_response","html-keyboard-response","157","349703","0.0-1.0-7.0-3.0-1.34","10:38:34","2","","","","","","","<div>
            <img class='stim' src=""pictures/sports/4.jpg""></div><div class=""button_prompt"">
                    <b>请用数字键0-9回答</b>
                    </div>","","","","","","","","","","","","","","","","","","",""
"758","null","sub_response","html-keyboard-response","158","350705","0.0-1.0-7.0-3.0-2.34","10:38:34","2","","","","","","","<div style='text-align: center;'>
                            <span style=""color: red; font-size: 40px""><b>错误！+0 pts</b></span></div>
                            ","","learn","4","4","4","learn","4","4","[0, 1, 2, 3, 4, 5, 6, 7, 8, 9]","34","3","setsize","10S10A","sports","1","0","1","0",""
"null","null","fixation","html-keyboard-response","159","351207","0.0-1.0-7.0-3.0-0.35","10:38:34","2","","","","","","","fixation","","","","","","","","","","","","","","","","","","",""
"1119","3","pic_response","html-keyboard-response","160","352327","0.0-1.0-7.0-3.0-1.35","10:38:34","2","","","","","","","<div>
            <img class='stim' src=""pictures/sports/2.jpg""></div><div class=""button_prompt"">
                    <b>请用数字键0-9回答</b>
                    </div>","","","","","","","","","","","","","","","","","","",""
"1119","null","sub_response","html-keyboard-response","161","353330","0.0-1.0-7.0-3.0-2.35","10:38:34","2","","","","","","","<div style='text-align: center;'>
                            <span style=""color: green; font-size: 40px""><b>正确！+1 pts</b></span></div>
                            ","","learn","2","2","2","learn","2","2","[0, 1, 2, 3, 4, 5, 6, 7, 8, 9]","35","3","setsize","10S10A","sports","1","1","2","1",""
"null","null","fixation","html-keyboard-response","162","353832","0.0-1.0-7.0-3.0-0.36","10:38:34","2","","","","","","","fixation","","","","","","","","","","","","","","","","","","",""
"1278","1","pic_response","html-keyboard-response","163","355112","0.0-1.0-7.0-3.0-1.36","10:38:34","2","","","","","","","<div>
            <img class='stim' src=""pictures/sports/1.jpg""></div><div class=""button_prompt"">
                    <b>请用数字键0-9回答</b>
                    </div>","","","","","","","","","","","","","","","","","","",""
"1278","null","sub_response","html-keyboard-response","164","356114","0.0-1.0-7.0-3.0-2.36","10:38:34","2","","","","","","","<div style='text-align: center;'>
                            <span style=""color: red; font-size: 40px""><b>错误！+0 pts</b></span></div>
                            ","","learn","1","1","1","learn","1","1","[0, 1, 2, 3, 4, 5, 6, 7, 8, 9]","36","3","setsize","10S10A","sports","1","0","0","0",""
"null","null","fixation","html-keyboard-response","165","356617","0.0-1.0-7.0-3.0-0.37","10:38:34","2","","","","","","","fixation","","","","","","","","","","","","","","","","","","",""
"2581","9","pic_response","html-keyboard-response","166","359199","0.0-1.0-7.0-3.0-1.37","10:38:34","2","","","","","","","<div>
            <img class='stim' src=""pictures/sports/8.jpg""></div><div class=""button_prompt"">
                    <b>请用数字键0-9回答</b>
                    </div>","","","","","","","","","","","","","","","","","","",""
"2581","null","sub_response","html-keyboard-response","167","360201","0.0-1.0-7.0-3.0-2.37","10:38:34","2","","","","","","","<div style='text-align: center;'>
                            <span style=""color: green; font-size: 40px""><b>正确！+1 pts</b></span></div>
                            ","","learn","8","8","8","learn","8","8","[0, 1, 2, 3, 4, 5, 6, 7, 8, 9]","37","3","setsize","10S10A","sports","1","1","8","1",""
"null","null","fixation","html-keyboard-response","168","360703","0.0-1.0-7.0-3.0-0.38","10:38:34","2","","","","","","","fixation","","","","","","","","","","","","","","","","","","",""
"1798","7","pic_response","html-keyboard-response","169","362503","0.0-1.0-7.0-3.0-1.38","10:38:34","2","","","","","","","<div>
            <img class='stim' src=""pictures/sports/3.jpg""></div><div class=""button_prompt"">
                    <b>请用数字键0-9回答</b>
                    </div>","","","","","","","","","","","","","","","","","","",""
"1798","null","sub_response","html-keyboard-response","170","363505","0.0-1.0-7.0-3.0-2.38","10:38:34","2","","","","","","","<div style='text-align: center;'>
                            <span style=""color: red; font-size: 40px""><b>错误！+0 pts</b></span></div>
                            ","","learn","3","3","3","learn","3","3","[0, 1, 2, 3, 4, 5, 6, 7, 8, 9]","38","3","setsize","10S10A","sports","1","0","6","0",""
"null","null","fixation","html-keyboard-response","171","364007","0.0-1.0-7.0-3.0-0.39","10:38:34","2","","","","","","","fixation","","","","","","","","","","","","","","","","","","",""
"903","8","pic_response","html-keyboard-response","172","364911","0.0-1.0-7.0-3.0-1.39","10:38:34","2","","","","","","","<div>
            <img class='stim' src=""pictures/sports/7.jpg""></div><div class=""button_prompt"">
                    <b>请用数字键0-9回答</b>
                    </div>","","","","","","","","","","","","","","","","","","",""
"903","null","sub_response","html-keyboard-response","173","365913","0.0-1.0-7.0-3.0-2.39","10:38:34","2","","","","","","","<div style='text-align: center;'>
                            <span style=""color: green; font-size: 40px""><b>正确！+1 pts</b></span></div>
                            ","","learn","7","7","7","learn","7","7","[0, 1, 2, 3, 4, 5, 6, 7, 8, 9]","39","3","setsize","10S10A","sports","1","1","7","1",""
"null","null","fixation","html-keyboard-response","174","366416","0.0-1.0-7.0-3.0-0.40","10:38:34","2","","","","","","","fixation","","","","","","","","","","","","","","","","","","",""
"1846","5","pic_response","html-keyboard-response","175","368263","0.0-1.0-7.0-3.0-1.40","10:38:34","2","","","","","","","<div>
            <img class='stim' src=""pictures/sports/4.jpg""></div><div class=""button_prompt"">
                    <b>请用数字键0-9回答</b>
                    </div>","","","","","","","","","","","","","","","","","","",""
"1846","null","sub_response","html-keyboard-response","176","369265","0.0-1.0-7.0-3.0-2.40","10:38:34","2","","","","","","","<div style='text-align: center;'>
                            <span style=""color: green; font-size: 40px""><b>正确！+1 pts</b></span></div>
                            ","","learn","4","4","4","learn","4","4","[0, 1, 2, 3, 4, 5, 6, 7, 8, 9]","40","4","setsize","10S10A","sports","1","2","4","1",""
"null","null","fixation","html-keyboard-response","177","369767","0.0-1.0-7.0-3.0-0.41","10:38:34","2","","","","","","","fixation","","","","","","","","","","","","","","","","","","",""
"1085","5","pic_response","html-keyboard-response","178","370855","0.0-1.0-7.0-3.0-1.41","10:38:34","2","","","","","","","<div>
            <img class='stim' src=""pictures/sports/5.jpg""></div><div class=""button_prompt"">
                    <b>请用数字键0-9回答</b>
                    </div>","","","","","","","","","","","","","","","","","","",""
"1085","null","sub_response","html-keyboard-response","179","371857","0.0-1.0-7.0-3.0-2.41","10:38:34","2","","","","","","","<div style='text-align: center;'>
                            <span style=""color: red; font-size: 40px""><b>错误！+0 pts</b></span></div>
                            ","","learn","5","5","5","learn","5","5","[0, 1, 2, 3, 4, 5, 6, 7, 8, 9]","41","4","setsize","10S10A","sports","1","0","4","0",""
"null","null","fixation","html-keyboard-response","180","372359","0.0-1.0-7.0-3.0-0.42","10:38:34","2","","","","","","","fixation","","","","","","","","","","","","","","","","","","",""
"1926","7","pic_response","html-keyboard-response","181","374288","0.0-1.0-7.0-3.0-1.42","10:38:34","2","","","","","","","<div>
            <img class='stim' src=""pictures/sports/6.jpg""></div><div class=""button_prompt"">
                    <b>请用数字键0-9回答</b>
                    </div>","","","","","","","","","","","","","","","","","","",""
"1926","null","sub_response","html-keyboard-response","182","375290","0.0-1.0-7.0-3.0-2.42","10:38:34","2","","","","","","","<div style='text-align: center;'>
                            <span style=""color: green; font-size: 40px""><b>正确！+1 pts</b></span></div>
                            ","","learn","6","6","6","learn","6","6","[0, 1, 2, 3, 4, 5, 6, 7, 8, 9]","42","4","setsize","10S10A","sports","1","1","6","1",""
"null","null","fixation","html-keyboard-response","183","375793","0.0-1.0-7.0-3.0-0.43","10:38:34","2","","","","","","","fixation","","","","","","","","","","","","","","","","","","",""
"2301","1","pic_response","html-keyboard-response","184","378096","0.0-1.0-7.0-3.0-1.43","10:38:34","2","","","","","","","<div>
            <img class='stim' src=""pictures/sports/2.jpg""></div><div class=""button_prompt"">
                    <b>请用数字键0-9回答</b>
                    </div>","","","","","","","","","","","","","","","","","","",""
"2301","null","sub_response","html-keyboard-response","185","379097","0.0-1.0-7.0-3.0-2.43","10:38:34","2","","","","","","","<div style='text-align: center;'>
                            <span style=""color: red; font-size: 40px""><b>错误！+0 pts</b></span></div>
                            ","","learn","2","2","2","learn","2","2","[0, 1, 2, 3, 4, 5, 6, 7, 8, 9]","43","4","setsize","10S10A","sports","1","0","0","0",""
"null","null","fixation","html-keyboard-response","186","379600","0.0-1.0-7.0-3.0-0.44","10:38:34","2","","","","","","","fixation","","","","","","","","","","","","","","","","","","",""
"934","1","pic_response","html-keyboard-response","187","380535","0.0-1.0-7.0-3.0-1.44","10:38:34","2","","","","","","","<div>
            <img class='stim' src=""pictures/sports/0.jpg""></div><div class=""button_prompt"">
                    <b>请用数字键0-9回答</b>
                    </div>","","","","","","","","","","","","","","","","","","",""
"934","null","sub_response","html-keyboard-response","188","381537","0.0-1.0-7.0-3.0-2.44","10:38:34","2","","","","","","","<div style='text-align: center;'>
                            <span style=""color: green; font-size: 40px""><b>正确！+1 pts</b></span></div>
                            ","","learn","0","0","0","learn","0","0","[0, 1, 2, 3, 4, 5, 6, 7, 8, 9]","44","4","setsize","10S10A","sports","1","1","0","1",""
"null","null","fixation","html-keyboard-response","189","382040","0.0-1.0-7.0-3.0-0.45","10:38:34","2","","","","","","","fixation","","","","","","","","","","","","","","","","","","",""
"1821","5","pic_response","html-keyboard-response","190","383863","0.0-1.0-7.0-3.0-1.45","10:38:34","2","","","","","","","<div>
            <img class='stim' src=""pictures/sports/8.jpg""></div><div class=""button_prompt"">
                    <b>请用数字键0-9回答</b>
                    </div>","","","","","","","","","","","","","","","","","","",""
"1821","null","sub_response","html-keyboard-response","191","384865","0.0-1.0-7.0-3.0-2.45","10:38:34","2","","","","","","","<div style='text-align: center;'>
                            <span style=""color: red; font-size: 40px""><b>错误！+0 pts</b></span></div>
                            ","","learn","8","8","8","learn","8","8","[0, 1, 2, 3, 4, 5, 6, 7, 8, 9]","45","4","setsize","10S10A","sports","1","0","4","0",""
"null","null","fixation","html-keyboard-response","192","385367","0.0-1.0-7.0-3.0-0.46","10:38:34","2","","","","","","","fixation","","","","","","","","","","","","","","","","","","",""
"2192","3","pic_response","html-keyboard-response","193","387560","0.0-1.0-7.0-3.0-1.46","10:38:34","2","","","","","","","<div>
            <img class='stim' src=""pictures/sports/3.jpg""></div><div class=""button_prompt"">
                    <b>请用数字键0-9回答</b>
                    </div>","","","","","","","","","","","","","","","","","","",""
"2192","null","sub_response","html-keyboard-response","194","388562","0.0-1.0-7.0-3.0-2.46","10:38:34","2","","","","","","","<div style='text-align: center;'>
                            <span style=""color: red; font-size: 40px""><b>错误！+0 pts</b></span></div>
                            ","","learn","3","3","3","learn","3","3","[0, 1, 2, 3, 4, 5, 6, 7, 8, 9]","46","4","setsize","10S10A","sports","1","0","2","0",""
"null","null","fixation","html-keyboard-response","195","389064","0.0-1.0-7.0-3.0-0.47","10:38:34","2","","","","","","","fixation","","","","","","","","","","","","","","","","","","",""
"1796","1","pic_response","html-keyboard-response","196","390862","0.0-1.0-7.0-3.0-1.47","10:38:34","2","","","","","","","<div>
            <img class='stim' src=""pictures/sports/1.jpg""></div><div class=""button_prompt"">
                    <b>请用数字键0-9回答</b>
                    </div>","","","","","","","","","","","","","","","","","","",""
"1796","null","sub_response","html-keyboard-response","197","391864","0.0-1.0-7.0-3.0-2.47","10:38:34","2","","","","","","","<div style='text-align: center;'>
                            <span style=""color: red; font-size: 40px""><b>错误！+0 pts</b></span></div>
                            ","","learn","1","1","1","learn","1","1","[0, 1, 2, 3, 4, 5, 6, 7, 8, 9]","47","4","setsize","10S10A","sports","1","0","0","0",""
"null","null","fixation","html-keyboard-response","198","392366","0.0-1.0-7.0-3.0-0.48","10:38:34","2","","","","","","","fixation","","","","","","","","","","","","","","","","","","",""
"832","8","pic_response","html-keyboard-response","199","393200","0.0-1.0-7.0-3.0-1.48","10:38:34","2","","","","","","","<div>
            <img class='stim' src=""pictures/sports/7.jpg""></div><div class=""button_prompt"">
                    <b>请用数字键0-9回答</b>
                    </div>","","","","","","","","","","","","","","","","","","",""
"832","null","sub_response","html-keyboard-response","200","394202","0.0-1.0-7.0-3.0-2.48","10:38:34","2","","","","","","","<div style='text-align: center;'>
                            <span style=""color: green; font-size: 40px""><b>正确！+1 pts</b></span></div>
                            ","","learn","7","7","7","learn","7","7","[0, 1, 2, 3, 4, 5, 6, 7, 8, 9]","48","4","setsize","10S10A","sports","1","1","7","1",""
"null","null","fixation","html-keyboard-response","201","394704","0.0-1.0-7.0-3.0-0.49","10:38:34","2","","","","","","","fixation","","","","","","","","","","","","","","","","","","",""
"2084","9","pic_response","html-keyboard-response","202","396790","0.0-1.0-7.0-3.0-1.49","10:38:34","2","","","","","","","<div>
            <img class='stim' src=""pictures/sports/9.jpg""></div><div class=""button_prompt"">
                    <b>请用数字键0-9回答</b>
                    </div>","","","","","","","","","","","","","","","","","","",""
"2084","null","sub_response","html-keyboard-response","203","397791","0.0-1.0-7.0-3.0-2.49","10:38:34","2","","","","","","","<div style='text-align: center;'>
                            <span style=""color: red; font-size: 40px""><b>错误！+0 pts</b></span></div>
                            ","","learn","9","9","9","learn","9","9","[0, 1, 2, 3, 4, 5, 6, 7, 8, 9]","49","4","setsize","10S10A","sports","1","0","8","0",""
"null","null","fixation","html-keyboard-response","204","398293","0.0-1.0-7.0-3.0-0.50","10:38:34","2","","","","","","","fixation","","","","","","","","","","","","","","","","","","",""
"1072","7","pic_response","html-keyboard-response","205","399367","0.0-1.0-7.0-3.0-1.50","10:38:34","2","","","","","","","<div>
            <img class='stim' src=""pictures/sports/6.jpg""></div><div class=""button_prompt"">
                    <b>请用数字键0-9回答</b>
                    </div>","","","","","","","","","","","","","","","","","","",""
"1072","null","sub_response","html-keyboard-response","206","400369","0.0-1.0-7.0-3.0-2.50","10:38:34","2","","","","","","","<div style='text-align: center;'>
                            <span style=""color: green; font-size: 40px""><b>正确！+1 pts</b></span></div>
                            ","","learn","6","6","6","learn","6","6","[0, 1, 2, 3, 4, 5, 6, 7, 8, 9]","50","5","setsize","10S10A","sports","1","1","6","1",""
"null","null","fixation","html-keyboard-response","207","400872","0.0-1.0-7.0-3.0-0.51","10:38:34","2","","","","","","","fixation","","","","","","","","","","","","","","","","","","",""
"1742","5","pic_response","html-keyboard-response","208","402615","0.0-1.0-7.0-3.0-1.51","10:38:34","2","","","","","","","<div>
            <img class='stim' src=""pictures/sports/1.jpg""></div><div class=""button_prompt"">
                    <b>请用数字键0-9回答</b>
                    </div>","","","","","","","","","","","","","","","","","","",""
"1742","null","sub_response","html-keyboard-response","209","403616","0.0-1.0-7.0-3.0-2.51","10:38:34","2","","","","","","","<div style='text-align: center;'>
                            <span style=""color: red; font-size: 40px""><b>错误！+0 pts</b></span></div>
                            ","","learn","1","1","1","learn","1","1","[0, 1, 2, 3, 4, 5, 6, 7, 8, 9]","51","5","setsize","10S10A","sports","1","0","4","0",""
"null","null","fixation","html-keyboard-response","210","404118","0.0-1.0-7.0-3.0-0.52","10:38:34","2","","","","","","","fixation","","","","","","","","","","","","","","","","","","",""
"959","6","pic_response","html-keyboard-response","211","405079","0.0-1.0-7.0-3.0-1.52","10:38:34","2","","","","","","","<div>
            <img class='stim' src=""pictures/sports/7.jpg""></div><div class=""button_prompt"">
                    <b>请用数字键0-9回答</b>
                    </div>","","","","","","","","","","","","","","","","","","",""
"959","null","sub_response","html-keyboard-response","212","406081","0.0-1.0-7.0-3.0-2.52","10:38:34","2","","","","","","","<div style='text-align: center;'>
                            <span style=""color: red; font-size: 40px""><b>错误！+0 pts</b></span></div>
                            ","","learn","7","7","7","learn","7","7","[0, 1, 2, 3, 4, 5, 6, 7, 8, 9]","52","5","setsize","10S10A","sports","1","0","5","0",""
"null","null","fixation","html-keyboard-response","213","406584","0.0-1.0-7.0-3.0-0.53","10:38:34","2","","","","","","","fixation","","","","","","","","","","","","","","","","","","",""
"940","2","pic_response","html-keyboard-response","214","407527","0.0-1.0-7.0-3.0-1.53","10:38:34","2","","","","","","","<div>
            <img class='stim' src=""pictures/sports/5.jpg""></div><div class=""button_prompt"">
                    <b>请用数字键0-9回答</b>
                    </div>","","","","","","","","","","","","","","","","","","",""
"940","null","sub_response","html-keyboard-response","215","408530","0.0-1.0-7.0-3.0-2.53","10:38:34","2","","","","","","","<div style='text-align: center;'>
                            <span style=""color: red; font-size: 40px""><b>错误！+0 pts</b></span></div>
                            ","","learn","5","5","5","learn","5","5","[0, 1, 2, 3, 4, 5, 6, 7, 8, 9]","53","5","setsize","10S10A","sports","1","0","1","0",""
"null","null","fixation","html-keyboard-response","216","409032","0.0-1.0-7.0-3.0-0.54","10:38:34","2","","","","","","","fixation","","","","","","","","","","","","","","","","","","",""
"709","1","pic_response","html-keyboard-response","217","409743","0.0-1.0-7.0-3.0-1.54","10:38:34","2","","","","","","","<div>
            <img class='stim' src=""pictures/sports/0.jpg""></div><div class=""button_prompt"">
                    <b>请用数字键0-9回答</b>
                    </div>","","","","","","","","","","","","","","","","","","",""
"709","null","sub_response","html-keyboard-response","218","410746","0.0-1.0-7.0-3.0-2.54","10:38:34","2","","","","","","","<div style='text-align: center;'>
                            <span style=""color: green; font-size: 40px""><b>正确！+1 pts</b></span></div>
                            ","","learn","0","0","0","learn","0","0","[0, 1, 2, 3, 4, 5, 6, 7, 8, 9]","54","5","setsize","10S10A","sports","1","1","0","1",""
"null","null","fixation","html-keyboard-response","219","411248","0.0-1.0-7.0-3.0-0.55","10:38:34","2","","","","","","","fixation","","","","","","","","","","","","","","","","","","",""
"1008","2","pic_response","html-keyboard-response","220","412257","0.0-1.0-7.0-3.0-1.55","10:38:34","2","","","","","","","<div>
            <img class='stim' src=""pictures/sports/2.jpg""></div><div class=""button_prompt"">
                    <b>请用数字键0-9回答</b>
                    </div>","","","","","","","","","","","","","","","","","","",""
"1008","null","sub_response","html-keyboard-response","221","413259","0.0-1.0-7.0-3.0-2.55","10:38:34","2","","","","","","","<div style='text-align: center;'>
                            <span style=""color: red; font-size: 40px""><b>错误！+0 pts</b></span></div>
                            ","","learn","2","2","2","learn","2","2","[0, 1, 2, 3, 4, 5, 6, 7, 8, 9]","55","5","setsize","10S10A","sports","1","0","1","0",""
"null","null","fixation","html-keyboard-response","222","413761","0.0-1.0-7.0-3.0-0.56","10:38:34","2","","","","","","","fixation","","","","","","","","","","","","","","","","","","",""
"1635","3","pic_response","html-keyboard-response","223","415398","0.0-1.0-7.0-3.0-1.56","10:38:34","2","","","","","","","<div>
            <img class='stim' src=""pictures/sports/9.jpg""></div><div class=""button_prompt"">
                    <b>请用数字键0-9回答</b>
                    </div>","","","","","","","","","","","","","","","","","","",""
"1635","null","sub_response","html-keyboard-response","224","416400","0.0-1.0-7.0-3.0-2.56","10:38:34","2","","","","","","","<div style='text-align: center;'>
                            <span style=""color: red; font-size: 40px""><b>错误！+0 pts</b></span></div>
                            ","","learn","9","9","9","learn","9","9","[0, 1, 2, 3, 4, 5, 6, 7, 8, 9]","56","5","setsize","10S10A","sports","1","0","2","0",""
"null","null","fixation","html-keyboard-response","225","416902","0.0-1.0-7.0-3.0-0.57","10:38:34","2","","","","","","","fixation","","","","","","","","","","","","","","","","","","",""
"2337","2","pic_response","html-keyboard-response","226","419240","0.0-1.0-7.0-3.0-1.57","10:38:34","2","","","","","","","<div>
            <img class='stim' src=""pictures/sports/4.jpg""></div><div class=""button_prompt"">
                    <b>请用数字键0-9回答</b>
                    </div>","","","","","","","","","","","","","","","","","","",""
"2337","null","sub_response","html-keyboard-response","227","420243","0.0-1.0-7.0-3.0-2.57","10:38:34","2","","","","","","","<div style='text-align: center;'>
                            <span style=""color: red; font-size: 40px""><b>错误！+0 pts</b></span></div>
                            ","","learn","4","4","4","learn","4","4","[0, 1, 2, 3, 4, 5, 6, 7, 8, 9]","57","5","setsize","10S10A","sports","1","0","1","0",""
"null","null","fixation","html-keyboard-response","228","420746","0.0-1.0-7.0-3.0-0.58","10:38:34","2","","","","","","","fixation","","","","","","","","","","","","","","","","","","",""
"1789","9","pic_response","html-keyboard-response","229","422536","0.0-1.0-7.0-3.0-1.58","10:38:34","2","","","","","","","<div>
            <img class='stim' src=""pictures/sports/8.jpg""></div><div class=""button_prompt"">
                    <b>请用数字键0-9回答</b>
                    </div>","","","","","","","","","","","","","","","","","","",""
"1789","null","sub_response","html-keyboard-response","230","423538","0.0-1.0-7.0-3.0-2.58","10:38:34","2","","","","","","","<div style='text-align: center;'>
                            <span style=""color: green; font-size: 40px""><b>正确！+1 pts</b></span></div>
                            ","","learn","8","8","8","learn","8","8","[0, 1, 2, 3, 4, 5, 6, 7, 8, 9]","58","5","setsize","10S10A","sports","1","1","8","1",""
"null","null","fixation","html-keyboard-response","231","424041","0.0-1.0-7.0-3.0-0.59","10:38:34","2","","","","","","","fixation","","","","","","","","","","","","","","","","","","",""
"979","3","pic_response","html-keyboard-response","232","425022","0.0-1.0-7.0-3.0-1.59","10:38:34","2","","","","","","","<div>
            <img class='stim' src=""pictures/sports/3.jpg""></div><div class=""button_prompt"">
                    <b>请用数字键0-9回答</b>
                    </div>","","","","","","","","","","","","","","","","","","",""
"979","null","sub_response","html-keyboard-response","233","426024","0.0-1.0-7.0-3.0-2.59","10:38:34","2","","","","","","","<div style='text-align: center;'>
                            <span style=""color: red; font-size: 40px""><b>错误！+0 pts</b></span></div>
                            ","","learn","3","3","3","learn","3","3","[0, 1, 2, 3, 4, 5, 6, 7, 8, 9]","59","5","setsize","10S10A","sports","1","0","2","0",""
"null","null","fixation","html-keyboard-response","234","426526","0.0-1.0-7.0-3.0-0.60","10:38:34","2","","","","","","","fixation","","","","","","","","","","","","","","","","","","",""
"919","7","pic_response","html-keyboard-response","235","427447","0.0-1.0-7.0-3.0-1.60","10:38:34","2","","","","","","","<div>
            <img class='stim' src=""pictures/sports/6.jpg""></div><div class=""button_prompt"">
                    <b>请用数字键0-9回答</b>
                    </div>","","","","","","","","","","","","","","","","","","",""
"919","null","sub_response","html-keyboard-response","236","428449","0.0-1.0-7.0-3.0-2.60","10:38:34","2","","","","","","","<div style='text-align: center;'>
                            <span style=""color: green; font-size: 40px""><b>正确！+1 pts</b></span></div>
                            ","","learn","6","6","6","learn","6","6","[0, 1, 2, 3, 4, 5, 6, 7, 8, 9]","60","6","setsize","10S10A","sports","1","1","6","1",""
"null","null","fixation","html-keyboard-response","237","428951","0.0-1.0-7.0-3.0-0.61","10:38:34","2","","","","","","","fixation","","","","","","","","","","","","","","","","","","",""
"2086","4","pic_response","html-keyboard-response","238","431039","0.0-1.0-7.0-3.0-1.61","10:38:34","2","","","","","","","<div>
            <img class='stim' src=""pictures/sports/4.jpg""></div><div class=""button_prompt"">
                    <b>请用数字键0-9回答</b>
                    </div>","","","","","","","","","","","","","","","","","","",""
"2086","null","sub_response","html-keyboard-response","239","432042","0.0-1.0-7.0-3.0-2.61","10:38:34","2","","","","","","","<div style='text-align: center;'>
                            <span style=""color: red; font-size: 40px""><b>错误！+0 pts</b></span></div>
                            ","","learn","4","4","4","learn","4","4","[0, 1, 2, 3, 4, 5, 6, 7, 8, 9]","61","6","setsize","10S10A","sports","1","0","3","0",""
"null","null","fixation","html-keyboard-response","240","432545","0.0-1.0-7.0-3.0-0.62","10:38:34","2","","","","","","","fixation","","","","","","","","","","","","","","","","","","",""
"1212","4","pic_response","html-keyboard-response","241","433759","0.0-1.0-7.0-3.0-1.62","10:38:34","2","","","","","","","<div>
            <img class='stim' src=""pictures/sports/9.jpg""></div><div class=""button_prompt"">
                    <b>请用数字键0-9回答</b>
                    </div>","","","","","","","","","","","","","","","","","","",""
"1212","null","sub_response","html-keyboard-response","242","434762","0.0-1.0-7.0-3.0-2.62","10:38:34","2","","","","","","","<div style='text-align: center;'>
                            <span style=""color: red; font-size: 40px""><b>错误！+0 pts</b></span></div>
                            ","","learn","9","9","9","learn","9","9","[0, 1, 2, 3, 4, 5, 6, 7, 8, 9]","62","6","setsize","10S10A","sports","1","0","3","0",""
"null","null","fixation","html-keyboard-response","243","435264","0.0-1.0-7.0-3.0-0.63","10:38:34","2","","","","","","","fixation","","","","","","","","","","","","","","","","","","",""
"1197","4","pic_response","html-keyboard-response","244","436463","0.0-1.0-7.0-3.0-1.63","10:38:34","2","","","","","","","<div>
            <img class='stim' src=""pictures/sports/7.jpg""></div><div class=""button_prompt"">
                    <b>请用数字键0-9回答</b>
                    </div>","","","","","","","","","","","","","","","","","","",""
"1197","null","sub_response","html-keyboard-response","245","437466","0.0-1.0-7.0-3.0-2.63","10:38:34","2","","","","","","","<div style='text-align: center;'>
                            <span style=""color: red; font-size: 40px""><b>错误！+0 pts</b></span></div>
                            ","","learn","7","7","7","learn","7","7","[0, 1, 2, 3, 4, 5, 6, 7, 8, 9]","63","6","setsize","10S10A","sports","1","0","3","0",""
"null","null","fixation","html-keyboard-response","246","437969","0.0-1.0-7.0-3.0-0.64","10:38:34","2","","","","","","","fixation","","","","","","","","","","","","","","","","","","",""
"795","4","pic_response","html-keyboard-response","247","438766","0.0-1.0-7.0-3.0-1.64","10:38:34","2","","","","","","","<div>
            <img class='stim' src=""pictures/sports/1.jpg""></div><div class=""button_prompt"">
                    <b>请用数字键0-9回答</b>
                    </div>","","","","","","","","","","","","","","","","","","",""
"795","null","sub_response","html-keyboard-response","248","439768","0.0-1.0-7.0-3.0-2.64","10:38:34","2","","","","","","","<div style='text-align: center;'>
                            <span style=""color: red; font-size: 40px""><b>错误！+0 pts</b></span></div>
                            ","","learn","1","1","1","learn","1","1","[0, 1, 2, 3, 4, 5, 6, 7, 8, 9]","64","6","setsize","10S10A","sports","1","0","3","0",""
"null","null","fixation","html-keyboard-response","249","440271","0.0-1.0-7.0-3.0-0.65","10:38:34","2","","","","","","","fixation","","","","","","","","","","","","","","","","","","",""
"2977","1","pic_response","html-keyboard-response","250","443249","0.0-1.0-7.0-3.0-1.65","10:38:34","2","","","","","","","<div>
            <img class='stim' src=""pictures/sports/0.jpg""></div><div class=""button_prompt"">
                    <b>请用数字键0-9回答</b>
                    </div>","","","","","","","","","","","","","","","","","","",""
"2977","null","sub_response","html-keyboard-response","251","444251","0.0-1.0-7.0-3.0-2.65","10:38:34","2","","","","","","","<div style='text-align: center;'>
                            <span style=""color: green; font-size: 40px""><b>正确！+1 pts</b></span></div>
                            ","","learn","0","0","0","learn","0","0","[0, 1, 2, 3, 4, 5, 6, 7, 8, 9]","65","6","setsize","10S10A","sports","1","1","0","1",""
"null","null","fixation","html-keyboard-response","252","444753","0.0-1.0-7.0-3.0-0.66","10:38:34","2","","","","","","","fixation","","","","","","","","","","","","","","","","","","",""
"1436","4","pic_response","html-keyboard-response","253","446191","0.0-1.0-7.0-3.0-1.66","10:38:34","2","","","","","","","<div>
            <img class='stim' src=""pictures/sports/3.jpg""></div><div class=""button_prompt"">
                    <b>请用数字键0-9回答</b>
                    </div>","","","","","","","","","","","","","","","","","","",""
"1436","null","sub_response","html-keyboard-response","254","447193","0.0-1.0-7.0-3.0-2.66","10:38:34","2","","","","","","","<div style='text-align: center;'>
                            <span style=""color: green; font-size: 40px""><b>正确！+1 pts</b></span></div>
                            ","","learn","3","3","3","learn","3","3","[0, 1, 2, 3, 4, 5, 6, 7, 8, 9]","66","6","setsize","10S10A","sports","1","2","3","1",""
"null","null","fixation","html-keyboard-response","255","447695","0.0-1.0-7.0-3.0-0.67","10:38:34","2","","","","","","","fixation","","","","","","","","","","","","","","","","","","",""
"1526","9","pic_response","html-keyboard-response","256","449223","0.0-1.0-7.0-3.0-1.67","10:38:34","2","","","","","","","<div>
            <img class='stim' src=""pictures/sports/8.jpg""></div><div class=""button_prompt"">
                    <b>请用数字键0-9回答</b>
                    </div>","","","","","","","","","","","","","","","","","","",""
"1526","null","sub_response","html-keyboard-response","257","450225","0.0-1.0-7.0-3.0-2.67","10:38:34","2","","","","","","","<div style='text-align: center;'>
                            <span style=""color: green; font-size: 40px""><b>正确！+1 pts</b></span></div>
                            ","","learn","8","8","8","learn","8","8","[0, 1, 2, 3, 4, 5, 6, 7, 8, 9]","67","6","setsize","10S10A","sports","1","3","8","1",""
"null","null","fixation","html-keyboard-response","258","450727","0.0-1.0-7.0-3.0-0.68","10:38:34","2","","","","","","","fixation","","","","","","","","","","","","","","","","","","",""
"1158","5","pic_response","html-keyboard-response","259","451887","0.0-1.0-7.0-3.0-1.68","10:38:34","2","","","","","","","<div>
            <img class='stim' src=""pictures/sports/2.jpg""></div><div class=""button_prompt"">
                    <b>请用数字键0-9回答</b>
                    </div>","","","","","","","","","","","","","","","","","","",""
"1158","null","sub_response","html-keyboard-response","260","452890","0.0-1.0-7.0-3.0-2.68","10:38:34","2","","","","","","","<div style='text-align: center;'>
                            <span style=""color: red; font-size: 40px""><b>错误！+0 pts</b></span></div>
                            ","","learn","2","2","2","learn","2","2","[0, 1, 2, 3, 4, 5, 6, 7, 8, 9]","68","6","setsize","10S10A","sports","1","0","4","0",""
"null","null","fixation","html-keyboard-response","261","453392","0.0-1.0-7.0-3.0-0.69","10:38:34","2","","","","","","","fixation","","","","","","","","","","","","","","","","","","",""
"702","5","pic_response","html-keyboard-response","262","454095","0.0-1.0-7.0-3.0-1.69","10:38:34","2","","","","","","","<div>
            <img class='stim' src=""pictures/sports/5.jpg""></div><div class=""button_prompt"">
                    <b>请用数字键0-9回答</b>
                    </div>","","","","","","","","","","","","","","","","","","",""
"702","null","sub_response","html-keyboard-response","263","455097","0.0-1.0-7.0-3.0-2.69","10:38:34","2","","","","","","","<div style='text-align: center;'>
                            <span style=""color: red; font-size: 40px""><b>错误！+0 pts</b></span></div>
                            ","","learn","5","5","5","learn","5","5","[0, 1, 2, 3, 4, 5, 6, 7, 8, 9]","69","6","setsize","10S10A","sports","1","0","4","0",""
"null","null","fixation","html-keyboard-response","264","455599","0.0-1.0-7.0-3.0-0.70","10:38:34","2","","","","","","","fixation","","","","","","","","","","","","","","","","","","",""
"2374","5","pic_response","html-keyboard-response","265","457975","0.0-1.0-7.0-3.0-1.70","10:38:34","2","","","","","","","<div>
            <img class='stim' src=""pictures/sports/1.jpg""></div><div class=""button_prompt"">
                    <b>请用数字键0-9回答</b>
                    </div>","","","","","","","","","","","","","","","","","","",""
"2374","null","sub_response","html-keyboard-response","266","458977","0.0-1.0-7.0-3.0-2.70","10:38:34","2","","","","","","","<div style='text-align: center;'>
                            <span style=""color: red; font-size: 40px""><b>错误！+0 pts</b></span></div>
                            ","","learn","1","1","1","learn","1","1","[0, 1, 2, 3, 4, 5, 6, 7, 8, 9]","70","7","setsize","10S10A","sports","1","0","4","0",""
"null","null","fixation","html-keyboard-response","267","459480","0.0-1.0-7.0-3.0-0.71","10:38:34","2","","","","","","","fixation","","","","","","","","","","","","","","","","","","",""
"1038","7","pic_response","html-keyboard-response","268","460519","0.0-1.0-7.0-3.0-1.71","10:38:34","2","","","","","","","<div>
            <img class='stim' src=""pictures/sports/6.jpg""></div><div class=""button_prompt"">
                    <b>请用数字键0-9回答</b>
                    </div>","","","","","","","","","","","","","","","","","","",""
"1038","null","sub_response","html-keyboard-response","269","461521","0.0-1.0-7.0-3.0-2.71","10:38:34","2","","","","","","","<div style='text-align: center;'>
                            <span style=""color: green; font-size: 40px""><b>正确！+1 pts</b></span></div>
                            ","","learn","6","6","6","learn","6","6","[0, 1, 2, 3, 4, 5, 6, 7, 8, 9]","71","7","setsize","10S10A","sports","1","1","6","1",""
"null","null","fixation","html-keyboard-response","270","462023","0.0-1.0-7.0-3.0-0.72","10:38:34","2","","","","","","","fixation","","","","","","","","","","","","","","","","","","",""
"1576","1","pic_response","html-keyboard-response","271","463601","0.0-1.0-7.0-3.0-1.72","10:38:34","2","","","","","","","<div>
            <img class='stim' src=""pictures/sports/0.jpg""></div><div class=""button_prompt"">
                    <b>请用数字键0-9回答</b>
                    </div>","","","","","","","","","","","","","","","","","","",""
"1576","null","sub_response","html-keyboard-response","272","464603","0.0-1.0-7.0-3.0-2.72","10:38:34","2","","","","","","","<div style='text-align: center;'>
                            <span style=""color: green; font-size: 40px""><b>正确！+1 pts</b></span></div>
                            ","","learn","0","0","0","learn","0","0","[0, 1, 2, 3, 4, 5, 6, 7, 8, 9]","72","7","setsize","10S10A","sports","1","2","0","1",""
"null","null","fixation","html-keyboard-response","273","465106","0.0-1.0-7.0-3.0-0.73","10:38:34","2","","","","","","","fixation","","","","","","","","","","","","","","","","","","",""
"2196","6","pic_response","html-keyboard-response","274","467303","0.0-1.0-7.0-3.0-1.73","10:38:34","2","","","","","","","<div>
            <img class='stim' src=""pictures/sports/4.jpg""></div><div class=""button_prompt"">
                    <b>请用数字键0-9回答</b>
                    </div>","","","","","","","","","","","","","","","","","","",""
"2196","null","sub_response","html-keyboard-response","275","468305","0.0-1.0-7.0-3.0-2.73","10:38:34","2","","","","","","","<div style='text-align: center;'>
                            <span style=""color: red; font-size: 40px""><b>错误！+0 pts</b></span></div>
                            ","","learn","4","4","4","learn","4","4","[0, 1, 2, 3, 4, 5, 6, 7, 8, 9]","73","7","setsize","10S10A","sports","1","0","5","0",""
"null","null","fixation","html-keyboard-response","276","468808","0.0-1.0-7.0-3.0-0.74","10:38:34","2","","","","","","","fixation","","","","","","","","","","","","","","","","","","",""
"751","6","pic_response","html-keyboard-response","277","469560","0.0-1.0-7.0-3.0-1.74","10:38:34","2","","","","","","","<div>
            <img class='stim' src=""pictures/sports/9.jpg""></div><div class=""button_prompt"">
                    <b>请用数字键0-9回答</b>
                    </div>","","","","","","","","","","","","","","","","","","",""
"751","null","sub_response","html-keyboard-response","278","470562","0.0-1.0-7.0-3.0-2.74","10:38:34","2","","","","","","","<div style='text-align: center;'>
                            <span style=""color: red; font-size: 40px""><b>错误！+0 pts</b></span></div>
                            ","","learn","9","9","9","learn","9","9","[0, 1, 2, 3, 4, 5, 6, 7, 8, 9]","74","7","setsize","10S10A","sports","1","0","5","0",""
"null","null","fixation","html-keyboard-response","279","471064","0.0-1.0-7.0-3.0-0.75","10:38:34","2","","","","","","","fixation","","","","","","","","","","","","","","","","","","",""
"1638","2","pic_response","html-keyboard-response","280","472704","0.0-1.0-7.0-3.0-1.75","10:38:34","2","","","","","","","<div>
            <img class='stim' src=""pictures/sports/5.jpg""></div><div class=""button_prompt"">
                    <b>请用数字键0-9回答</b>
                    </div>","","","","","","","","","","","","","","","","","","",""
"1638","null","sub_response","html-keyboard-response","281","473707","0.0-1.0-7.0-3.0-2.75","10:38:34","2","","","","","","","<div style='text-align: center;'>
                            <span style=""color: red; font-size: 40px""><b>错误！+0 pts</b></span></div>
                            ","","learn","5","5","5","learn","5","5","[0, 1, 2, 3, 4, 5, 6, 7, 8, 9]","75","7","setsize","10S10A","sports","1","0","1","0",""
"null","null","fixation","html-keyboard-response","282","474209","0.0-1.0-7.0-3.0-0.76","10:38:34","2","","","","","","","fixation","","","","","","","","","","","","","","","","","","",""
"1110","9","pic_response","html-keyboard-response","283","475321","0.0-1.0-7.0-3.0-1.76","10:38:34","2","","","","","","","<div>
            <img class='stim' src=""pictures/sports/8.jpg""></div><div class=""button_prompt"">
                    <b>请用数字键0-9回答</b>
                    </div>","","","","","","","","","","","","","","","","","","",""
"1110","null","sub_response","html-keyboard-response","284","476322","0.0-1.0-7.0-3.0-2.76","10:38:34","2","","","","","","","<div style='text-align: center;'>
                            <span style=""color: green; font-size: 40px""><b>正确！+1 pts</b></span></div>
                            ","","learn","8","8","8","learn","8","8","[0, 1, 2, 3, 4, 5, 6, 7, 8, 9]","76","7","setsize","10S10A","sports","1","1","8","1",""
"null","null","fixation","html-keyboard-response","285","476825","0.0-1.0-7.0-3.0-0.77","10:38:34","2","","","","","","","fixation","","","","","","","","","","","","","","","","","","",""
"2014","1","pic_response","html-keyboard-response","286","478840","0.0-1.0-7.0-3.0-1.77","10:38:34","2","","","","","","","<div>
            <img class='stim' src=""pictures/sports/2.jpg""></div><div class=""button_prompt"">
                    <b>请用数字键0-9回答</b>
                    </div>","","","","","","","","","","","","","","","","","","",""
"2014","null","sub_response","html-keyboard-response","287","479843","0.0-1.0-7.0-3.0-2.77","10:38:34","2","","","","","","","<div style='text-align: center;'>
                            <span style=""color: red; font-size: 40px""><b>错误！+0 pts</b></span></div>
                            ","","learn","2","2","2","learn","2","2","[0, 1, 2, 3, 4, 5, 6, 7, 8, 9]","77","7","setsize","10S10A","sports","1","0","0","0",""
"null","null","fixation","html-keyboard-response","288","480345","0.0-1.0-7.0-3.0-0.78","10:38:34","2","","","","","","","fixation","","","","","","","","","","","","","","","","","","",""
"1540","3","pic_response","html-keyboard-response","289","481887","0.0-1.0-7.0-3.0-1.78","10:38:34","2","","","","","","","<div>
            <img class='stim' src=""pictures/sports/7.jpg""></div><div class=""button_prompt"">
                    <b>请用数字键0-9回答</b>
                    </div>","","","","","","","","","","","","","","","","","","",""
"1540","null","sub_response","html-keyboard-response","290","482889","0.0-1.0-7.0-3.0-2.78","10:38:34","2","","","","","","","<div style='text-align: center;'>
                            <span style=""color: red; font-size: 40px""><b>错误！+0 pts</b></span></div>
                            ","","learn","7","7","7","learn","7","7","[0, 1, 2, 3, 4, 5, 6, 7, 8, 9]","78","7","setsize","10S10A","sports","1","0","2","0",""
"null","null","fixation","html-keyboard-response","291","483390","0.0-1.0-7.0-3.0-0.79","10:38:34","2","","","","","","","fixation","","","","","","","","","","","","","","","","","","",""
"672","2","pic_response","html-keyboard-response","292","484064","0.0-1.0-7.0-3.0-1.79","10:38:34","2","","","","","","","<div>
            <img class='stim' src=""pictures/sports/3.jpg""></div><div class=""button_prompt"">
                    <b>请用数字键0-9回答</b>
                    </div>","","","","","","","","","","","","","","","","","","",""
"672","null","sub_response","html-keyboard-response","293","485066","0.0-1.0-7.0-3.0-2.79","10:38:34","2","","","","","","","<div style='text-align: center;'>
                            <span style=""color: red; font-size: 40px""><b>错误！+0 pts</b></span></div>
                            ","","learn","3","3","3","learn","3","3","[0, 1, 2, 3, 4, 5, 6, 7, 8, 9]","79","7","setsize","10S10A","sports","1","0","1","0",""
"null","null","fixation","html-keyboard-response","294","485567","0.0-1.0-7.0-3.0-0.80","10:38:34","2","","","","","","","fixation","","","","","","","","","","","","","","","","","","",""
"701","2","pic_response","html-keyboard-response","295","486271","0.0-1.0-7.0-3.0-1.80","10:38:34","2","","","","","","","<div>
            <img class='stim' src=""pictures/sports/5.jpg""></div><div class=""button_prompt"">
                    <b>请用数字键0-9回答</b>
                    </div>","","","","","","","","","","","","","","","","","","",""
"701","null","sub_response","html-keyboard-response","296","487273","0.0-1.0-7.0-3.0-2.80","10:38:34","2","","","","","","","<div style='text-align: center;'>
                            <span style=""color: red; font-size: 40px""><b>错误！+0 pts</b></span></div>
                            ","","learn","5","5","5","learn","5","5","[0, 1, 2, 3, 4, 5, 6, 7, 8, 9]","80","8","setsize","10S10A","sports","1","0","1","0",""
"null","null","fixation","html-keyboard-response","297","487774","0.0-1.0-7.0-3.0-0.81","10:38:34","2","","","","","","","fixation","","","","","","","","","","","","","","","","","","",""
"1359","2","pic_response","html-keyboard-response","298","489135","0.0-1.0-7.0-3.0-1.81","10:38:34","2","","","","","","","<div>
            <img class='stim' src=""pictures/sports/9.jpg""></div><div class=""button_prompt"">
                    <b>请用数字键0-9回答</b>
                    </div>","","","","","","","","","","","","","","","","","","",""
"1359","null","sub_response","html-keyboard-response","299","490138","0.0-1.0-7.0-3.0-2.81","10:38:34","2","","","","","","","<div style='text-align: center;'>
                            <span style=""color: red; font-size: 40px""><b>错误！+0 pts</b></span></div>
                            ","","learn","9","9","9","learn","9","9","[0, 1, 2, 3, 4, 5, 6, 7, 8, 9]","81","8","setsize","10S10A","sports","1","0","1","0",""
"null","null","fixation","html-keyboard-response","300","490640","0.0-1.0-7.0-3.0-0.82","10:38:34","2","","","","","","","fixation","","","","","","","","","","","","","","","","","","",""
"1429","2","pic_response","html-keyboard-response","301","492071","0.0-1.0-7.0-3.0-1.82","10:38:34","2","","","","","","","<div>
            <img class='stim' src=""pictures/sports/3.jpg""></div><div class=""button_prompt"">
                    <b>请用数字键0-9回答</b>
                    </div>","","","","","","","","","","","","","","","","","","",""
"1429","null","sub_response","html-keyboard-response","302","493074","0.0-1.0-7.0-3.0-2.82","10:38:34","2","","","","","","","<div style='text-align: center;'>
                            <span style=""color: red; font-size: 40px""><b>错误！+0 pts</b></span></div>
                            ","","learn","3","3","3","learn","3","3","[0, 1, 2, 3, 4, 5, 6, 7, 8, 9]","82","8","setsize","10S10A","sports","1","0","1","0",""
"null","null","fixation","html-keyboard-response","303","493576","0.0-1.0-7.0-3.0-0.83","10:38:34","2","","","","","","","fixation","","","","","","","","","","","","","","","","","","",""
"1453","2","pic_response","html-keyboard-response","304","495031","0.0-1.0-7.0-3.0-1.83","10:38:34","2","","","","","","","<div>
            <img class='stim' src=""pictures/sports/4.jpg""></div><div class=""button_prompt"">
                    <b>请用数字键0-9回答</b>
                    </div>","","","","","","","","","","","","","","","","","","",""
"1453","null","sub_response","html-keyboard-response","305","496034","0.0-1.0-7.0-3.0-2.83","10:38:34","2","","","","","","","<div style='text-align: center;'>
                            <span style=""color: red; font-size: 40px""><b>错误！+0 pts</b></span></div>
                            ","","learn","4","4","4","learn","4","4","[0, 1, 2, 3, 4, 5, 6, 7, 8, 9]","83","8","setsize","10S10A","sports","1","0","1","0",""
"null","null","fixation","html-keyboard-response","306","496537","0.0-1.0-7.0-3.0-0.84","10:38:34","2","","","","","","","fixation","","","","","","","","","","","","","","","","","","",""
"964","7","pic_response","html-keyboard-response","307","497503","0.0-1.0-7.0-3.0-1.84","10:38:34","2","","","","","","","<div>
            <img class='stim' src=""pictures/sports/6.jpg""></div><div class=""button_prompt"">
                    <b>请用数字键0-9回答</b>
                    </div>","","","","","","","","","","","","","","","","","","",""
"964","null","sub_response","html-keyboard-response","308","498504","0.0-1.0-7.0-3.0-2.84","10:38:34","2","","","","","","","<div style='text-align: center;'>
                            <span style=""color: green; font-size: 40px""><b>正确！+1 pts</b></span></div>
                            ","","learn","6","6","6","learn","6","6","[0, 1, 2, 3, 4, 5, 6, 7, 8, 9]","84","8","setsize","10S10A","sports","1","1","6","1",""
"null","null","fixation","html-keyboard-response","309","499006","0.0-1.0-7.0-3.0-0.85","10:38:34","2","","","","","","","fixation","","","","","","","","","","","","","","","","","","",""
"895","9","pic_response","html-keyboard-response","310","499903","0.0-1.0-7.0-3.0-1.85","10:38:34","2","","","","","","","<div>
            <img class='stim' src=""pictures/sports/8.jpg""></div><div class=""button_prompt"">
                    <b>请用数字键0-9回答</b>
                    </div>","","","","","","","","","","","","","","","","","","",""
"895","null","sub_response","html-keyboard-response","311","500905","0.0-1.0-7.0-3.0-2.85","10:38:34","2","","","","","","","<div style='text-align: center;'>
                            <span style=""color: green; font-size: 40px""><b>正确！+1 pts</b></span></div>
                            ","","learn","8","8","8","learn","8","8","[0, 1, 2, 3, 4, 5, 6, 7, 8, 9]","85","8","setsize","10S10A","sports","1","2","8","1",""
"null","null","fixation","html-keyboard-response","312","501407","0.0-1.0-7.0-3.0-0.86","10:38:34","2","","","","","","","fixation","","","","","","","","","","","","","","","","","","",""
"1087","2","pic_response","html-keyboard-response","313","502495","0.0-1.0-7.0-3.0-1.86","10:38:34","2","","","","","","","<div>
            <img class='stim' src=""pictures/sports/2.jpg""></div><div class=""button_prompt"">
                    <b>请用数字键0-9回答</b>
                    </div>","","","","","","","","","","","","","","","","","","",""
"1087","null","sub_response","html-keyboard-response","314","503498","0.0-1.0-7.0-3.0-2.86","10:38:34","2","","","","","","","<div style='text-align: center;'>
                            <span style=""color: red; font-size: 40px""><b>错误！+0 pts</b></span></div>
                            ","","learn","2","2","2","learn","2","2","[0, 1, 2, 3, 4, 5, 6, 7, 8, 9]","86","8","setsize","10S10A","sports","1","0","1","0",""
"null","null","fixation","html-keyboard-response","315","504000","0.0-1.0-7.0-3.0-0.87","10:38:34","2","","","","","","","fixation","","","","","","","","","","","","","","","","","","",""
"701","2","pic_response","html-keyboard-response","316","504703","0.0-1.0-7.0-3.0-1.87","10:38:34","2","","","","","","","<div>
            <img class='stim' src=""pictures/sports/7.jpg""></div><div class=""button_prompt"">
                    <b>请用数字键0-9回答</b>
