"rt","response","screen_id","trial_type","trial_index","time_elapsed","internal_node_id","start_time","n_Prac","success","timeout","failed_images","failed_audio","failed_video","view_history","stimulus","question_order","stage","s","word","word_id","phase","a_cor","a_real","a_ava","trial","tps","task_type","block_typ","pic_typ","block_id","cum_r","a","r","plugin_name"
"22893","{""sub_id"":""001"",""task_type"":""task1"",""name"":""yuezihan"",""gender"":""F""}","basic_info","survey-html-form","0","22897","0.0-0.0","19:36:59","2","","","","","","","","","","","","","","","","","","","","","","","","","",""
"","","","preload","1","24485","0.0-1.0-0.0","19:36:59","2","true","false","[]","[]","[]","","","","","","","","","","","","","","","","","","","","",""
"","","","preload","2","24673","0.0-1.0-1.0","19:36:59","2","true","false","[]","[]","[]","","","","","","","","","","","","","","","","","","","","",""
"","","","fullscreen","3","26774","0.0-1.0-2.0","19:36:59","2","true","","","","","","","","","","","","","","","","","","","","","","","","",""
"34456","","instruct","instructions","4","61230","0.0-1.0-3.0-0.0","19:36:59","2","","","","","","[{""page_index"":0,""viewing_time"":13271},{""page_index"":1,""viewing_time"":992},{""page_index"":0,""viewing_time"":1666},{""page_index"":1,""viewing_time"":11652},{""page_index"":2,""viewing_time"":6874}]","","","","","","","","","","","","","","","","","","","",""
"32409","{""Q0"":"""",""task1"":""<span style='font-size: 24px'>学习图片和数字的对应关系</span>"",""task2"":""<span style='font-size: 24px'> 数字键1-3 </span>"",""task3"":""<span style='font-size: 24px'> 看到图片选出正确对应的数字 </span>""}","question","survey-multi-choice","5","93641","0.0-1.0-3.0-1.0","19:36:59","2","","","","","","","","[0,1,2,3]","","","","","","","","","","","","","","","","","",""
"3759"," ","inst_q","html-keyboard-response","6","97401","0.0-1.0-3.0-2.0","19:36:59","2","","","","","","","inst","","1","","","","","","","","","","","","","","","","",""
"46258","","instruct","instructions","7","143660","0.0-1.0-3.1-0.1","19:36:59","2","","","","","","[{""page_index"":0,""viewing_time"":8614},{""page_index"":1,""viewing_time"":11790},{""page_index"":0,""viewing_time"":8764},{""page_index"":1,""viewing_time"":2790},{""page_index"":2,""viewing_time"":5198},{""page_index"":1,""viewing_time"":8558},{""page_index"":2,""viewing_time"":544}]","","","","","","","","","","","","","","","","","","","",""
"7444","{""Q0"":"""",""task1"":""<span style='font-size: 24px'>学习图片和数字的对应关系</span>"",""task2"":""<span style='font-size: 24px'> 数字键1-3 </span>"",""task3"":""<span style='font-size: 24px'> 看到图片选出正确对应的数字 </span>""}","question","survey-multi-choice","8","151105","0.0-1.0-3.1-1.1","19:36:59","2","","","","","","","","[0,1,2,3]","","","","","","","","","","","","","","","","","",""
"3503"," ","inst_q","html-keyboard-response","9","154608","0.0-1.0-3.1-2.1","19:36:59","2","","","","","","","inst","","1","","","","","","","","","","","","","","","","",""
"25036","","instruct","instructions","10","179644","0.0-1.0-3.2-0.2","19:36:59","2","","","","","","[{""page_index"":0,""viewing_time"":9135},{""page_index"":1,""viewing_time"":7826},{""page_index"":2,""viewing_time"":8074}]","","","","","","","","","","","","","","","","","","","",""
"3708","{""Q0"":"""",""task1"":""<span style='font-size: 24px'>选择正确按钮获得更多能量</span>"",""task2"":""<span style='font-size: 24px'> 数字键1-3 </span>"",""task3"":""<span style='font-size: 24px'> 看到图片选出正确对应的数字 </span>""}","question","survey-multi-choice","11","183353","0.0-1.0-3.2-1.2","19:36:59","2","","","","","","","","[0,1,2,3]","","","","","","","","","","","","","","","","","",""
"1890"," ","inst_q","html-keyboard-response","12","185243","0.0-1.0-3.2-2.2","19:36:59","2","","","","","","","inst","","1","","","","","","","","","","","","","","","","",""
"11243","","instruct","instructions","13","196486","0.0-1.0-3.3-0.3","19:36:59","2","","","","","","[{""page_index"":0,""viewing_time"":2466},{""page_index"":1,""viewing_time"":3902},{""page_index"":2,""viewing_time"":4874}]","","","","","","","","","","","","","","","","","","","",""
"3686","{""Q0"":"""",""task1"":""<span style='font-size: 24px'>选择正确按钮获得更多能量</span>"",""task2"":""<span style='font-size: 24px'> 数字键1-3 </span>"",""task3"":""<span style='font-size: 24px'> 看到图片选出正确对应的数字 </span>""}","question","survey-multi-choice","14","200173","0.0-1.0-3.3-1.3","19:36:59","2","","","","","","","","[0,1,2,3]","","","","","","","","","","","","","","","","","",""
"1678"," ","inst_q","html-keyboard-response","15","201852","0.0-1.0-3.3-2.3","19:36:59","2","","","","","","","inst","","1","","","","","","","","","","","","","","","","",""
"13549","","instruct","instructions","16","215402","0.0-1.0-3.4-0.4","19:36:59","2","","","","","","[{""page_index"":0,""viewing_time"":5199},{""page_index"":1,""viewing_time"":5060},{""page_index"":2,""viewing_time"":3290}]","","","","","","","","","","","","","","","","","","","",""
"2914","{""Q0"":"""",""task1"":""<span style='font-size: 24px'>选择正确按钮获得更多能量</span>"",""task2"":""<span style='font-size: 24px'> 数字键1-3 </span>"",""task3"":""<span style='font-size: 24px'> 看到图片选出正确对应的数字 </span>""}","question","survey-multi-choice","17","218317","0.0-1.0-3.4-1.4","19:36:59","2","","","","","","","","[0,1,2,3]","","","","","","","","","","","","","","","","","",""
"1200"," ","inst_q","html-keyboard-response","18","219518","0.0-1.0-3.4-2.4","19:36:59","2","","","","","","","inst","","1","","","","","","","","","","","","","","","","",""
"7922","","instruct","instructions","19","227440","0.0-1.0-3.5-0.5","19:36:59","2","","","","","","[{""page_index"":0,""viewing_time"":3597},{""page_index"":1,""viewing_time"":2500},{""page_index"":2,""viewing_time"":1824}]","","","","","","","","","","","","","","","","","","","",""
"11560","{""Q0"":"""",""task1"":""<span style='font-size: 24px'>学习图片和数字的对应关系</span>"",""task2"":""<span style='font-size: 24px'> 图片下方标注为可用的数字键（数字键1-3或0-9） </span>"",""task3"":""<span style='font-size: 24px'> 看到图片选出正确对应的数字 </span>""}","question","survey-multi-choice","20","239001","0.0-1.0-3.5-1.5","19:36:59","2","","","","","","","","[0,1,2,3]","","","","","","","","","","","","","","","","","",""
"4823"," ","inst_q","html-keyboard-response","21","243824","0.0-1.0-3.5-2.5","19:36:59","2","","","","","","","inst","","1","","","","","","","","","","","","","","","","",""
"","","","preload","22","244184","0.0-1.0-4.0-0.0","19:36:59","2","true","false","[]","[]","[]","","","","","","","","","","","","","","","","","","","","",""
"8117"," ","","html-keyboard-response","23","252302","0.0-1.0-4.0-1.0","19:36:59","2","","","","","","","<div style='font-size: 32px; text-align: center;'
                    <p>请学习图片和数字之间的对应关系</p>
                    <p>我们将<span style='color: blue'><b> 告诉 </b></span>您选择的对错。请根据反馈学习。</p>
                    <p>请按""空格""继续实验。</p></div>","","","","","","","","","","","","","","","","","","",""
"11193"," ","inst","html-keyboard-response","24","263495","0.0-1.0-4.0-2.0","19:36:59","2","","","","","","","<img class='instruct_stim' src=""instruction/prac3.PNG""></div>","","","","","","","","","","","","","","","","","","",""
"null","null","fixation","html-keyboard-response","25","263997","0.0-1.0-4.0-3.0-0.0","19:36:59","2","","","","","","","fixation","","","","","","","","","","","","","","","","","","",""
"1280","2","pic_response","html-keyboard-response","26","265278","0.0-1.0-4.0-3.0-1.0","19:36:59","2","","","","","","","<div>
            <img class='stim' src=""pictures/prac/1.jpg""></div><div class=""button_prompt"">
                        <b>请用数字键1-3回答</b>
                        </div>","","","","","","","","","","","","","","","","","","",""
"1280","null","sub_response","html-keyboard-response","27","266279","0.0-1.0-4.0-3.0-2.0","19:36:59","2","","","","","","","<div style='text-align: center;'>
                            <span style=""color: red; font-size: 40px""><b>错误！+0 pts</b></span></div>
                            ","","learn","1","1","1","learn","0","0","[0, 1, 2]","0","0","setsize","99","prac","0","0","1","0",""
"null","null","fixation","html-keyboard-response","28","266780","0.0-1.0-4.0-3.0-0.1","19:36:59","2","","","","","","","fixation","","","","","","","","","","","","","","","","","","",""
"955","3","pic_response","html-keyboard-response","29","267735","0.0-1.0-4.0-3.0-1.1","19:36:59","2","","","","","","","<div>
            <img class='stim' src=""pictures/prac/2.jpg""></div><div class=""button_prompt"">
                        <b>请用数字键1-3回答</b>
                        </div>","","","","","","","","","","","","","","","","","","",""
"955","null","sub_response","html-keyboard-response","30","268737","0.0-1.0-4.0-3.0-2.1","19:36:59","2","","","","","","","<div style='text-align: center;'>
                            <span style=""color: green; font-size: 40px""><b>正确！+1 pts</b></span></div>
                            ","","learn","2","2","2","learn","2","2","[0, 1, 2]","1","0","setsize","99","prac","0","1","2","1",""
"null","null","fixation","html-keyboard-response","31","269238","0.0-1.0-4.0-3.0-0.2","19:36:59","2","","","","","","","fixation","","","","","","","","","","","","","","","","","","",""
"721","1","pic_response","html-keyboard-response","32","269960","0.0-1.0-4.0-3.0-1.2","19:36:59","2","","","","","","","<div>
            <img class='stim' src=""pictures/prac/0.jpg""></div><div class=""button_prompt"">
                        <b>请用数字键1-3回答</b>
                        </div>","","","","","","","","","","","","","","","","","","",""
"721","null","sub_response","html-keyboard-response","33","270961","0.0-1.0-4.0-3.0-2.2","19:36:59","2","","","","","","","<div style='text-align: center;'>
                            <span style=""color: green; font-size: 40px""><b>正确！+1 pts</b></span></div>
                            ","","learn","0","0","0","learn","0","0","[0, 1, 2]","2","0","setsize","99","prac","0","2","0","1",""
"null","null","fixation","html-keyboard-response","34","271462","0.0-1.0-4.0-3.0-0.3","19:36:59","2","","","","","","","fixation","","","","","","","","","","","","","","","","","","",""
"494","2","pic_response","html-keyboard-response","35","271956","0.0-1.0-4.0-3.0-1.3","19:36:59","2","","","","","","","<div>
            <img class='stim' src=""pictures/prac/1.jpg""></div><div class=""button_prompt"">
                        <b>请用数字键1-3回答</b>
                        </div>","","","","","","","","","","","","","","","","","","",""
"494","null","sub_response","html-keyboard-response","36","272958","0.0-1.0-4.0-3.0-2.3","19:36:59","2","","","","","","","<div style='text-align: center;'>
                            <span style=""color: red; font-size: 40px""><b>错误！+0 pts</b></span></div>
                            ","","learn","1","1","1","learn","0","0","[0, 1, 2]","3","1","setsize","99","prac","0","0","1","0",""
"null","null","fixation","html-keyboard-response","37","273459","0.0-1.0-4.0-3.0-0.4","19:36:59","2","","","","","","","fixation","","","","","","","","","","","","","","","","","","",""
"648","3","pic_response","html-keyboard-response","38","274108","0.0-1.0-4.0-3.0-1.4","19:36:59","2","","","","","","","<div>
            <img class='stim' src=""pictures/prac/2.jpg""></div><div class=""button_prompt"">
                        <b>请用数字键1-3回答</b>
                        </div>","","","","","","","","","","","","","","","","","","",""
"648","null","sub_response","html-keyboard-response","39","275109","0.0-1.0-4.0-3.0-2.4","19:36:59","2","","","","","","","<div style='text-align: center;'>
                            <span style=""color: green; font-size: 40px""><b>正确！+1 pts</b></span></div>
                            ","","learn","2","2","2","learn","2","2","[0, 1, 2]","4","1","setsize","99","prac","0","1","2","1",""
"null","null","fixation","html-keyboard-response","40","275610","0.0-1.0-4.0-3.0-0.5","19:36:59","2","","","","","","","fixation","","","","","","","","","","","","","","","","","","",""
"681","1","pic_response","html-keyboard-response","41","276292","0.0-1.0-4.0-3.0-1.5","19:36:59","2","","","","","","","<div>
            <img class='stim' src=""pictures/prac/0.jpg""></div><div class=""button_prompt"">
                        <b>请用数字键1-3回答</b>
                        </div>","","","","","","","","","","","","","","","","","","",""
"681","null","sub_response","html-keyboard-response","42","277293","0.0-1.0-4.0-3.0-2.5","19:36:59","2","","","","","","","<div style='text-align: center;'>
                            <span style=""color: green; font-size: 40px""><b>正确！+1 pts</b></span></div>
                            ","","learn","0","0","0","learn","0","0","[0, 1, 2]","5","1","setsize","99","prac","0","2","0","1",""
"","","","preload","43","277296","0.0-1.0-4.1-0.1","19:36:59","2","true","false","[]","[]","[]","","","","","","","","","","","","","","","","","","","","",""
"2666"," ","","html-keyboard-response","44","279962","0.0-1.0-4.1-1.1","19:36:59","2","","","","","","","<div style='font-size: 32px; text-align: center;'
                    <p>请学习图片和数字之间的对应关系</p>
                    <p>我们将<span style='color: blue'><b> 告诉 </b></span>您选择的对错。请根据反馈学习。</p>
                    <p>请按""空格""继续实验。</p></div>","","","","","","","","","","","","","","","","","","",""
"5031"," ","inst","html-keyboard-response","45","284993","0.0-1.0-4.1-2.1","19:36:59","2","","","","","","","<img class='instruct_stim' src=""instruction/prac3.PNG""></div>","","","","","","","","","","","","","","","","","","",""
"null","null","fixation","html-keyboard-response","46","285494","0.0-1.0-4.1-3.1-0.6","19:36:59","2","","","","","","","fixation","","","","","","","","","","","","","","","","","","",""
"417","1","pic_response","html-keyboard-response","47","285911","0.0-1.0-4.1-3.1-1.6","19:36:59","2","","","","","","","<div>
            <img class='stim' src=""pictures/prac/1.jpg""></div><div class=""button_prompt"">
                        <b>请用数字键1-3回答</b>
                        </div>","","","","","","","","","","","","","","","","","","",""
"417","null","sub_response","html-keyboard-response","48","286912","0.0-1.0-4.1-3.1-2.6","19:36:59","2","","","","","","","<div style='text-align: center;'>
                            <span style=""color: green; font-size: 40px""><b>正确！+1 pts</b></span></div>
                            ","","learn","1","1","1","learn","0","0","[0, 1, 2]","0","0","setsize","99","prac","0","3","0","1",""
"null","null","fixation","html-keyboard-response","49","287414","0.0-1.0-4.1-3.1-0.7","19:36:59","2","","","","","","","fixation","","","","","","","","","","","","","","","","","","",""
"1228","3","pic_response","html-keyboard-response","50","288642","0.0-1.0-4.1-3.1-1.7","19:36:59","2","","","","","","","<div>
            <img class='stim' src=""pictures/prac/2.jpg""></div><div class=""button_prompt"">
                        <b>请用数字键1-3回答</b>
                        </div>","","","","","","","","","","","","","","","","","","",""
"1228","null","sub_response","html-keyboard-response","51","289643","0.0-1.0-4.1-3.1-2.7","19:36:59","2","","","","","","","<div style='text-align: center;'>
                            <span style=""color: green; font-size: 40px""><b>正确！+1 pts</b></span></div>
                            ","","learn","2","2","2","learn","2","2","[0, 1, 2]","1","0","setsize","99","prac","0","4","2","1",""
"null","null","fixation","html-keyboard-response","52","290145","0.0-1.0-4.1-3.1-0.8","19:36:59","2","","","","","","","fixation","","","","","","","","","","","","","","","","","","",""
"721","1","pic_response","html-keyboard-response","53","290867","0.0-1.0-4.1-3.1-1.8","19:36:59","2","","","","","","","<div>
            <img class='stim' src=""pictures/prac/0.jpg""></div><div class=""button_prompt"">
                        <b>请用数字键1-3回答</b>
                        </div>","","","","","","","","","","","","","","","","","","",""
"721","null","sub_response","html-keyboard-response","54","291869","0.0-1.0-4.1-3.1-2.8","19:36:59","2","","","","","","","<div style='text-align: center;'>
                            <span style=""color: green; font-size: 40px""><b>正确！+1 pts</b></span></div>
                            ","","learn","0","0","0","learn","0","0","[0, 1, 2]","2","0","setsize","99","prac","0","5","0","1",""
"null","null","fixation","html-keyboard-response","55","292370","0.0-1.0-4.1-3.1-0.9","19:36:59","2","","","","","","","fixation","","","","","","","","","","","","","","","","","","",""
"567","1","pic_response","html-keyboard-response","56","292939","0.0-1.0-4.1-3.1-1.9","19:36:59","2","","","","","","","<div>
            <img class='stim' src=""pictures/prac/1.jpg""></div><div class=""button_prompt"">
                        <b>请用数字键1-3回答</b>
                        </div>","","","","","","","","","","","","","","","","","","",""
"567","null","sub_response","html-keyboard-response","57","293939","0.0-1.0-4.1-3.1-2.9","19:36:59","2","","","","","","","<div style='text-align: center;'>
                            <span style=""color: green; font-size: 40px""><b>正确！+1 pts</b></span></div>
                            ","","learn","1","1","1","learn","0","0","[0, 1, 2]","3","1","setsize","99","prac","0","6","0","1",""
"null","null","fixation","html-keyboard-response","58","294440","0.0-1.0-4.1-3.1-0.10","19:36:59","2","","","","","","","fixation","","","","","","","","","","","","","","","","","","",""
"817","3","pic_response","html-keyboard-response","59","295258","0.0-1.0-4.1-3.1-1.10","19:36:59","2","","","","","","","<div>
            <img class='stim' src=""pictures/prac/2.jpg""></div><div class=""button_prompt"">
                        <b>请用数字键1-3回答</b>
                        </div>","","","","","","","","","","","","","","","","","","",""
"817","null","sub_response","html-keyboard-response","60","296273","0.0-1.0-4.1-3.1-2.10","19:36:59","2","","","","","","","<div style='text-align: center;'>
                            <span style=""color: green; font-size: 40px""><b>正确！+1 pts</b></span></div>
                            ","","learn","2","2","2","learn","2","2","[0, 1, 2]","4","1","setsize","99","prac","0","7","2","1",""
"null","null","fixation","html-keyboard-response","61","296776","0.0-1.0-4.1-3.1-0.11","19:36:59","2","","","","","","","fixation","","","","","","","","","","","","","","","","","","",""
"587","1","pic_response","html-keyboard-response","62","297364","0.0-1.0-4.1-3.1-1.11","19:36:59","2","","","","","","","<div>
            <img class='stim' src=""pictures/prac/0.jpg""></div><div class=""button_prompt"">
                        <b>请用数字键1-3回答</b>
                        </div>","","","","","","","","","","","","","","","","","","",""
"587","null","sub_response","html-keyboard-response","63","298364","0.0-1.0-4.1-3.1-2.11","19:36:59","2","","","","","","","<div style='text-align: center;'>
                            <span style=""color: green; font-size: 40px""><b>正确！+1 pts</b></span></div>
                            ","","learn","0","0","0","learn","0","0","[0, 1, 2]","5","1","setsize","99","prac","0","8","0","1",""
"11672"," ","","html-keyboard-response","64","310037","0.0-1.0-5.0","19:36:59","2","","","","","","","<div style=""font-size: 25px""><p>距下一个实验开始还有</p><div style=""font-size: 50px; color: blue""><p><span id=""clock"">1:00</span></div></p><p>按""空格""跳过休息</p></div>","","","","","","","","","","","","","","","","","","",""
"2671"," ","","html-keyboard-response","65","312708","0.0-1.0-6.0","19:36:59","2","","","","","","","<div style='font-size: 32px; text-align: center;'
                    <p>请按""空格""继续正式实验。</p></div>","","","","","","","","","","","","","","","","","","",""
"","","","preload","66","313288","0.0-1.0-7.0-0.0","19:36:59","2","true","false","[]","[]","[]","","","","","","","","","","","","","","","","","","","","",""
"7247"," ","","html-keyboard-response","67","320535","0.0-1.0-7.0-1.0","19:36:59","2","","","","","","","<div style='font-size: 32px; text-align: center;'
                    <p>请学习图片和数字之间的对应关系</p>
                    <p>我们将<span style='color: blue'><b> 告诉 </b></span>您选择的对错。请根据反馈学习。</p>
                    <p>请按""空格""继续实验。</p></div>","","","","","","","","","","","","","","","","","","",""
"19977"," ","inst","html-keyboard-response","68","340513","0.0-1.0-7.0-2.0","19:36:59","2","","","","","","","<img class='instruct_stim' src=""instruction/furniture10.PNG""></div>","","","","","","","","","","","","","","","","","","",""
"null","null","fixation","html-keyboard-response","69","341015","0.0-1.0-7.0-3.0-0.0","19:36:59","2","","","","","","","fixation","","","","","","","","","","","","","","","","","","",""
"571","2","pic_response","html-keyboard-response","70","341586","0.0-1.0-7.0-3.0-1.0","19:36:59","2","","","","","","","<div>
            <img class='stim' src=""pictures/furniture/1.jpg""></div><div class=""button_prompt"">
                    <b>请用数字键0-9回答</b>
                    </div>","","","","","","","","","","","","","","","","","","",""
"571","null","sub_response","html-keyboard-response","71","342588","0.0-1.0-7.0-3.0-2.0","19:36:59","2","","","","","","","<div style='text-align: center;'>
                            <span style=""color: green; font-size: 40px""><b>正确！+1 pts</b></span></div>
                            ","","learn","1","1","1","learn","1","1","[0, 1, 2, 3, 4, 5, 6, 7, 8, 9]","0","0","setsize","10S10A","furniture","1","9","1","1",""
"null","null","fixation","html-keyboard-response","72","343089","0.0-1.0-7.0-3.0-0.1","19:36:59","2","","","","","","","fixation","","","","","","","","","","","","","","","","","","",""
"736","1","pic_response","html-keyboard-response","73","343825","0.0-1.0-7.0-3.0-1.1","19:36:59","2","","","","","","","<div>
            <img class='stim' src=""pictures/furniture/3.jpg""></div><div class=""button_prompt"">
                    <b>请用数字键0-9回答</b>
                    </div>","","","","","","","","","","","","","","","","","","",""
"736","null","sub_response","html-keyboard-response","74","344826","0.0-1.0-7.0-3.0-2.1","19:36:59","2","","","","","","","<div style='text-align: center;'>
                            <span style=""color: red; font-size: 40px""><b>错误！+0 pts</b></span></div>
                            ","","learn","3","3","3","learn","3","3","[0, 1, 2, 3, 4, 5, 6, 7, 8, 9]","1","0","setsize","10S10A","furniture","1","0","0","0",""
"null","null","fixation","html-keyboard-response","75","345328","0.0-1.0-7.0-3.0-0.2","19:36:59","2","","","","","","","fixation","","","","","","","","","","","","","","","","","","",""
"732","2","pic_response","html-keyboard-response","76","346060","0.0-1.0-7.0-3.0-1.2","19:36:59","2","","","","","","","<div>
            <img class='stim' src=""pictures/furniture/2.jpg""></div><div class=""button_prompt"">
                    <b>请用数字键0-9回答</b>
                    </div>","","","","","","","","","","","","","","","","","","",""
"732","null","sub_response","html-keyboard-response","77","347061","0.0-1.0-7.0-3.0-2.2","19:36:59","2","","","","","","","<div style='text-align: center;'>
                            <span style=""color: red; font-size: 40px""><b>错误！+0 pts</b></span></div>
                            ","","learn","2","2","2","learn","2","2","[0, 1, 2, 3, 4, 5, 6, 7, 8, 9]","2","0","setsize","10S10A","furniture","1","0","1","0",""
"null","null","fixation","html-keyboard-response","78","347562","0.0-1.0-7.0-3.0-0.3","19:36:59","2","","","","","","","fixation","","","","","","","","","","","","","","","","","","",""
"683","3","pic_response","html-keyboard-response","79","348246","0.0-1.0-7.0-3.0-1.3","19:36:59","2","","","","","","","<div>
            <img class='stim' src=""pictures/furniture/6.jpg""></div><div class=""button_prompt"">
                    <b>请用数字键0-9回答</b>
                    </div>","","","","","","","","","","","","","","","","","","",""
"683","null","sub_response","html-keyboard-response","80","349248","0.0-1.0-7.0-3.0-2.3","19:36:59","2","","","","","","","<div style='text-align: center;'>
                            <span style=""color: red; font-size: 40px""><b>错误！+0 pts</b></span></div>
                            ","","learn","6","6","6","learn","6","6","[0, 1, 2, 3, 4, 5, 6, 7, 8, 9]","3","0","setsize","10S10A","furniture","1","0","2","0",""
"null","null","fixation","html-keyboard-response","81","349749","0.0-1.0-7.0-3.0-0.4","19:36:59","2","","","","","","","fixation","","","","","","","","","","","","","","","","","","",""
"755","5","pic_response","html-keyboard-response","82","350505","0.0-1.0-7.0-3.0-1.4","19:36:59","2","","","","","","","<div>
            <img class='stim' src=""pictures/furniture/4.jpg""></div><div class=""button_prompt"">
                    <b>请用数字键0-9回答</b>
                    </div>","","","","","","","","","","","","","","","","","","",""
"755","null","sub_response","html-keyboard-response","83","351506","0.0-1.0-7.0-3.0-2.4","19:36:59","2","","","","","","","<div style='text-align: center;'>
                            <span style=""color: green; font-size: 40px""><b>正确！+1 pts</b></span></div>
                            ","","learn","4","4","4","learn","4","4","[0, 1, 2, 3, 4, 5, 6, 7, 8, 9]","4","0","setsize","10S10A","furniture","1","1","4","1",""
"null","null","fixation","html-keyboard-response","84","352007","0.0-1.0-7.0-3.0-0.5","19:36:59","2","","","","","","","fixation","","","","","","","","","","","","","","","","","","",""
"727","6","pic_response","html-keyboard-response","85","352735","0.0-1.0-7.0-3.0-1.5","19:36:59","2","","","","","","","<div>
            <img class='stim' src=""pictures/furniture/9.jpg""></div><div class=""button_prompt"">
                    <b>请用数字键0-9回答</b>
                    </div>","","","","","","","","","","","","","","","","","","",""
"727","null","sub_response","html-keyboard-response","86","353736","0.0-1.0-7.0-3.0-2.5","19:36:59","2","","","","","","","<div style='text-align: center;'>
                            <span style=""color: red; font-size: 40px""><b>错误！+0 pts</b></span></div>
                            ","","learn","9","9","9","learn","9","9","[0, 1, 2, 3, 4, 5, 6, 7, 8, 9]","5","0","setsize","10S10A","furniture","1","0","5","0",""
"null","null","fixation","html-keyboard-response","87","354237","0.0-1.0-7.0-3.0-0.6","19:36:59","2","","","","","","","fixation","","","","","","","","","","","","","","","","","","",""
"708","7","pic_response","html-keyboard-response","88","354945","0.0-1.0-7.0-3.0-1.6","19:36:59","2","","","","","","","<div>
            <img class='stim' src=""pictures/furniture/8.jpg""></div><div class=""button_prompt"">
                    <b>请用数字键0-9回答</b>
                    </div>","","","","","","","","","","","","","","","","","","",""
"708","null","sub_response","html-keyboard-response","89","355946","0.0-1.0-7.0-3.0-2.6","19:36:59","2","","","","","","","<div style='text-align: center;'>
                            <span style=""color: red; font-size: 40px""><b>错误！+0 pts</b></span></div>
                            ","","learn","8","8","8","learn","8","8","[0, 1, 2, 3, 4, 5, 6, 7, 8, 9]","6","0","setsize","10S10A","furniture","1","0","6","0",""
"null","null","fixation","html-keyboard-response","90","356448","0.0-1.0-7.0-3.0-0.7","19:36:59","2","","","","","","","fixation","","","","","","","","","","","","","","","","","","",""
"717","8","pic_response","html-keyboard-response","91","357165","0.0-1.0-7.0-3.0-1.7","19:36:59","2","","","","","","","<div>
            <img class='stim' src=""pictures/furniture/0.jpg""></div><div class=""button_prompt"">
                    <b>请用数字键0-9回答</b>
                    </div>","","","","","","","","","","","","","","","","","","",""
"717","null","sub_response","html-keyboard-response","92","358166","0.0-1.0-7.0-3.0-2.7","19:36:59","2","","","","","","","<div style='text-align: center;'>
                            <span style=""color: red; font-size: 40px""><b>错误！+0 pts</b></span></div>
                            ","","learn","0","0","0","learn","0","0","[0, 1, 2, 3, 4, 5, 6, 7, 8, 9]","7","0","setsize","10S10A","furniture","1","0","7","0",""
"null","null","fixation","html-keyboard-response","93","358667","0.0-1.0-7.0-3.0-0.8","19:36:59","2","","","","","","","fixation","","","","","","","","","","","","","","","","","","",""
"577","9","pic_response","html-keyboard-response","94","359246","0.0-1.0-7.0-3.0-1.8","19:36:59","2","","","","","","","<div>
            <img class='stim' src=""pictures/furniture/5.jpg""></div><div class=""button_prompt"">
                    <b>请用数字键0-9回答</b>
                    </div>","","","","","","","","","","","","","","","","","","",""
"577","null","sub_response","html-keyboard-response","95","360248","0.0-1.0-7.0-3.0-2.8","19:36:59","2","","","","","","","<div style='text-align: center;'>
                            <span style=""color: red; font-size: 40px""><b>错误！+0 pts</b></span></div>
                            ","","learn","5","5","5","learn","5","5","[0, 1, 2, 3, 4, 5, 6, 7, 8, 9]","8","0","setsize","10S10A","furniture","1","0","8","0",""
"null","null","fixation","html-keyboard-response","96","360749","0.0-1.0-7.0-3.0-0.9","19:36:59","2","","","","","","","fixation","","","","","","","","","","","","","","","","","","",""
"994","1","pic_response","html-keyboard-response","97","361744","0.0-1.0-7.0-3.0-1.9","19:36:59","2","","","","","","","<div>
            <img class='stim' src=""pictures/furniture/7.jpg""></div><div class=""button_prompt"">
                    <b>请用数字键0-9回答</b>
                    </div>","","","","","","","","","","","","","","","","","","",""
"994","null","sub_response","html-keyboard-response","98","362746","0.0-1.0-7.0-3.0-2.9","19:36:59","2","","","","","","","<div style='text-align: center;'>
                            <span style=""color: red; font-size: 40px""><b>错误！+0 pts</b></span></div>
                            ","","learn","7","7","7","learn","7","7","[0, 1, 2, 3, 4, 5, 6, 7, 8, 9]","9","0","setsize","10S10A","furniture","1","0","0","0",""
"null","null","fixation","html-keyboard-response","99","363248","0.0-1.0-7.0-3.0-0.10","19:36:59","2","","","","","","","fixation","","","","","","","","","","","","","","","","","","",""
"670","2","pic_response","html-keyboard-response","100","363919","0.0-1.0-7.0-3.0-1.10","19:36:59","2","","","","","","","<div>
            <img class='stim' src=""pictures/furniture/3.jpg""></div><div class=""button_prompt"">
                    <b>请用数字键0-9回答</b>
                    </div>","","","","","","","","","","","","","","","","","","",""
"670","null","sub_response","html-keyboard-response","101","364920","0.0-1.0-7.0-3.0-2.10","19:36:59","2","","","","","","","<div style='text-align: center;'>
                            <span style=""color: red; font-size: 40px""><b>错误！+0 pts</b></span></div>
                            ","","learn","3","3","3","learn","3","3","[0, 1, 2, 3, 4, 5, 6, 7, 8, 9]","10","1","setsize","10S10A","furniture","1","0","1","0",""
"null","null","fixation","html-keyboard-response","102","365422","0.0-1.0-7.0-3.0-0.11","19:36:59","2","","","","","","","fixation","","","","","","","","","","","","","","","","","","",""
"1233","2","pic_response","html-keyboard-response","103","366655","0.0-1.0-7.0-3.0-1.11","19:36:59","2","","","","","","","<div>
            <img class='stim' src=""pictures/furniture/7.jpg""></div><div class=""button_prompt"">
                    <b>请用数字键0-9回答</b>
                    </div>","","","","","","","","","","","","","","","","","","",""
"1233","null","sub_response","html-keyboard-response","104","367656","0.0-1.0-7.0-3.0-2.11","19:36:59","2","","","","","","","<div style='text-align: center;'>
                            <span style=""color: red; font-size: 40px""><b>错误！+0 pts</b></span></div>
                            ","","learn","7","7","7","learn","7","7","[0, 1, 2, 3, 4, 5, 6, 7, 8, 9]","11","1","setsize","10S10A","furniture","1","0","1","0",""
"null","null","fixation","html-keyboard-response","105","368158","0.0-1.0-7.0-3.0-0.12","19:36:59","2","","","","","","","fixation","","","","","","","","","","","","","","","","","","",""
"439","0","pic_response","html-keyboard-response","106","368597","0.0-1.0-7.0-3.0-1.12","19:36:59","2","","","","","","","<div>
            <img class='stim' src=""pictures/furniture/5.jpg""></div><div class=""button_prompt"">
                    <b>请用数字键0-9回答</b>
                    </div>","","","","","","","","","","","","","","","","","","",""
"439","null","sub_response","html-keyboard-response","107","369599","0.0-1.0-7.0-3.0-2.12","19:36:59","2","","","","","","","<div style='text-align: center;'>
                            <span style=""color: red; font-size: 40px""><b>错误！+0 pts</b></span></div>
                            ","","learn","5","5","5","learn","5","5","[0, 1, 2, 3, 4, 5, 6, 7, 8, 9]","12","1","setsize","10S10A","furniture","1","0","9","0",""
"null","null","fixation","html-keyboard-response","108","370100","0.0-1.0-7.0-3.0-0.13","19:36:59","2","","","","","","","fixation","","","","","","","","","","","","","","","","","","",""
"453","3","pic_response","html-keyboard-response","109","370554","0.0-1.0-7.0-3.0-1.13","19:36:59","2","","","","","","","<div>
            <img class='stim' src=""pictures/furniture/0.jpg""></div><div class=""button_prompt"">
                    <b>请用数字键0-9回答</b>
                    </div>","","","","","","","","","","","","","","","","","","",""
"453","null","sub_response","html-keyboard-response","110","371556","0.0-1.0-7.0-3.0-2.13","19:36:59","2","","","","","","","<div style='text-align: center;'>
                            <span style=""color: red; font-size: 40px""><b>错误！+0 pts</b></span></div>
                            ","","learn","0","0","0","learn","0","0","[0, 1, 2, 3, 4, 5, 6, 7, 8, 9]","13","1","setsize","10S10A","furniture","1","0","2","0",""
"null","null","fixation","html-keyboard-response","111","372058","0.0-1.0-7.0-3.0-0.14","19:36:59","2","","","","","","","fixation","","","","","","","","","","","","","","","","","","",""
"1491","2","pic_response","html-keyboard-response","112","373549","0.0-1.0-7.0-3.0-1.14","19:36:59","2","","","","","","","<div>
            <img class='stim' src=""pictures/furniture/1.jpg""></div><div class=""button_prompt"">
                    <b>请用数字键0-9回答</b>
                    </div>","","","","","","","","","","","","","","","","","","",""
"1491","null","sub_response","html-keyboard-response","113","374551","0.0-1.0-7.0-3.0-2.14","19:36:59","2","","","","","","","<div style='text-align: center;'>
                            <span style=""color: green; font-size: 40px""><b>正确！+1 pts</b></span></div>
                            ","","learn","1","1","1","learn","1","1","[0, 1, 2, 3, 4, 5, 6, 7, 8, 9]","14","1","setsize","10S10A","furniture","1","1","1","1",""
"null","null","fixation","html-keyboard-response","114","375052","0.0-1.0-7.0-3.0-0.15","19:36:59","2","","","","","","","fixation","","","","","","","","","","","","","","","","","","",""
"1069","3","pic_response","html-keyboard-response","115","376122","0.0-1.0-7.0-3.0-1.15","19:36:59","2","","","","","","","<div>
            <img class='stim' src=""pictures/furniture/6.jpg""></div><div class=""button_prompt"">
                    <b>请用数字键0-9回答</b>
                    </div>","","","","","","","","","","","","","","","","","","",""
"1069","null","sub_response","html-keyboard-response","116","377123","0.0-1.0-7.0-3.0-2.15","19:36:59","2","","","","","","","<div style='text-align: center;'>
                            <span style=""color: red; font-size: 40px""><b>错误！+0 pts</b></span></div>
                            ","","learn","6","6","6","learn","6","6","[0, 1, 2, 3, 4, 5, 6, 7, 8, 9]","15","1","setsize","10S10A","furniture","1","0","2","0",""
"null","null","fixation","html-keyboard-response","117","377624","0.0-1.0-7.0-3.0-0.16","19:36:59","2","","","","","","","fixation","","","","","","","","","","","","","","","","","","",""
"905","1","pic_response","html-keyboard-response","118","378530","0.0-1.0-7.0-3.0-1.16","19:36:59","2","","","","","","","<div>
            <img class='stim' src=""pictures/furniture/8.jpg""></div><div class=""button_prompt"">
                    <b>请用数字键0-9回答</b>
                    </div>","","","","","","","","","","","","","","","","","","",""
"905","null","sub_response","html-keyboard-response","119","379532","0.0-1.0-7.0-3.0-2.16","19:36:59","2","","","","","","","<div style='text-align: center;'>
                            <span style=""color: red; font-size: 40px""><b>错误！+0 pts</b></span></div>
                            ","","learn","8","8","8","learn","8","8","[0, 1, 2, 3, 4, 5, 6, 7, 8, 9]","16","1","setsize","10S10A","furniture","1","0","0","0",""
"null","null","fixation","html-keyboard-response","120","380033","0.0-1.0-7.0-3.0-0.17","19:36:59","2","","","","","","","fixation","","","","","","","","","","","","","","","","","","",""
"588","4","pic_response","html-keyboard-response","121","380621","0.0-1.0-7.0-3.0-1.17","19:36:59","2","","","","","","","<div>
            <img class='stim' src=""pictures/furniture/9.jpg""></div><div class=""button_prompt"">
                    <b>请用数字键0-9回答</b>
                    </div>","","","","","","","","","","","","","","","","","","",""
"588","null","sub_response","html-keyboard-response","122","381622","0.0-1.0-7.0-3.0-2.17","19:36:59","2","","","","","","","<div style='text-align: center;'>
                            <span style=""color: red; font-size: 40px""><b>错误！+0 pts</b></span></div>
                            ","","learn","9","9","9","learn","9","9","[0, 1, 2, 3, 4, 5, 6, 7, 8, 9]","17","1","setsize","10S10A","furniture","1","0","3","0",""
"null","null","fixation","html-keyboard-response","123","382123","0.0-1.0-7.0-3.0-0.18","19:36:59","2","","","","","","","fixation","","","","","","","","","","","","","","","","","","",""
"846","5","pic_response","html-keyboard-response","124","382970","0.0-1.0-7.0-3.0-1.18","19:36:59","2","","","","","","","<div>
            <img class='stim' src=""pictures/furniture/4.jpg""></div><div class=""button_prompt"">
                    <b>请用数字键0-9回答</b>
                    </div>","","","","","","","","","","","","","","","","","","",""
"846","null","sub_response","html-keyboard-response","125","383971","0.0-1.0-7.0-3.0-2.18","19:36:59","2","","","","","","","<div style='text-align: center;'>
                            <span style=""color: green; font-size: 40px""><b>正确！+1 pts</b></span></div>
                            ","","learn","4","4","4","learn","4","4","[0, 1, 2, 3, 4, 5, 6, 7, 8, 9]","18","1","setsize","10S10A","furniture","1","1","4","1",""
"null","null","fixation","html-keyboard-response","126","384472","0.0-1.0-7.0-3.0-0.19","19:36:59","2","","","","","","","fixation","","","","","","","","","","","","","","","","","","",""
"1164","6","pic_response","html-keyboard-response","127","385637","0.0-1.0-7.0-3.0-1.19","19:36:59","2","","","","","","","<div>
            <img class='stim' src=""pictures/furniture/2.jpg""></div><div class=""button_prompt"">
                    <b>请用数字键0-9回答</b>
                    </div>","","","","","","","","","","","","","","","","","","",""
"1164","null","sub_response","html-keyboard-response","128","386639","0.0-1.0-7.0-3.0-2.19","19:36:59","2","","","","","","","<div style='text-align: center;'>
                            <span style=""color: red; font-size: 40px""><b>错误！+0 pts</b></span></div>
                            ","","learn","2","2","2","learn","2","2","[0, 1, 2, 3, 4, 5, 6, 7, 8, 9]","19","1","setsize","10S10A","furniture","1","0","5","0",""
"null","null","fixation","html-keyboard-response","129","387140","0.0-1.0-7.0-3.0-0.20","19:36:59","2","","","","","","","fixation","","","","","","","","","","","","","","","","","","",""
"1009","4","pic_response","html-keyboard-response","130","388150","0.0-1.0-7.0-3.0-1.20","19:36:59","2","","","","","","","<div>
            <img class='stim' src=""pictures/furniture/7.jpg""></div><div class=""button_prompt"">
                    <b>请用数字键0-9回答</b>
                    </div>","","","","","","","","","","","","","","","","","","",""
"1009","null","sub_response","html-keyboard-response","131","389151","0.0-1.0-7.0-3.0-2.20","19:36:59","2","","","","","","","<div style='text-align: center;'>
                            <span style=""color: red; font-size: 40px""><b>错误！+0 pts</b></span></div>
                            ","","learn","7","7","7","learn","7","7","[0, 1, 2, 3, 4, 5, 6, 7, 8, 9]","20","2","setsize","10S10A","furniture","1","0","3","0",""
"null","null","fixation","html-keyboard-response","132","389652","0.0-1.0-7.0-3.0-0.21","19:36:59","2","","","","","","","fixation","","","","","","","","","","","","","","","","","","",""
"736","7","pic_response","html-keyboard-response","133","390389","0.0-1.0-7.0-3.0-1.21","19:36:59","2","","","","","","","<div>
            <img class='stim' src=""pictures/furniture/3.jpg""></div><div class=""button_prompt"">
                    <b>请用数字键0-9回答</b>
                    </div>","","","","","","","","","","","","","","","","","","",""
"736","null","sub_response","html-keyboard-response","134","391391","0.0-1.0-7.0-3.0-2.21","19:36:59","2","","","","","","","<div style='text-align: center;'>
                            <span style=""color: red; font-size: 40px""><b>错误！+0 pts</b></span></div>
                            ","","learn","3","3","3","learn","3","3","[0, 1, 2, 3, 4, 5, 6, 7, 8, 9]","21","2","setsize","10S10A","furniture","1","0","6","0",""
"null","null","fixation","html-keyboard-response","135","391896","0.0-1.0-7.0-3.0-0.22","19:36:59","2","","","","","","","fixation","","","","","","","","","","","","","","","","","","",""
"430","8","pic_response","html-keyboard-response","136","392327","0.0-1.0-7.0-3.0-1.22","19:36:59","2","","","","","","","<div>
            <img class='stim' src=""pictures/furniture/0.jpg""></div><div class=""button_prompt"">
                    <b>请用数字键0-9回答</b>
                    </div>","","","","","","","","","","","","","","","","","","",""
"430","null","sub_response","html-keyboard-response","137","393329","0.0-1.0-7.0-3.0-2.22","19:36:59","2","","","","","","","<div style='text-align: center;'>
                            <span style=""color: red; font-size: 40px""><b>错误！+0 pts</b></span></div>
                            ","","learn","0","0","0","learn","0","0","[0, 1, 2, 3, 4, 5, 6, 7, 8, 9]","22","2","setsize","10S10A","furniture","1","0","7","0",""
"null","null","fixation","html-keyboard-response","138","393830","0.0-1.0-7.0-3.0-0.23","19:36:59","2","","","","","","","fixation","","","","","","","","","","","","","","","","","","",""
"298","9","pic_response","html-keyboard-response","139","394129","0.0-1.0-7.0-3.0-1.23","19:36:59","2","","","","","","","<div>
            <img class='stim' src=""pictures/furniture/5.jpg""></div><div class=""button_prompt"">
                    <b>请用数字键0-9回答</b>
                    </div>","","","","","","","","","","","","","","","","","","",""
"298","null","sub_response","html-keyboard-response","140","395130","0.0-1.0-7.0-3.0-2.23","19:36:59","2","","","","","","","<div style='text-align: center;'>
                            <span style=""color: red; font-size: 40px""><b>错误！+0 pts</b></span></div>
                            ","","learn","5","5","5","learn","5","5","[0, 1, 2, 3, 4, 5, 6, 7, 8, 9]","23","2","setsize","10S10A","furniture","1","0","8","0",""
"null","null","fixation","html-keyboard-response","141","395632","0.0-1.0-7.0-3.0-0.24","19:36:59","2","","","","","","","fixation","","","","","","","","","","","","","","","","","","",""
"514","0","pic_response","html-keyboard-response","142","396147","0.0-1.0-7.0-3.0-1.24","19:36:59","2","","","","","","","<div>
            <img class='stim' src=""pictures/furniture/9.jpg""></div><div class=""button_prompt"">
                    <b>请用数字键0-9回答</b>
                    </div>","","","","","","","","","","","","","","","","","","",""
"514","null","sub_response","html-keyboard-response","143","397148","0.0-1.0-7.0-3.0-2.24","19:36:59","2","","","","","","","<div style='text-align: center;'>
                            <span style=""color: green; font-size: 40px""><b>正确！+1 pts</b></span></div>
                            ","","learn","9","9","9","learn","9","9","[0, 1, 2, 3, 4, 5, 6, 7, 8, 9]","24","2","setsize","10S10A","furniture","1","1","9","1",""
"null","null","fixation","html-keyboard-response","144","397649","0.0-1.0-7.0-3.0-0.25","19:36:59","2","","","","","","","fixation","","","","","","","","","","","","","","","","","","",""
"1207","3","pic_response","html-keyboard-response","145","398857","0.0-1.0-7.0-3.0-1.25","19:36:59","2","","","","","","","<div>
            <img class='stim' src=""pictures/furniture/6.jpg""></div><div class=""button_prompt"">
                    <b>请用数字键0-9回答</b>
                    </div>","","","","","","","","","","","","","","","","","","",""
"1207","null","sub_response","html-keyboard-response","146","399859","0.0-1.0-7.0-3.0-2.25","19:36:59","2","","","","","","","<div style='text-align: center;'>
                            <span style=""color: red; font-size: 40px""><b>错误！+0 pts</b></span></div>
                            ","","learn","6","6","6","learn","6","6","[0, 1, 2, 3, 4, 5, 6, 7, 8, 9]","25","2","setsize","10S10A","furniture","1","0","2","0",""
"null","null","fixation","html-keyboard-response","147","400361","0.0-1.0-7.0-3.0-0.26","19:36:59","2","","","","","","","fixation","","","","","","","","","","","","","","","","","","",""
"666","5","pic_response","html-keyboard-response","148","401027","0.0-1.0-7.0-3.0-1.26","19:36:59","2","","","","","","","<div>
            <img class='stim' src=""pictures/furniture/8.jpg""></div><div class=""button_prompt"">
                    <b>请用数字键0-9回答</b>
                    </div>","","","","","","","","","","","","","","","","","","",""
"666","null","sub_response","html-keyboard-response","149","402029","0.0-1.0-7.0-3.0-2.26","19:36:59","2","","","","","","","<div style='text-align: center;'>
                            <span style=""color: red; font-size: 40px""><b>错误！+0 pts</b></span></div>
                            ","","learn","8","8","8","learn","8","8","[0, 1, 2, 3, 4, 5, 6, 7, 8, 9]","26","2","setsize","10S10A","furniture","1","0","4","0",""
"null","null","fixation","html-keyboard-response","150","402530","0.0-1.0-7.0-3.0-0.27","19:36:59","2","","","","","","","fixation","","","","","","","","","","","","","","","","","","",""
"672","6","pic_response","html-keyboard-response","151","403203","0.0-1.0-7.0-3.0-1.27","19:36:59","2","","","","","","","<div>
            <img class='stim' src=""pictures/furniture/4.jpg""></div><div class=""button_prompt"">
                    <b>请用数字键0-9回答</b>
                    </div>","","","","","","","","","","","","","","","","","","",""
"672","null","sub_response","html-keyboard-response","152","404203","0.0-1.0-7.0-3.0-2.27","19:36:59","2","","","","","","","<div style='text-align: center;'>
                            <span style=""color: red; font-size: 40px""><b>错误！+0 pts</b></span></div>
                            ","","learn","4","4","4","learn","4","4","[0, 1, 2, 3, 4, 5, 6, 7, 8, 9]","27","2","setsize","10S10A","furniture","1","0","5","0",""
"null","null","fixation","html-keyboard-response","153","404706","0.0-1.0-7.0-3.0-0.28","19:36:59","2","","","","","","","fixation","","","","","","","","","","","","","","","","","","",""
"344","9","pic_response","html-keyboard-response","154","405050","0.0-1.0-7.0-3.0-1.28","19:36:59","2","","","","","","","<div>
            <img class='stim' src=""pictures/furniture/1.jpg""></div><div class=""button_prompt"">
                    <b>请用数字键0-9回答</b>
                    </div>","","","","","","","","","","","","","","","","","","",""
"344","null","sub_response","html-keyboard-response","155","406051","0.0-1.0-7.0-3.0-2.28","19:36:59","2","","","","","","","<div style='text-align: center;'>
                            <span style=""color: red; font-size: 40px""><b>错误！+0 pts</b></span></div>
                            ","","learn","1","1","1","learn","1","1","[0, 1, 2, 3, 4, 5, 6, 7, 8, 9]","28","2","setsize","10S10A","furniture","1","0","8","0",""
"null","null","fixation","html-keyboard-response","156","406553","0.0-1.0-7.0-3.0-0.29","19:36:59","2","","","","","","","fixation","","","","","","","","","","","","","","","","","","",""
"697","3","pic_response","html-keyboard-response","157","407251","0.0-1.0-7.0-3.0-1.29","19:36:59","2","","","","","","","<div>
            <img class='stim' src=""pictures/furniture/2.jpg""></div><div class=""button_prompt"">
                    <b>请用数字键0-9回答</b>
                    </div>","","","","","","","","","","","","","","","","","","",""
"697","null","sub_response","html-keyboard-response","158","408252","0.0-1.0-7.0-3.0-2.29","19:36:59","2","","","","","","","<div style='text-align: center;'>
                            <span style=""color: green; font-size: 40px""><b>正确！+1 pts</b></span></div>
                            ","","learn","2","2","2","learn","2","2","[0, 1, 2, 3, 4, 5, 6, 7, 8, 9]","29","2","setsize","10S10A","furniture","1","1","2","1",""
"null","null","fixation","html-keyboard-response","159","408753","0.0-1.0-7.0-3.0-0.30","19:36:59","2","","","","","","","fixation","","","","","","","","","","","","","","","","","","",""
"1054","1","pic_response","html-keyboard-response","160","409808","0.0-1.0-7.0-3.0-1.30","19:36:59","2","","","","","","","<div>
            <img class='stim' src=""pictures/furniture/6.jpg""></div><div class=""button_prompt"">
                    <b>请用数字键0-9回答</b>
                    </div>","","","","","","","","","","","","","","","","","","",""
"1054","null","sub_response","html-keyboard-response","161","410809","0.0-1.0-7.0-3.0-2.30","19:36:59","2","","","","","","","<div style='text-align: center;'>
                            <span style=""color: red; font-size: 40px""><b>错误！+0 pts</b></span></div>
                            ","","learn","6","6","6","learn","6","6","[0, 1, 2, 3, 4, 5, 6, 7, 8, 9]","30","3","setsize","10S10A","furniture","1","0","0","0",""
"null","null","fixation","html-keyboard-response","162","411310","0.0-1.0-7.0-3.0-0.31","19:36:59","2","","","","","","","fixation","","","","","","","","","","","","","","","","","","",""
"578","4","pic_response","html-keyboard-response","163","411889","0.0-1.0-7.0-3.0-1.31","19:36:59","2","","","","","","","<div>
            <img class='stim' src=""pictures/furniture/3.jpg""></div><div class=""button_prompt"">
                    <b>请用数字键0-9回答</b>
                    </div>","","","","","","","","","","","","","","","","","","",""
"578","null","sub_response","html-keyboard-response","164","412889","0.0-1.0-7.0-3.0-2.31","19:36:59","2","","","","","","","<div style='text-align: center;'>
                            <span style=""color: green; font-size: 40px""><b>正确！+1 pts</b></span></div>
                            ","","learn","3","3","3","learn","3","3","[0, 1, 2, 3, 4, 5, 6, 7, 8, 9]","31","3","setsize","10S10A","furniture","1","1","3","1",""
"null","null","fixation","html-keyboard-response","165","413391","0.0-1.0-7.0-3.0-0.32","19:36:59","2","","","","","","","fixation","","","","","","","","","","","","","","","","","","",""
"638","2","pic_response","html-keyboard-response","166","414030","0.0-1.0-7.0-3.0-1.32","19:36:59","2","","","","","","","<div>
            <img class='stim' src=""pictures/furniture/1.jpg""></div><div class=""button_prompt"">
                    <b>请用数字键0-9回答</b>
                    </div>","","","","","","","","","","","","","","","","","","",""
"638","null","sub_response","html-keyboard-response","167","415031","0.0-1.0-7.0-3.0-2.32","19:36:59","2","","","","","","","<div style='text-align: center;'>
                            <span style=""color: green; font-size: 40px""><b>正确！+1 pts</b></span></div>
                            ","","learn","1","1","1","learn","1","1","[0, 1, 2, 3, 4, 5, 6, 7, 8, 9]","32","3","setsize","10S10A","furniture","1","2","1","1",""
"null","null","fixation","html-keyboard-response","168","415532","0.0-1.0-7.0-3.0-0.33","19:36:59","2","","","","","","","fixation","","","","","","","","","","","","","","","","","","",""
"870","5","pic_response","html-keyboard-response","169","416403","0.0-1.0-7.0-3.0-1.33","19:36:59","2","","","","","","","<div>
            <img class='stim' src=""pictures/furniture/8.jpg""></div><div class=""button_prompt"">
                    <b>请用数字键0-9回答</b>
                    </div>","","","","","","","","","","","","","","","","","","",""
"870","null","sub_response","html-keyboard-response","170","417404","0.0-1.0-7.0-3.0-2.33","19:36:59","2","","","","","","","<div style='text-align: center;'>
                            <span style=""color: red; font-size: 40px""><b>错误！+0 pts</b></span></div>
                            ","","learn","8","8","8","learn","8","8","[0, 1, 2, 3, 4, 5, 6, 7, 8, 9]","33","3","setsize","10S10A","furniture","1","0","4","0",""
"null","null","fixation","html-keyboard-response","171","417906","0.0-1.0-7.0-3.0-0.34","19:36:59","2","","","","","","","fixation","","","","","","","","","","","","","","","","","","",""
"404","5","pic_response","html-keyboard-response","172","418311","0.0-1.0-7.0-3.0-1.34","19:36:59","2","","","","","","","<div>
            <img class='stim' src=""pictures/furniture/9.jpg""></div><div class=""button_prompt"">
                    <b>请用数字键0-9回答</b>
                    </div>","","","","","","","","","","","","","","","","","","",""
"404","null","sub_response","html-keyboard-response","173","419312","0.0-1.0-7.0-3.0-2.34","19:36:59","2","","","","","","","<div style='text-align: center;'>
                            <span style=""color: red; font-size: 40px""><b>错误！+0 pts</b></span></div>
                            ","","learn","9","9","9","learn","9","9","[0, 1, 2, 3, 4, 5, 6, 7, 8, 9]","34","3","setsize","10S10A","furniture","1","0","4","0",""
"null","null","fixation","html-keyboard-response","174","419814","0.0-1.0-7.0-3.0-0.35","19:36:59","2","","","","","","","fixation","","","","","","","","","","","","","","","","","","",""
"835","6","pic_response","html-keyboard-response","175","420650","0.0-1.0-7.0-3.0-1.35","19:36:59","2","","","","","","","<div>
            <img class='stim' src=""pictures/furniture/7.jpg""></div><div class=""button_prompt"">
                    <b>请用数字键0-9回答</b>
                    </div>","","","","","","","","","","","","","","","","","","",""
"835","null","sub_response","html-keyboard-response","176","421651","0.0-1.0-7.0-3.0-2.35","19:36:59","2","","","","","","","<div style='text-align: center;'>
                            <span style=""color: red; font-size: 40px""><b>错误！+0 pts</b></span></div>
                            ","","learn","7","7","7","learn","7","7","[0, 1, 2, 3, 4, 5, 6, 7, 8, 9]","35","3","setsize","10S10A","furniture","1","0","5","0",""
"null","null","fixation","html-keyboard-response","177","422152","0.0-1.0-7.0-3.0-0.36","19:36:59","2","","","","","","","fixation","","","","","","","","","","","","","","","","","","",""
"459","6","pic_response","html-keyboard-response","178","422611","0.0-1.0-7.0-3.0-1.36","19:36:59","2","","","","","","","<div>
            <img class='stim' src=""pictures/furniture/0.jpg""></div><div class=""button_prompt"">
                    <b>请用数字键0-9回答</b>
                    </div>","","","","","","","","","","","","","","","","","","",""
"459","null","sub_response","html-keyboard-response","179","423613","0.0-1.0-7.0-3.0-2.36","19:36:59","2","","","","","","","<div style='text-align: center;'>
                            <span style=""color: red; font-size: 40px""><b>错误！+0 pts</b></span></div>
                            ","","learn","0","0","0","learn","0","0","[0, 1, 2, 3, 4, 5, 6, 7, 8, 9]","36","3","setsize","10S10A","furniture","1","0","5","0",""
"null","null","fixation","html-keyboard-response","180","424115","0.0-1.0-7.0-3.0-0.37","19:36:59","2","","","","","","","fixation","","","","","","","","","","","","","","","","","","",""
"1601","0","pic_response","html-keyboard-response","181","425716","0.0-1.0-7.0-3.0-1.37","19:36:59","2","","","","","","","<div>
            <img class='stim' src=""pictures/furniture/2.jpg""></div><div class=""button_prompt"">
                    <b>请用数字键0-9回答</b>
                    </div>","","","","","","","","","","","","","","","","","","",""
"1601","null","sub_response","html-keyboard-response","182","426718","0.0-1.0-7.0-3.0-2.37","19:36:59","2","","","","","","","<div style='text-align: center;'>
                            <span style=""color: red; font-size: 40px""><b>错误！+0 pts</b></span></div>
                            ","","learn","2","2","2","learn","2","2","[0, 1, 2, 3, 4, 5, 6, 7, 8, 9]","37","3","setsize","10S10A","furniture","1","0","9","0",""
"null","null","fixation","html-keyboard-response","183","427219","0.0-1.0-7.0-3.0-0.38","19:36:59","2","","","","","","","fixation","","","","","","","","","","","","","","","","","","",""
"929","1","pic_response","html-keyboard-response","184","428149","0.0-1.0-7.0-3.0-1.38","19:36:59","2","","","","","","","<div>
            <img class='stim' src=""pictures/furniture/4.jpg""></div><div class=""button_prompt"">
                    <b>请用数字键0-9回答</b>
                    </div>","","","","","","","","","","","","","","","","","","",""
"929","null","sub_response","html-keyboard-response","185","429150","0.0-1.0-7.0-3.0-2.38","19:36:59","2","","","","","","","<div style='text-align: center;'>
                            <span style=""color: red; font-size: 40px""><b>错误！+0 pts</b></span></div>
                            ","","learn","4","4","4","learn","4","4","[0, 1, 2, 3, 4, 5, 6, 7, 8, 9]","38","3","setsize","10S10A","furniture","1","0","0","0",""
"null","null","fixation","html-keyboard-response","186","429652","0.0-1.0-7.0-3.0-0.39","19:36:59","2","","","","","","","fixation","","","","","","","","","","","","","","","","","","",""
"851","7","pic_response","html-keyboard-response","187","430503","0.0-1.0-7.0-3.0-1.39","19:36:59","2","","","","","","","<div>
            <img class='stim' src=""pictures/furniture/5.jpg""></div><div class=""button_prompt"">
                    <b>请用数字键0-9回答</b>
                    </div>","","","","","","","","","","","","","","","","","","",""
"851","null","sub_response","html-keyboard-response","188","431506","0.0-1.0-7.0-3.0-2.39","19:36:59","2","","","","","","","<div style='text-align: center;'>
                            <span style=""color: red; font-size: 40px""><b>错误！+0 pts</b></span></div>
                            ","","learn","5","5","5","learn","5","5","[0, 1, 2, 3, 4, 5, 6, 7, 8, 9]","39","3","setsize","10S10A","furniture","1","0","6","0",""
"null","null","fixation","html-keyboard-response","189","432008","0.0-1.0-7.0-3.0-0.40","19:36:59","2","","","","","","","fixation","","","","","","","","","","","","","","","","","","",""
"909","0","pic_response","html-keyboard-response","190","432917","0.0-1.0-7.0-3.0-1.40","19:36:59","2","","","","","","","<div>
            <img class='stim' src=""pictures/furniture/2.jpg""></div><div class=""button_prompt"">
                    <b>请用数字键0-9回答</b>
                    </div>","","","","","","","","","","","","","","","","","","",""
"909","null","sub_response","html-keyboard-response","191","433919","0.0-1.0-7.0-3.0-2.40","19:36:59","2","","","","","","","<div style='text-align: center;'>
                            <span style=""color: red; font-size: 40px""><b>错误！+0 pts</b></span></div>
                            ","","learn","2","2","2","learn","2","2","[0, 1, 2, 3, 4, 5, 6, 7, 8, 9]","40","4","setsize","10S10A","furniture","1","0","9","0",""
"null","null","fixation","html-keyboard-response","192","434421","0.0-1.0-7.0-3.0-0.41","19:36:59","2","","","","","","","fixation","","","","","","","","","","","","","","","","","","",""
"754","2","pic_response","html-keyboard-response","193","435176","0.0-1.0-7.0-3.0-1.41","19:36:59","2","","","","","","","<div>
            <img class='stim' src=""pictures/furniture/1.jpg""></div><div class=""button_prompt"">
                    <b>请用数字键0-9回答</b>
                    </div>","","","","","","","","","","","","","","","","","","",""
"754","null","sub_response","html-keyboard-response","194","436177","0.0-1.0-7.0-3.0-2.41","19:36:59","2","","","","","","","<div style='text-align: center;'>
                            <span style=""color: green; font-size: 40px""><b>正确！+1 pts</b></span></div>
                            ","","learn","1","1","1","learn","1","1","[0, 1, 2, 3, 4, 5, 6, 7, 8, 9]","41","4","setsize","10S10A","furniture","1","1","1","1",""
"null","null","fixation","html-keyboard-response","195","436679","0.0-1.0-7.0-3.0-0.42","19:36:59","2","","","","","","","fixation","","","","","","","","","","","","","","","","","","",""
"751","3","pic_response","html-keyboard-response","196","437431","0.0-1.0-7.0-3.0-1.42","19:36:59","2","","","","","","","<div>
            <img class='stim' src=""pictures/furniture/4.jpg""></div><div class=""button_prompt"">
                    <b>请用数字键0-9回答</b>
                    </div>","","","","","","","","","","","","","","","","","","",""
"751","null","sub_response","html-keyboard-response","197","438432","0.0-1.0-7.0-3.0-2.42","19:36:59","2","","","","","","","<div style='text-align: center;'>
                            <span style=""color: red; font-size: 40px""><b>错误！+0 pts</b></span></div>
                            ","","learn","4","4","4","learn","4","4","[0, 1, 2, 3, 4, 5, 6, 7, 8, 9]","42","4","setsize","10S10A","furniture","1","0","2","0",""
"null","null","fixation","html-keyboard-response","198","438933","0.0-1.0-7.0-3.0-0.43","19:36:59","2","","","","","","","fixation","","","","","","","","","","","","","","","","","","",""
"692","3","pic_response","html-keyboard-response","199","439626","0.0-1.0-7.0-3.0-1.43","19:36:59","2","","","","","","","<div>
            <img class='stim' src=""pictures/furniture/3.jpg""></div><div class=""button_prompt"">
                    <b>请用数字键0-9回答</b>
                    </div>","","","","","","","","","","","","","","","","","","",""
"692","null","sub_response","html-keyboard-response","200","440628","0.0-1.0-7.0-3.0-2.43","19:36:59","2","","","","","","","<div style='text-align: center;'>
                            <span style=""color: red; font-size: 40px""><b>错误！+0 pts</b></span></div>
                            ","","learn","3","3","3","learn","3","3","[0, 1, 2, 3, 4, 5, 6, 7, 8, 9]","43","4","setsize","10S10A","furniture","1","0","2","0",""
"null","null","fixation","html-keyboard-response","201","441129","0.0-1.0-7.0-3.0-0.44","19:36:59","2","","","","","","","fixation","","","","","","","","","","","","","","","","","","",""
"2335","6","pic_response","html-keyboard-response","202","443465","0.0-1.0-7.0-3.0-1.44","19:36:59","2","","","","","","","<div>
            <img class='stim' src=""pictures/furniture/7.jpg""></div><div class=""button_prompt"">
                    <b>请用数字键0-9回答</b>
                    </div>","","","","","","","","","","","","","","","","","","",""
"2335","null","sub_response","html-keyboard-response","203","444468","0.0-1.0-7.0-3.0-2.44","19:36:59","2","","","","","","","<div style='text-align: center;'>
                            <span style=""color: red; font-size: 40px""><b>错误！+0 pts</b></span></div>
                            ","","learn","7","7","7","learn","7","7","[0, 1, 2, 3, 4, 5, 6, 7, 8, 9]","44","4","setsize","10S10A","furniture","1","0","5","0",""
"null","null","fixation","html-keyboard-response","204","444969","0.0-1.0-7.0-3.0-0.45","19:36:59","2","","","","","","","fixation","","","","","","","","","","","","","","","","","","",""
"814","9","pic_response","html-keyboard-response","205","445784","0.0-1.0-7.0-3.0-1.45","19:36:59","2","","","","","","","<div>
            <img class='stim' src=""pictures/furniture/6.jpg""></div><div class=""button_prompt"">
                    <b>请用数字键0-9回答</b>
                    </div>","","","","","","","","","","","","","","","","","","",""
"814","null","sub_response","html-keyboard-response","206","446785","0.0-1.0-7.0-3.0-2.45","19:36:59","2","","","","","","","<div style='text-align: center;'>
                            <span style=""color: red; font-size: 40px""><b>错误！+0 pts</b></span></div>
                            ","","learn","6","6","6","learn","6","6","[0, 1, 2, 3, 4, 5, 6, 7, 8, 9]","45","4","setsize","10S10A","furniture","1","0","8","0",""
"null","null","fixation","html-keyboard-response","207","447286","0.0-1.0-7.0-3.0-0.46","19:36:59","2","","","","","","","fixation","","","","","","","","","","","","","","","","","","",""
"712","8","pic_response","html-keyboard-response","208","447999","0.0-1.0-7.0-3.0-1.46","19:36:59","2","","","","","","","<div>
            <img class='stim' src=""pictures/furniture/0.jpg""></div><div class=""button_prompt"">
                    <b>请用数字键0-9回答</b>
                    </div>","","","","","","","","","","","","","","","","","","",""
"712","null","sub_response","html-keyboard-response","209","449000","0.0-1.0-7.0-3.0-2.46","19:36:59","2","","","","","","","<div style='text-align: center;'>
                            <span style=""color: red; font-size: 40px""><b>错误！+0 pts</b></span></div>
                            ","","learn","0","0","0","learn","0","0","[0, 1, 2, 3, 4, 5, 6, 7, 8, 9]","46","4","setsize","10S10A","furniture","1","0","7","0",""
"null","null","fixation","html-keyboard-response","210","449501","0.0-1.0-7.0-3.0-0.47","19:36:59","2","","","","","","","fixation","","","","","","","","","","","","","","","","","","",""
"985","0","pic_response","html-keyboard-response","211","450487","0.0-1.0-7.0-3.0-1.47","19:36:59","2","","","","","","","<div>
            <img class='stim' src=""pictures/furniture/9.jpg""></div><div class=""button_prompt"">
                    <b>请用数字键0-9回答</b>
                    </div>","","","","","","","","","","","","","","","","","","",""
"985","null","sub_response","html-keyboard-response","212","451488","0.0-1.0-7.0-3.0-2.47","19:36:59","2","","","","","","","<div style='text-align: center;'>
                            <span style=""color: green; font-size: 40px""><b>正确！+1 pts</b></span></div>
                            ","","learn","9","9","9","learn","9","9","[0, 1, 2, 3, 4, 5, 6, 7, 8, 9]","47","4","setsize","10S10A","furniture","1","1","9","1",""
"null","null","fixation","html-keyboard-response","213","451990","0.0-1.0-7.0-3.0-0.48","19:36:59","2","","","","","","","fixation","","","","","","","","","","","","","","","","","","",""
"1055","1","pic_response","html-keyboard-response","214","453045","0.0-1.0-7.0-3.0-1.48","19:36:59","2","","","","","","","<div>
            <img class='stim' src=""pictures/furniture/8.jpg""></div><div class=""button_prompt"">
                    <b>请用数字键0-9回答</b>
                    </div>","","","","","","","","","","","","","","","","","","",""
"1055","null","sub_response","html-keyboard-response","215","454046","0.0-1.0-7.0-3.0-2.48","19:36:59","2","","","","","","","<div style='text-align: center;'>
                            <span style=""color: red; font-size: 40px""><b>错误！+0 pts</b></span></div>
                            ","","learn","8","8","8","learn","8","8","[0, 1, 2, 3, 4, 5, 6, 7, 8, 9]","48","4","setsize","10S10A","furniture","1","0","0","0",""
"null","null","fixation","html-keyboard-response","216","454548","0.0-1.0-7.0-3.0-0.49","19:36:59","2","","","","","","","fixation","","","","","","","","","","","","","","","","","","",""
"865","4","pic_response","html-keyboard-response","217","455414","0.0-1.0-7.0-3.0-1.49","19:36:59","2","","","","","","","<div>
            <img class='stim' src=""pictures/furniture/5.jpg""></div><div class=""button_prompt"">
                    <b>请用数字键0-9回答</b>
                    </div>","","","","","","","","","","","","","","","","","","",""
"865","null","sub_response","html-keyboard-response","218","456415","0.0-1.0-7.0-3.0-2.49","19:36:59","2","","","","","","","<div style='text-align: center;'>
                            <span style=""color: red; font-size: 40px""><b>错误！+0 pts</b></span></div>
                            ","","learn","5","5","5","learn","5","5","[0, 1, 2, 3, 4, 5, 6, 7, 8, 9]","49","4","setsize","10S10A","furniture","1","0","3","0",""
"null","null","fixation","html-keyboard-response","219","456916","0.0-1.0-7.0-3.0-0.50","19:36:59","2","","","","","","","fixation","","","","","","","","","","","","","","","","","","",""
"875","4","pic_response","html-keyboard-response","220","457792","0.0-1.0-7.0-3.0-1.50","19:36:59","2","","","","","","","<div>
            <img class='stim' src=""pictures/furniture/8.jpg""></div><div class=""button_prompt"">
                    <b>请用数字键0-9回答</b>
                    </div>","","","","","","","","","","","","","","","","","","",""
"875","null","sub_response","html-keyboard-response","221","458794","0.0-1.0-7.0-3.0-2.50","19:36:59","2","","","","","","","<div style='text-align: center;'>
                            <span style=""color: red; font-size: 40px""><b>错误！+0 pts</b></span></div>
                            ","","learn","8","8","8","learn","8","8","[0, 1, 2, 3, 4, 5, 6, 7, 8, 9]","50","5","setsize","10S10A","furniture","1","0","3","0",""
"null","null","fixation","html-keyboard-response","222","459294","0.0-1.0-7.0-3.0-0.51","19:36:59","2","","","","","","","fixation","","","","","","","","","","","","","","","","","","",""
"524","4","pic_response","html-keyboard-response","223","459819","0.0-1.0-7.0-3.0-1.51","19:36:59","2","","","","","","","<div>
            <img class='stim' src=""pictures/furniture/7.jpg""></div><div class=""button_prompt"">
                    <b>请用数字键0-9回答</b>
                    </div>","","","","","","","","","","","","","","","","","","",""
"524","null","sub_response","html-keyboard-response","224","460819","0.0-1.0-7.0-3.0-2.51","19:36:59","2","","","","","","","<div style='text-align: center;'>
                            <span style=""color: red; font-size: 40px""><b>错误！+0 pts</b></span></div>
                            ","","learn","7","7","7","learn","7","7","[0, 1, 2, 3, 4, 5, 6, 7, 8, 9]","51","5","setsize","10S10A","furniture","1","0","3","0",""
"null","null","fixation","html-keyboard-response","225","461321","0.0-1.0-7.0-3.0-0.52","19:36:59","2","","","","","","","fixation","","","","","","","","","","","","","","","","","","",""
"509","4","pic_response","html-keyboard-response","226","461830","0.0-1.0-7.0-3.0-1.52","19:36:59","2","","","","","","","<div>
            <img class='stim' src=""pictures/furniture/6.jpg""></div><div class=""button_prompt"">
                    <b>请用数字键0-9回答</b>
                    </div>","","","","","","","","","","","","","","","","","","",""
"509","null","sub_response","html-keyboard-response","227","462831","0.0-1.0-7.0-3.0-2.52","19:36:59","2","","","","","","","<div style='text-align: center;'>
                            <span style=""color: red; font-size: 40px""><b>错误！+0 pts</b></span></div>
                            ","","learn","6","6","6","learn","6","6","[0, 1, 2, 3, 4, 5, 6, 7, 8, 9]","52","5","setsize","10S10A","furniture","1","0","3","0",""
"null","null","fixation","html-keyboard-response","228","463333","0.0-1.0-7.0-3.0-0.53","19:36:59","2","","","","","","","fixation","","","","","","","","","","","","","","","","","","",""
"533","4","pic_response","html-keyboard-response","229","463867","0.0-1.0-7.0-3.0-1.53","19:36:59","2","","","","","","","<div>
            <img class='stim' src=""pictures/furniture/0.jpg""></div><div class=""button_prompt"">
                    <b>请用数字键0-9回答</b>
                    </div>","","","","","","","","","","","","","","","","","","",""
"533","null","sub_response","html-keyboard-response","230","464869","0.0-1.0-7.0-3.0-2.53","19:36:59","2","","","","","","","<div style='text-align: center;'>
                            <span style=""color: red; font-size: 40px""><b>错误！+0 pts</b></span></div>
                            ","","learn","0","0","0","learn","0","0","[0, 1, 2, 3, 4, 5, 6, 7, 8, 9]","53","5","setsize","10S10A","furniture","1","0","3","0",""
"null","null","fixation","html-keyboard-response","231","465370","0.0-1.0-7.0-3.0-0.54","19:36:59","2","","","","","","","fixation","","","","","","","","","","","","","","","","","","",""
"804","0","pic_response","html-keyboard-response","232","466175","0.0-1.0-7.0-3.0-1.54","19:36:59","2","","","","","","","<div>
            <img class='stim' src=""pictures/furniture/9.jpg""></div><div class=""button_prompt"">
                    <b>请用数字键0-9回答</b>
                    </div>","","","","","","","","","","","","","","","","","","",""
"804","null","sub_response","html-keyboard-response","233","467176","0.0-1.0-7.0-3.0-2.54","19:36:59","2","","","","","","","<div style='text-align: center;'>
                            <span style=""color: green; font-size: 40px""><b>正确！+1 pts</b></span></div>
                            ","","learn","9","9","9","learn","9","9","[0, 1, 2, 3, 4, 5, 6, 7, 8, 9]","54","5","setsize","10S10A","furniture","1","1","9","1",""
"null","null","fixation","html-keyboard-response","234","467679","0.0-1.0-7.0-3.0-0.55","19:36:59","2","","","","","","","fixation","","","","","","","","","","","","","","","","","","",""
"924","3","pic_response","html-keyboard-response","235","468604","0.0-1.0-7.0-3.0-1.55","19:36:59","2","","","","","","","<div>
            <img class='stim' src=""pictures/furniture/2.jpg""></div><div class=""button_prompt"">
                    <b>请用数字键0-9回答</b>
                    </div>","","","","","","","","","","","","","","","","","","",""
"924","null","sub_response","html-keyboard-response","236","469606","0.0-1.0-7.0-3.0-2.55","19:36:59","2","","","","","","","<div style='text-align: center;'>
                            <span style=""color: green; font-size: 40px""><b>正确！+1 pts</b></span></div>
                            ","","learn","2","2","2","learn","2","2","[0, 1, 2, 3, 4, 5, 6, 7, 8, 9]","55","5","setsize","10S10A","furniture","1","2","2","1",""
"null","null","fixation","html-keyboard-response","237","470108","0.0-1.0-7.0-3.0-0.56","19:36:59","2","","","","","","","fixation","","","","","","","","","","","","","","","","","","",""
"651","2","pic_response","html-keyboard-response","238","470760","0.0-1.0-7.0-3.0-1.56","19:36:59","2","","","","","","","<div>
            <img class='stim' src=""pictures/furniture/1.jpg""></div><div class=""button_prompt"">
                    <b>请用数字键0-9回答</b>
                    </div>","","","","","","","","","","","","","","","","","","",""
"651","null","sub_response","html-keyboard-response","239","471760","0.0-1.0-7.0-3.0-2.56","19:36:59","2","","","","","","","<div style='text-align: center;'>
                            <span style=""color: green; font-size: 40px""><b>正确！+1 pts</b></span></div>
                            ","","learn","1","1","1","learn","1","1","[0, 1, 2, 3, 4, 5, 6, 7, 8, 9]","56","5","setsize","10S10A","furniture","1","3","1","1",""
"null","null","fixation","html-keyboard-response","240","472261","0.0-1.0-7.0-3.0-0.57","19:36:59","2","","","","","","","fixation","","","","","","","","","","","","","","","","","","",""
"861","6","pic_response","html-keyboard-response","241","473123","0.0-1.0-7.0-3.0-1.57","19:36:59","2","","","","","","","<div>
            <img class='stim' src=""pictures/furniture/3.jpg""></div><div class=""button_prompt"">
                    <b>请用数字键0-9回答</b>
                    </div>","","","","","","","","","","","","","","","","","","",""
"861","null","sub_response","html-keyboard-response","242","474124","0.0-1.0-7.0-3.0-2.57","19:36:59","2","","","","","","","<div style='text-align: center;'>
                            <span style=""color: red; font-size: 40px""><b>错误！+0 pts</b></span></div>
                            ","","learn","3","3","3","learn","3","3","[0, 1, 2, 3, 4, 5, 6, 7, 8, 9]","57","5","setsize","10S10A","furniture","1","0","5","0",""
"null","null","fixation","html-keyboard-response","243","474626","0.0-1.0-7.0-3.0-0.58","19:36:59","2","","","","","","","fixation","","","","","","","","","","","","","","","","","","",""
"896","6","pic_response","html-keyboard-response","244","475522","0.0-1.0-7.0-3.0-1.58","19:36:59","2","","","","","","","<div>
            <img class='stim' src=""pictures/furniture/5.jpg""></div><div class=""button_prompt"">
                    <b>请用数字键0-9回答</b>
                    </div>","","","","","","","","","","","","","","","","","","",""
"896","null","sub_response","html-keyboard-response","245","476524","0.0-1.0-7.0-3.0-2.58","19:36:59","2","","","","","","","<div style='text-align: center;'>
                            <span style=""color: green; font-size: 40px""><b>正确！+1 pts</b></span></div>
                            ","","learn","5","5","5","learn","5","5","[0, 1, 2, 3, 4, 5, 6, 7, 8, 9]","58","5","setsize","10S10A","furniture","1","1","5","1",""
"null","null","fixation","html-keyboard-response","246","477026","0.0-1.0-7.0-3.0-0.59","19:36:59","2","","","","","","","fixation","","","","","","","","","","","","","","","","","","",""
"825","9","pic_response","html-keyboard-response","247","477851","0.0-1.0-7.0-3.0-1.59","19:36:59","2","","","","","","","<div>
            <img class='stim' src=""pictures/furniture/4.jpg""></div><div class=""button_prompt"">
                    <b>请用数字键0-9回答</b>
                    </div>","","","","","","","","","","","","","","","","","","",""
"825","null","sub_response","html-keyboard-response","248","478852","0.0-1.0-7.0-3.0-2.59","19:36:59","2","","","","","","","<div style='text-align: center;'>
                            <span style=""color: red; font-size: 40px""><b>错误！+0 pts</b></span></div>
                            ","","learn","4","4","4","learn","4","4","[0, 1, 2, 3, 4, 5, 6, 7, 8, 9]","59","5","setsize","10S10A","furniture","1","0","8","0",""
"null","null","fixation","html-keyboard-response","249","479353","0.0-1.0-7.0-3.0-0.60","19:36:59","2","","","","","","","fixation","","","","","","","","","","","","","","","","","","",""
"697","9","pic_response","html-keyboard-response","250","480051","0.0-1.0-7.0-3.0-1.60","19:36:59","2","","","","","","","<div>
            <img class='stim' src=""pictures/furniture/7.jpg""></div><div class=""button_prompt"">
                    <b>请用数字键0-9回答</b>
                    </div>","","","","","","","","","","","","","","","","","","",""
"697","null","sub_response","html-keyboard-response","251","481054","0.0-1.0-7.0-3.0-2.60","19:36:59","2","","","","","","","<div style='text-align: center;'>
                            <span style=""color: red; font-size: 40px""><b>错误！+0 pts</b></span></div>
                            ","","learn","7","7","7","learn","7","7","[0, 1, 2, 3, 4, 5, 6, 7, 8, 9]","60","6","setsize","10S10A","furniture","1","0","8","0",""
"null","null","fixation","html-keyboard-response","252","481555","0.0-1.0-7.0-3.0-0.61","19:36:59","2","","","","","","","fixation","","","","","","","","","","","","","","","","","","",""
"581","9","pic_response","html-keyboard-response","253","482137","0.0-1.0-7.0-3.0-1.61","19:36:59","2","","","","","","","<div>
            <img class='stim' src=""pictures/furniture/5.jpg""></div><div class=""button_prompt"">
                    <b>请用数字键0-9回答</b>
                    </div>","","","","","","","","","","","","","","","","","","",""
"581","null","sub_response","html-keyboard-response","254","483139","0.0-1.0-7.0-3.0-2.61","19:36:59","2","","","","","","","<div style='text-align: center;'>
                            <span style=""color: red; font-size: 40px""><b>错误！+0 pts</b></span></div>
                            ","","learn","5","5","5","learn","5","5","[0, 1, 2, 3, 4, 5, 6, 7, 8, 9]","61","6","setsize","10S10A","furniture","1","0","8","0",""
"null","null","fixation","html-keyboard-response","255","483640","0.0-1.0-7.0-3.0-0.62","19:36:59","2","","","","","","","fixation","","","","","","","","","","","","","","","","","","",""
"770","9","pic_response","html-keyboard-response","256","484411","0.0-1.0-7.0-3.0-1.62","19:36:59","2","","","","","","","<div>
            <img class='stim' src=""pictures/furniture/4.jpg""></div><div class=""button_prompt"">
                    <b>请用数字键0-9回答</b>
                    </div>","","","","","","","","","","","","","","","","","","",""
"770","null","sub_response","html-keyboard-response","257","485416","0.0-1.0-7.0-3.0-2.62","19:36:59","2","","","","","","","<div style='text-align: center;'>
                            <span style=""color: red; font-size: 40px""><b>错误！+0 pts</b></span></div>
                            ","","learn","4","4","4","learn","4","4","[0, 1, 2, 3, 4, 5, 6, 7, 8, 9]","62","6","setsize","10S10A","furniture","1","0","8","0",""
"null","null","fixation","html-keyboard-response","258","485917","0.0-1.0-7.0-3.0-0.63","19:36:59","2","","","","","","","fixation","","","","","","","","","","","","","","","","","","",""
"1161","6","pic_response","html-keyboard-response","259","487079","0.0-1.0-7.0-3.0-1.63","19:36:59","2","","","","","","","<div>
            <img class='stim' src=""pictures/furniture/3.jpg""></div><div class=""button_prompt"">
                    <b>请用数字键0-9回答</b>
                    </div>","","","","","","","","","","","","","","","","","","",""
"1161","null","sub_response","html-keyboard-response","260","488080","0.0-1.0-7.0-3.0-2.63","19:36:59","2","","","","","","","<div style='text-align: center;'>
                            <span style=""color: red; font-size: 40px""><b>错误！+0 pts</b></span></div>
                            ","","learn","3","3","3","learn","3","3","[0, 1, 2, 3, 4, 5, 6, 7, 8, 9]","63","6","setsize","10S10A","furniture","1","0","5","0",""
"null","null","fixation","html-keyboard-response","261","488581","0.0-1.0-7.0-3.0-0.64","19:36:59","2","","","","","","","fixation","","","","","","","","","","","","","","","","","","",""
"726","9","pic_response","html-keyboard-response","262","489308","0.0-1.0-7.0-3.0-1.64","19:36:59","2","","","","","","","<div>
            <img class='stim' src=""pictures/furniture/6.jpg""></div><div class=""button_prompt"">
                    <b>请用数字键0-9回答</b>
                    </div>","","","","","","","","","","","","","","","","","","",""
"726","null","sub_response","html-keyboard-response","263","490309","0.0-1.0-7.0-3.0-2.64","19:36:59","2","","","","","","","<div style='text-align: center;'>
                            <span style=""color: red; font-size: 40px""><b>错误！+0 pts</b></span></div>
                            ","","learn","6","6","6","learn","6","6","[0, 1, 2, 3, 4, 5, 6, 7, 8, 9]","64","6","setsize","10S10A","furniture","1","0","8","0",""
"null","null","fixation","html-keyboard-response","264","490810","0.0-1.0-7.0-3.0-0.65","19:36:59","2","","","","","","","fixation","","","","","","","","","","","","","","","","","","",""
"841","0","pic_response","html-keyboard-response","265","491652","0.0-1.0-7.0-3.0-1.65","19:36:59","2","","","","","","","<div>
            <img class='stim' src=""pictures/furniture/9.jpg""></div><div class=""button_prompt"">
                    <b>请用数字键0-9回答</b>
                    </div>","","","","","","","","","","","","","","","","","","",""
"841","null","sub_response","html-keyboard-response","266","492652","0.0-1.0-7.0-3.0-2.65","19:36:59","2","","","","","","","<div style='text-align: center;'>
                            <span style=""color: green; font-size: 40px""><b>正确！+1 pts</b></span></div>
                            ","","learn","9","9","9","learn","9","9","[0, 1, 2, 3, 4, 5, 6, 7, 8, 9]","65","6","setsize","10S10A","furniture","1","1","9","1",""
"null","null","fixation","html-keyboard-response","267","493154","0.0-1.0-7.0-3.0-0.66","19:36:59","2","","","","","","","fixation","","","","","","","","","","","","","","","","","","",""
"742","3","pic_response","html-keyboard-response","268","493897","0.0-1.0-7.0-3.0-1.66","19:36:59","2","","","","","","","<div>
            <img class='stim' src=""pictures/furniture/2.jpg""></div><div class=""button_prompt"">
                    <b>请用数字键0-9回答</b>
                    </div>","","","","","","","","","","","","","","","","","","",""
"742","null","sub_response","html-keyboard-response","269","494898","0.0-1.0-7.0-3.0-2.66","19:36:59","2","","","","","","","<div style='text-align: center;'>
                            <span style=""color: green; font-size: 40px""><b>正确！+1 pts</b></span></div>
                            ","","learn","2","2","2","learn","2","2","[0, 1, 2, 3, 4, 5, 6, 7, 8, 9]","66","6","setsize","10S10A","furniture","1","2","2","1",""
"null","null","fixation","html-keyboard-response","270","495399","0.0-1.0-7.0-3.0-0.67","19:36:59","2","","","","","","","fixation","","","","","","","","","","","","","","","","","","",""
"1229","1","pic_response","html-keyboard-response","271","496629","0.0-1.0-7.0-3.0-1.67","19:36:59","2","","","","","","","<div>
            <img class='stim' src=""pictures/furniture/0.jpg""></div><div class=""button_prompt"">
                    <b>请用数字键0-9回答</b>
                    </div>","","","","","","","","","","","","","","","","","","",""
"1229","null","sub_response","html-keyboard-response","272","497629","0.0-1.0-7.0-3.0-2.67","19:36:59","2","","","","","","","<div style='text-align: center;'>
                            <span style=""color: green; font-size: 40px""><b>正确！+1 pts</b></span></div>
                            ","","learn","0","0","0","learn","0","0","[0, 1, 2, 3, 4, 5, 6, 7, 8, 9]","67","6","setsize","10S10A","furniture","1","3","0","1",""
"null","null","fixation","html-keyboard-response","273","498131","0.0-1.0-7.0-3.0-0.68","19:36:59","2","","","","","","","fixation","","","","","","","","","","","","","","","","","","",""
"906","4","pic_response","html-keyboard-response","274","499037","0.0-1.0-7.0-3.0-1.68","19:36:59","2","","","","","","","<div>
            <img class='stim' src=""pictures/furniture/8.jpg""></div><div class=""button_prompt"">
                    <b>请用数字键0-9回答</b>
                    </div>","","","","","","","","","","","","","","","","","","",""
"906","null","sub_response","html-keyboard-response","275","500039","0.0-1.0-7.0-3.0-2.68","19:36:59","2","","","","","","","<div style='text-align: center;'>
                            <span style=""color: red; font-size: 40px""><b>错误！+0 pts</b></span></div>
                            ","","learn","8","8","8","learn","8","8","[0, 1, 2, 3, 4, 5, 6, 7, 8, 9]","68","6","setsize","10S10A","furniture","1","0","3","0",""
"null","null","fixation","html-keyboard-response","276","500540","0.0-1.0-7.0-3.0-0.69","19:36:59","2","","","","","","","fixation","","","","","","","","","","","","","","","","","","",""
"1043","2","pic_response","html-keyboard-response","277","501584","0.0-1.0-7.0-3.0-1.69","19:36:59","2","","","","","","","<div>
            <img class='stim' src=""pictures/furniture/1.jpg""></div><div class=""button_prompt"">
                    <b>请用数字键0-9回答</b>
                    </div>","","","","","","","","","","","","","","","","","","",""
"1043","null","sub_response","html-keyboard-response","278","502585","0.0-1.0-7.0-3.0-2.69","19:36:59","2","","","","","","","<div style='text-align: center;'>
                            <span style=""color: green; font-size: 40px""><b>正确！+1 pts</b></span></div>
                            ","","learn","1","1","1","learn","1","1","[0, 1, 2, 3, 4, 5, 6, 7, 8, 9]","69","6","setsize","10S10A","furniture","1","1","1","1",""
"null","null","fixation","html-keyboard-response","279","503087","0.0-1.0-7.0-3.0-0.70","19:36:59","2","","","","","","","fixation","","","","","","","","","","","","","","","","","","",""
"871","0","pic_response","html-keyboard-response","280","503958","0.0-1.0-7.0-3.0-1.70","19:36:59","2","","","","","","","<div>
            <img class='stim' src=""pictures/furniture/9.jpg""></div><div class=""button_prompt"">
                    <b>请用数字键0-9回答</b>
                    </div>","","","","","","","","","","","","","","","","","","",""
"871","null","sub_response","html-keyboard-response","281","504960","0.0-1.0-7.0-3.0-2.70","19:36:59","2","","","","","","","<div style='text-align: center;'>
                            <span style=""color: green; font-size: 40px""><b>正确！+1 pts</b></span></div>
                            ","","learn","9","9","9","learn","9","9","[0, 1, 2, 3, 4, 5, 6, 7, 8, 9]","70","7","setsize","10S10A","furniture","1","2","9","1",""
"null","null","fixation","html-keyboard-response","282","505461","0.0-1.0-7.0-3.0-0.71","19:36:59","2","","","","","","","fixation","","","","","","","","","","","","","","","","","","",""
"1205","4","pic_response","html-keyboard-response","283","506666","0.0-1.0-7.0-3.0-1.71","19:36:59","2","","","","","","","<div>
            <img class='stim' src=""pictures/furniture/5.jpg""></div><div class=""button_prompt"">
                    <b>请用数字键0-9回答</b>
                    </div>","","","","","","","","","","","","","","","","","","",""
"1205","null","sub_response","html-keyboard-response","284","507667","0.0-1.0-7.0-3.0-2.71","19:36:59","2","","","","","","","<div style='text-align: center;'>
                            <span style=""color: red; font-size: 40px""><b>错误！+0 pts</b></span></div>
                            ","","learn","5","5","5","learn","5","5","[0, 1, 2, 3, 4, 5, 6, 7, 8, 9]","71","7","setsize","10S10A","furniture","1","0","3","0",""
"null","null","fixation","html-keyboard-response","285","508169","0.0-1.0-7.0-3.0-0.72","19:36:59","2","","","","","","","fixation","","","","","","","","","","","","","","","","","","",""
"804","3","pic_response","html-keyboard-response","286","508974","0.0-1.0-7.0-3.0-1.72","19:36:59","2","","","","","","","<div>
            <img class='stim' src=""pictures/furniture/2.jpg""></div><div class=""button_prompt"">
                    <b>请用数字键0-9回答</b>
                    </div>","","","","","","","","","","","","","","","","","","",""
"804","null","sub_response","html-keyboard-response","287","509975","0.0-1.0-7.0-3.0-2.72","19:36:59","2","","","","","","","<div style='text-align: center;'>
                            <span style=""color: green; font-size: 40px""><b>正确！+1 pts</b></span></div>
                            ","","learn","2","2","2","learn","2","2","[0, 1, 2, 3, 4, 5, 6, 7, 8, 9]","72","7","setsize","10S10A","furniture","1","1","2","1",""
"null","null","fixation","html-keyboard-response","288","510477","0.0-1.0-7.0-3.0-0.73","19:36:59","2","","","","","","","fixation","","","","","","","","","","","","","","","","","","",""
"961","9","pic_response","html-keyboard-response","289","511438","0.0-1.0-7.0-3.0-1.73","19:36:59","2","","","","","","","<div>
            <img class='stim' src=""pictures/furniture/7.jpg""></div><div class=""button_prompt"">
                    <b>请用数字键0-9回答</b>
                    </div>","","","","","","","","","","","","","","","","","","",""
"961","null","sub_response","html-keyboard-response","290","512439","0.0-1.0-7.0-3.0-2.73","19:36:59","2","","","","","","","<div style='text-align: center;'>
                            <span style=""color: red; font-size: 40px""><b>错误！+0 pts</b></span></div>
                            ","","learn","7","7","7","learn","7","7","[0, 1, 2, 3, 4, 5, 6, 7, 8, 9]","73","7","setsize","10S10A","furniture","1","0","8","0",""
"null","null","fixation","html-keyboard-response","291","512941","0.0-1.0-7.0-3.0-0.74","19:36:59","2","","","","","","","fixation","","","","","","","","","","","","","","","","","","",""
"900","1","pic_response","html-keyboard-response","292","513841","0.0-1.0-7.0-3.0-1.74","19:36:59","2","","","","","","","<div>
            <img class='stim' src=""pictures/furniture/8.jpg""></div><div class=""button_prompt"">
                    <b>请用数字键0-9回答</b>
                    </div>","","","","","","","","","","","","","","","","","","",""
"900","null","sub_response","html-keyboard-response","293","514842","0.0-1.0-7.0-3.0-2.74","19:36:59","2","","","","","","","<div style='text-align: center;'>
                            <span style=""color: red; font-size: 40px""><b>错误！+0 pts</b></span></div>
                            ","","learn","8","8","8","learn","8","8","[0, 1, 2, 3, 4, 5, 6, 7, 8, 9]","74","7","setsize","10S10A","furniture","1","0","0","0",""
"null","null","fixation","html-keyboard-response","294","515343","0.0-1.0-7.0-3.0-0.75","19:36:59","2","","","","","","","fixation","","","","","","","","","","","","","","","","","","",""
"1055","6","pic_response","html-keyboard-response","295","516399","0.0-1.0-7.0-3.0-1.75","19:36:59","2","","","","","","","<div>
            <img class='stim' src=""pictures/furniture/4.jpg""></div><div class=""button_prompt"">
                    <b>请用数字键0-9回答</b>
                    </div>","","","","","","","","","","","","","","","","","","",""
"1055","null","sub_response","html-keyboard-response","296","517400","0.0-1.0-7.0-3.0-2.75","19:36:59","2","","","","","","","<div style='text-align: center;'>
                            <span style=""color: red; font-size: 40px""><b>错误！+0 pts</b></span></div>
                            ","","learn","4","4","4","learn","4","4","[0, 1, 2, 3, 4, 5, 6, 7, 8, 9]","75","7","setsize","10S10A","furniture","1","0","5","0",""
"null","null","fixation","html-keyboard-response","297","517901","0.0-1.0-7.0-3.0-0.76","19:36:59","2","","","","","","","fixation","","","","","","","","","","","","","","","","","","",""
"990","8","pic_response","html-keyboard-response","298","518891","0.0-1.0-7.0-3.0-1.76","19:36:59","2","","","","","","","<div>
            <img class='stim' src=""pictures/furniture/3.jpg""></div><div class=""button_prompt"">
                    <b>请用数字键0-9回答</b>
                    </div>","","","","","","","","","","","","","","","","","","",""
"990","null","sub_response","html-keyboard-response","299","519892","0.0-1.0-7.0-3.0-2.76","19:36:59","2","","","","","","","<div style='text-align: center;'>
                            <span style=""color: red; font-size: 40px""><b>错误！+0 pts</b></span></div>
                            ","","learn","3","3","3","learn","3","3","[0, 1, 2, 3, 4, 5, 6, 7, 8, 9]","76","7","setsize","10S10A","furniture","1","0","7","0",""
"null","null","fixation","html-keyboard-response","300","520393","0.0-1.0-7.0-3.0-0.77","19:36:59","2","","","","","","","fixation","","","","","","","","","","","","","","","","","","",""
"1622","2","pic_response","html-keyboard-response","301","522016","0.0-1.0-7.0-3.0-1.77","19:36:59","2","","","","","","","<div>
            <img class='stim' src=""pictures/furniture/1.jpg""></div><div class=""button_prompt"">
                    <b>请用数字键0-9回答</b>
                    </div>","","","","","","","","","","","","","","","","","","",""
"1622","null","sub_response","html-keyboard-response","302","523016","0.0-1.0-7.0-3.0-2.77","19:36:59","2","","","","","","","<div style='text-align: center;'>
                            <span style=""color: green; font-size: 40px""><b>正确！+1 pts</b></span></div>
                            ","","learn","1","1","1","learn","1","1","[0, 1, 2, 3, 4, 5, 6, 7, 8, 9]","77","7","setsize","10S10A","furniture","1","1","1","1",""
"null","null","fixation","html-keyboard-response","303","523518","0.0-1.0-7.0-3.0-0.78","19:36:59","2","","","","","","","fixation","","","","","","","","","","","","","","","","","","",""
"1083","4","pic_response","html-keyboard-response","304","524602","0.0-1.0-7.0-3.0-1.78","19:36:59","2","","","","","","","<div>
            <img class='stim' src=""pictures/furniture/6.jpg""></div><div class=""button_prompt"">
                    <b>请用数字键0-9回答</b>
                    </div>","","","","","","","","","","","","","","","","","","",""
"1083","null","sub_response","html-keyboard-response","305","525603","0.0-1.0-7.0-3.0-2.78","19:36:59","2","","","","","","","<div style='text-align: center;'>
                            <span style=""color: red; font-size: 40px""><b>错误！+0 pts</b></span></div>
                            ","","learn","6","6","6","learn","6","6","[0, 1, 2, 3, 4, 5, 6, 7, 8, 9]","78","7","setsize","10S10A","furniture","1","0","3","0",""
"null","null","fixation","html-keyboard-response","306","526104","0.0-1.0-7.0-3.0-0.79","19:36:59","2","","","","","","","fixation","","","","","","","","","","","","","","","","","","",""
"762","1","pic_response","html-keyboard-response","307","526867","0.0-1.0-7.0-3.0-1.79","19:36:59","2","","","","","","","<div>
            <img class='stim' src=""pictures/furniture/0.jpg""></div><div class=""button_prompt"">
                    <b>请用数字键0-9回答</b>
                    </div>","","","","","","","","","","","","","","","","","","",""
"762","null","sub_response","html-keyboard-response","308","527869","0.0-1.0-7.0-3.0-2.79","19:36:59","2","","","","","","","<div style='text-align: center;'>
                            <span style=""color: green; font-size: 40px""><b>正确！+1 pts</b></span></div>
                            ","","learn","0","0","0","learn","0","0","[0, 1, 2, 3, 4, 5, 6, 7, 8, 9]","79","7","setsize","10S10A","furniture","1","1","0","1",""
"null","null","fixation","html-keyboard-response","309","528371","0.0-1.0-7.0-3.0-0.80","19:36:59","2","","","","","","","fixation","","","","","","","","","","","","","","","","","","",""
"715","1","pic_response","html-keyboard-response","310","529087","0.0-1.0-7.0-3.0-1.80","19:36:59","2","","","","","","","<div>
            <img class='stim' src=""pictures/furniture/0.jpg""></div><div class=""button_prompt"">
                    <b>请用数字键0-9回答</b>
                    </div>","","","","","","","","","","","","","","","","","","",""
"715","null","sub_response","html-keyboard-response","311","530088","0.0-1.0-7.0-3.0-2.80","19:36:59","2","","","","","","","<div style='text-align: center;'>
                            <span style=""color: green; font-size: 40px""><b>正确！+1 pts</b></span></div>
                            ","","learn","0","0","0","learn","0","0","[0, 1, 2, 3, 4, 5, 6, 7, 8, 9]","80","8","setsize","10S10A","furniture","1","2","0","1",""
"null","null","fixation","html-keyboard-response","312","530589","0.0-1.0-7.0-3.0-0.81","19:36:59","2","","","","","","","fixation","","","","","","","","","","","","","","","","","","",""
"870","4","pic_response","html-keyboard-response","313","531460","0.0-1.0-7.0-3.0-1.81","19:36:59","2","","","","","","","<div>
            <img class='stim' src=""pictures/furniture/5.jpg""></div><div class=""button_prompt"">
                    <b>请用数字键0-9回答</b>
                    </div>","","","","","","","","","","","","","","","","","","",""
"870","null","sub_response","html-keyboard-response","314","532462","0.0-1.0-7.0-3.0-2.81","19:36:59","2","","","","","","","<div style='text-align: center;'>
                            <span style=""color: red; font-size: 40px""><b>错误！+0 pts</b></span></div>
                            ","","learn","5","5","5","learn","5","5","[0, 1, 2, 3, 4, 5, 6, 7, 8, 9]","81","8","setsize","10S10A","furniture","1","0","3","0",""
"null","null","fixation","html-keyboard-response","315","532973","0.0-1.0-7.0-3.0-0.82","19:36:59","2","","","","","","","fixation","","","","","","","","","","","","","","","","","","",""
"946","1","pic_response","html-keyboard-response","316","533920","0.0-1.0-7.0-3.0-1.82","19:36:59","2","","","","","","","<div>
