"rt","response","screen_id","trial_type","trial_index","time_elapsed","internal_node_id","start_time","n_Prac","success","timeout","failed_images","failed_audio","failed_video","view_history","stimulus","question_order","stage","s","word","word_id","phase","a_cor","a_real","a_ava","trial","tps","task_type","block_typ","pic_typ","block_id","cum_r","a","r","plugin_name"
"58613","{""sub_id"":""289"",""task_type"":""task1"",""name"":""航"",""gender"":""M""}","basic_info","survey-html-form","0","58619","0.0-0.0","13:18:45","2","","","","","","","","","","","","","","","","","","","","","","","","","",""
"","","","preload","1","58674","0.0-1.0-0.0","13:18:45","2","true","false","[]","[]","[]","","","","","","","","","","","","","","","","","","","","",""
"","","","preload","2","58683","0.0-1.0-1.0","13:18:45","2","true","false","[]","[]","[]","","","","","","","","","","","","","","","","","","","","",""
"","","","fullscreen","3","61276","0.0-1.0-2.0","13:18:45","2","true","","","","","","","","","","","","","","","","","","","","","","","","",""
"59815","","instruct","instructions","4","121092","0.0-1.0-3.0-0.0","13:18:45","2","","","","","","[{""page_index"":0,""viewing_time"":9239},{""page_index"":1,""viewing_time"":14183},{""page_index"":2,""viewing_time"":36392}]","","","","","","","","","","","","","","","","","","","",""
"48757","{""Q0"":"""",""task1"":""<span style='font-size: 24px'>学习图片和数字的对应关系</span>"",""task2"":""<span style='font-size: 24px'> 图片下方标注为可用的数字键（数字键1-3或0-9） </span>"",""task3"":""<span style='font-size: 24px'> 看到图片选出正确对应的数字 </span>""}","question","survey-multi-choice","5","169854","0.0-1.0-3.0-1.0","13:18:45","2","","","","","","","","[0,1,2,3]","","","","","","","","","","","","","","","","","",""
"131880"," ","inst_q","html-keyboard-response","6","301735","0.0-1.0-3.0-2.0","13:18:45","2","","","","","","","inst","","1","","","","","","","","","","","","","","","","",""
"","","","preload","7","301753","0.0-1.0-4.0-0.0","13:18:45","2","true","false","[]","[]","[]","","","","","","","","","","","","","","","","","","","","",""
"7106"," ","","html-keyboard-response","8","308861","0.0-1.0-4.0-1.0","13:18:45","2","","","","","","","<div style='font-size: 32px; text-align: center;'
                    <p>请学习图片和数字之间的对应关系</p>
                    <p>我们将<span style='color: blue'><b> 告诉 </b></span>您选择的对错。请根据反馈学习。</p>
                    <p>请按""空格""继续实验。</p></div>","","","","","","","","","","","","","","","","","","",""
"46391"," ","inst","html-keyboard-response","9","355253","0.0-1.0-4.0-2.0","13:18:45","2","","","","","","","<img class='instruct_stim' src=""instruction/prac3.PNG""></div>","","","","","","","","","","","","","","","","","","",""
"null","null","fixation","html-keyboard-response","10","355757","0.0-1.0-4.0-3.0-0.0","13:18:45","2","","","","","","","fixation","","","","","","","","","","","","","","","","","","",""
"2109","3","pic_response","html-keyboard-response","11","357868","0.0-1.0-4.0-3.0-1.0","13:18:45","2","","","","","","","<div>
            <img class='stim' src=""pictures/prac/0.jpg""></div><div class=""button_prompt"">
                        <b>请用数字键1-3回答</b>
                        </div>","","","","","","","","","","","","","","","","","","",""
"2109","null","sub_response","html-keyboard-response","12","358871","0.0-1.0-4.0-3.0-2.0","13:18:45","2","","","","","","","<div style='text-align: center;'>
                            <span style=""color: red; font-size: 40px""><b>错误！+0 pts</b></span></div>
                            ","","learn","0","0","0","learn","0","0","[0, 1, 2]","0","0","setsize","99","prac","0","0","2","0",""
"null","null","fixation","html-keyboard-response","13","359374","0.0-1.0-4.0-3.0-0.1","13:18:45","2","","","","","","","fixation","","","","","","","","","","","","","","","","","","",""
"2054","2","pic_response","html-keyboard-response","14","361428","0.0-1.0-4.0-3.0-1.1","13:18:45","2","","","","","","","<div>
            <img class='stim' src=""pictures/prac/2.jpg""></div><div class=""button_prompt"">
                        <b>请用数字键1-3回答</b>
                        </div>","","","","","","","","","","","","","","","","","","",""
"2054","null","sub_response","html-keyboard-response","15","362431","0.0-1.0-4.0-3.0-2.1","13:18:45","2","","","","","","","<div style='text-align: center;'>
                            <span style=""color: red; font-size: 40px""><b>错误！+0 pts</b></span></div>
                            ","","learn","2","2","2","learn","2","2","[0, 1, 2]","1","0","setsize","99","prac","0","0","1","0",""
"null","null","fixation","html-keyboard-response","16","362933","0.0-1.0-4.0-3.0-0.2","13:18:45","2","","","","","","","fixation","","","","","","","","","","","","","","","","","","",""
"558","1","pic_response","html-keyboard-response","17","363493","0.0-1.0-4.0-3.0-1.2","13:18:45","2","","","","","","","<div>
            <img class='stim' src=""pictures/prac/1.jpg""></div><div class=""button_prompt"">
                        <b>请用数字键1-3回答</b>
                        </div>","","","","","","","","","","","","","","","","","","",""
"558","null","sub_response","html-keyboard-response","18","364495","0.0-1.0-4.0-3.0-2.2","13:18:45","2","","","","","","","<div style='text-align: center;'>
                            <span style=""color: green; font-size: 40px""><b>正确！+1 pts</b></span></div>
                            ","","learn","1","1","1","learn","0","0","[0, 1, 2]","2","0","setsize","99","prac","0","1","0","1",""
"null","null","fixation","html-keyboard-response","19","364996","0.0-1.0-4.0-3.0-0.3","13:18:45","2","","","","","","","fixation","","","","","","","","","","","","","","","","","","",""
"680","1","pic_response","html-keyboard-response","20","365677","0.0-1.0-4.0-3.0-1.3","13:18:45","2","","","","","","","<div>
            <img class='stim' src=""pictures/prac/1.jpg""></div><div class=""button_prompt"">
                        <b>请用数字键1-3回答</b>
                        </div>","","","","","","","","","","","","","","","","","","",""
"680","null","sub_response","html-keyboard-response","21","366679","0.0-1.0-4.0-3.0-2.3","13:18:45","2","","","","","","","<div style='text-align: center;'>
                            <span style=""color: green; font-size: 40px""><b>正确！+1 pts</b></span></div>
                            ","","learn","1","1","1","learn","0","0","[0, 1, 2]","3","1","setsize","99","prac","0","2","0","1",""
"null","null","fixation","html-keyboard-response","22","367181","0.0-1.0-4.0-3.0-0.4","13:18:45","2","","","","","","","fixation","","","","","","","","","","","","","","","","","","",""
"553","3","pic_response","html-keyboard-response","23","367734","0.0-1.0-4.0-3.0-1.4","13:18:45","2","","","","","","","<div>
            <img class='stim' src=""pictures/prac/2.jpg""></div><div class=""button_prompt"">
                        <b>请用数字键1-3回答</b>
                        </div>","","","","","","","","","","","","","","","","","","",""
"553","null","sub_response","html-keyboard-response","24","368736","0.0-1.0-4.0-3.0-2.4","13:18:45","2","","","","","","","<div style='text-align: center;'>
                            <span style=""color: green; font-size: 40px""><b>正确！+1 pts</b></span></div>
                            ","","learn","2","2","2","learn","2","2","[0, 1, 2]","4","1","setsize","99","prac","0","3","2","1",""
"null","null","fixation","html-keyboard-response","25","369239","0.0-1.0-4.0-3.0-0.5","13:18:45","2","","","","","","","fixation","","","","","","","","","","","","","","","","","","",""
"733","2","pic_response","html-keyboard-response","26","369973","0.0-1.0-4.0-3.0-1.5","13:18:45","2","","","","","","","<div>
            <img class='stim' src=""pictures/prac/0.jpg""></div><div class=""button_prompt"">
                        <b>请用数字键1-3回答</b>
                        </div>","","","","","","","","","","","","","","","","","","",""
"733","null","sub_response","html-keyboard-response","27","370975","0.0-1.0-4.0-3.0-2.5","13:18:45","2","","","","","","","<div style='text-align: center;'>
                            <span style=""color: red; font-size: 40px""><b>错误！+0 pts</b></span></div>
                            ","","learn","0","0","0","learn","0","0","[0, 1, 2]","5","1","setsize","99","prac","0","0","1","0",""
"","","","preload","28","370977","0.0-1.0-4.1-0.1","13:18:45","2","true","false","[]","[]","[]","","","","","","","","","","","","","","","","","","","","",""
"1354"," ","","html-keyboard-response","29","372332","0.0-1.0-4.1-1.1","13:18:45","2","","","","","","","<div style='font-size: 32px; text-align: center;'
                    <p>请学习图片和数字之间的对应关系</p>
                    <p>我们将<span style='color: blue'><b> 告诉 </b></span>您选择的对错。请根据反馈学习。</p>
                    <p>请按""空格""继续实验。</p></div>","","","","","","","","","","","","","","","","","","",""
"1721"," ","inst","html-keyboard-response","30","374054","0.0-1.0-4.1-2.1","13:18:45","2","","","","","","","<img class='instruct_stim' src=""instruction/prac3.PNG""></div>","","","","","","","","","","","","","","","","","","",""
"null","null","fixation","html-keyboard-response","31","374555","0.0-1.0-4.1-3.1-0.6","13:18:45","2","","","","","","","fixation","","","","","","","","","","","","","","","","","","",""
"625","1","pic_response","html-keyboard-response","32","375182","0.0-1.0-4.1-3.1-1.6","13:18:45","2","","","","","","","<div>
            <img class='stim' src=""pictures/prac/0.jpg""></div><div class=""button_prompt"">
                        <b>请用数字键1-3回答</b>
                        </div>","","","","","","","","","","","","","","","","","","",""
"625","null","sub_response","html-keyboard-response","33","376184","0.0-1.0-4.1-3.1-2.6","13:18:45","2","","","","","","","<div style='text-align: center;'>
                            <span style=""color: green; font-size: 40px""><b>正确！+1 pts</b></span></div>
                            ","","learn","0","0","0","learn","0","0","[0, 1, 2]","0","0","setsize","99","prac","0","1","0","1",""
"null","null","fixation","html-keyboard-response","34","376686","0.0-1.0-4.1-3.1-0.7","13:18:45","2","","","","","","","fixation","","","","","","","","","","","","","","","","","","",""
"1294","3","pic_response","html-keyboard-response","35","377980","0.0-1.0-4.1-3.1-1.7","13:18:45","2","","","","","","","<div>
            <img class='stim' src=""pictures/prac/2.jpg""></div><div class=""button_prompt"">
                        <b>请用数字键1-3回答</b>
                        </div>","","","","","","","","","","","","","","","","","","",""
"1294","null","sub_response","html-keyboard-response","36","378982","0.0-1.0-4.1-3.1-2.7","13:18:45","2","","","","","","","<div style='text-align: center;'>
                            <span style=""color: green; font-size: 40px""><b>正确！+1 pts</b></span></div>
                            ","","learn","2","2","2","learn","2","2","[0, 1, 2]","1","0","setsize","99","prac","0","2","2","1",""
"null","null","fixation","html-keyboard-response","37","379483","0.0-1.0-4.1-3.1-0.8","13:18:45","2","","","","","","","fixation","","","","","","","","","","","","","","","","","","",""
"1144","1","pic_response","html-keyboard-response","38","380628","0.0-1.0-4.1-3.1-1.8","13:18:45","2","","","","","","","<div>
            <img class='stim' src=""pictures/prac/1.jpg""></div><div class=""button_prompt"">
                        <b>请用数字键1-3回答</b>
                        </div>","","","","","","","","","","","","","","","","","","",""
"1144","null","sub_response","html-keyboard-response","39","381629","0.0-1.0-4.1-3.1-2.8","13:18:45","2","","","","","","","<div style='text-align: center;'>
                            <span style=""color: green; font-size: 40px""><b>正确！+1 pts</b></span></div>
                            ","","learn","1","1","1","learn","0","0","[0, 1, 2]","2","0","setsize","99","prac","0","3","0","1",""
"null","null","fixation","html-keyboard-response","40","382131","0.0-1.0-4.1-3.1-0.9","13:18:45","2","","","","","","","fixation","","","","","","","","","","","","","","","","","","",""
"816","1","pic_response","html-keyboard-response","41","382949","0.0-1.0-4.1-3.1-1.9","13:18:45","2","","","","","","","<div>
            <img class='stim' src=""pictures/prac/1.jpg""></div><div class=""button_prompt"">
                        <b>请用数字键1-3回答</b>
                        </div>","","","","","","","","","","","","","","","","","","",""
"816","null","sub_response","html-keyboard-response","42","383951","0.0-1.0-4.1-3.1-2.9","13:18:45","2","","","","","","","<div style='text-align: center;'>
                            <span style=""color: green; font-size: 40px""><b>正确！+1 pts</b></span></div>
                            ","","learn","1","1","1","learn","0","0","[0, 1, 2]","3","1","setsize","99","prac","0","4","0","1",""
"null","null","fixation","html-keyboard-response","43","384452","0.0-1.0-4.1-3.1-0.10","13:18:45","2","","","","","","","fixation","","","","","","","","","","","","","","","","","","",""
"2143","3","pic_response","html-keyboard-response","44","386597","0.0-1.0-4.1-3.1-1.10","13:18:45","2","","","","","","","<div>
            <img class='stim' src=""pictures/prac/2.jpg""></div><div class=""button_prompt"">
                        <b>请用数字键1-3回答</b>
                        </div>","","","","","","","","","","","","","","","","","","",""
"2143","null","sub_response","html-keyboard-response","45","387598","0.0-1.0-4.1-3.1-2.10","13:18:45","2","","","","","","","<div style='text-align: center;'>
                            <span style=""color: green; font-size: 40px""><b>正确！+1 pts</b></span></div>
                            ","","learn","2","2","2","learn","2","2","[0, 1, 2]","4","1","setsize","99","prac","0","5","2","1",""
"null","null","fixation","html-keyboard-response","46","388099","0.0-1.0-4.1-3.1-0.11","13:18:45","2","","","","","","","fixation","","","","","","","","","","","","","","","","","","",""
"2721","1","pic_response","html-keyboard-response","47","390822","0.0-1.0-4.1-3.1-1.11","13:18:45","2","","","","","","","<div>
            <img class='stim' src=""pictures/prac/0.jpg""></div><div class=""button_prompt"">
                        <b>请用数字键1-3回答</b>
                        </div>","","","","","","","","","","","","","","","","","","",""
"2721","null","sub_response","html-keyboard-response","48","391824","0.0-1.0-4.1-3.1-2.11","13:18:45","2","","","","","","","<div style='text-align: center;'>
                            <span style=""color: green; font-size: 40px""><b>正确！+1 pts</b></span></div>
                            ","","learn","0","0","0","learn","0","0","[0, 1, 2]","5","1","setsize","99","prac","0","6","0","1",""
"57803"," ","","html-keyboard-response","49","449628","0.0-1.0-5.0","13:18:45","2","","","","","","","<div style=""font-size: 25px""><p>距下一个实验开始还有</p><div style=""font-size: 50px; color: blue""><p><span id=""clock"">1:00</span></div></p><p>按""空格""跳过休息</p></div>","","","","","","","","","","","","","","","","","","",""
"2391"," ","","html-keyboard-response","50","452020","0.0-1.0-6.0","13:18:45","2","","","","","","","<div style='font-size: 32px; text-align: center;'
                    <p>请按""空格""继续正式实验。</p></div>","","","","","","","","","","","","","","","","","","",""
"","","","preload","51","452104","0.0-1.0-7.0-0.0","13:18:45","2","true","false","[]","[]","[]","","","","","","","","","","","","","","","","","","","","",""
"3012"," ","","html-keyboard-response","52","455117","0.0-1.0-7.0-1.0","13:18:45","2","","","","","","","<div style='font-size: 32px; text-align: center;'
                    <p>请学习图片和数字之间的对应关系</p>
                    <p>我们将<span style='color: blue'><b> 告诉 </b></span>您选择的对错。请根据反馈学习。</p>
                    <p>请按""空格""继续实验。</p></div>","","","","","","","","","","","","","","","","","","",""
"6892"," ","inst","html-keyboard-response","53","462012","0.0-1.0-7.0-2.0","13:18:45","2","","","","","","","<img class='instruct_stim' src=""instruction/food10.PNG""></div>","","","","","","","","","","","","","","","","","","",""
"null","null","fixation","html-keyboard-response","54","462513","0.0-1.0-7.0-3.0-0.0","13:18:45","2","","","","","","","fixation","","","","","","","","","","","","","","","","","","",""
"1899","3","pic_response","html-keyboard-response","55","464413","0.0-1.0-7.0-3.0-1.0","13:18:45","2","","","","","","","<div>
            <img class='stim' src=""pictures/food/7.jpg""></div><div class=""button_prompt"">
                        <b>请用数字键1-3回答</b>
                        </div>","","","","","","","","","","","","","","","","","","",""
"1899","null","sub_response","html-keyboard-response","56","465415","0.0-1.0-7.0-3.0-2.0","13:18:45","2","","","","","","","<div style='text-align: center;'>
                            <span style=""color: green; font-size: 40px""><b>正确！+1 pts</b></span></div>
                            ","","learn","7","7","7","learn","2","2","[0, 1, 2]","0","0","setsize","10S3A","food","1","7","2","1",""
"null","null","fixation","html-keyboard-response","57","465921","0.0-1.0-7.0-3.0-0.1","13:18:45","2","","","","","","","fixation","","","","","","","","","","","","","","","","","","",""
"1680","3","pic_response","html-keyboard-response","58","467604","0.0-1.0-7.0-3.0-1.1","13:18:45","2","","","","","","","<div>
            <img class='stim' src=""pictures/food/3.jpg""></div><div class=""button_prompt"">
                        <b>请用数字键1-3回答</b>
                        </div>","","","","","","","","","","","","","","","","","","",""
"1680","null","sub_response","html-keyboard-response","59","468606","0.0-1.0-7.0-3.0-2.1","13:18:45","2","","","","","","","<div style='text-align: center;'>
                            <span style=""color: red; font-size: 40px""><b>错误！+0 pts</b></span></div>
                            ","","learn","3","3","3","learn","1","1","[0, 1, 2]","1","0","setsize","10S3A","food","1","0","2","0",""
"null","null","fixation","html-keyboard-response","60","469107","0.0-1.0-7.0-3.0-0.2","13:18:45","2","","","","","","","fixation","","","","","","","","","","","","","","","","","","",""
"1043","2","pic_response","html-keyboard-response","61","470151","0.0-1.0-7.0-3.0-1.2","13:18:45","2","","","","","","","<div>
            <img class='stim' src=""pictures/food/5.jpg""></div><div class=""button_prompt"">
                        <b>请用数字键1-3回答</b>
                        </div>","","","","","","","","","","","","","","","","","","",""
"1043","null","sub_response","html-keyboard-response","62","471153","0.0-1.0-7.0-3.0-2.2","13:18:45","2","","","","","","","<div style='text-align: center;'>
                            <span style=""color: green; font-size: 40px""><b>正确！+1 pts</b></span></div>
                            ","","learn","5","5","5","learn","1","1","[0, 1, 2]","2","0","setsize","10S3A","food","1","1","1","1",""
"null","null","fixation","html-keyboard-response","63","471654","0.0-1.0-7.0-3.0-0.3","13:18:45","2","","","","","","","fixation","","","","","","","","","","","","","","","","","","",""
"2030","3","pic_response","html-keyboard-response","64","473684","0.0-1.0-7.0-3.0-1.3","13:18:45","2","","","","","","","<div>
            <img class='stim' src=""pictures/food/0.jpg""></div><div class=""button_prompt"">
                        <b>请用数字键1-3回答</b>
                        </div>","","","","","","","","","","","","","","","","","","",""
"2030","null","sub_response","html-keyboard-response","65","474685","0.0-1.0-7.0-3.0-2.3","13:18:45","2","","","","","","","<div style='text-align: center;'>
                            <span style=""color: red; font-size: 40px""><b>错误！+0 pts</b></span></div>
                            ","","learn","0","0","0","learn","0","0","[0, 1, 2]","3","0","setsize","10S3A","food","1","0","2","0",""
"null","null","fixation","html-keyboard-response","66","475186","0.0-1.0-7.0-3.0-0.4","13:18:45","2","","","","","","","fixation","","","","","","","","","","","","","","","","","","",""
"2138","2","pic_response","html-keyboard-response","67","477324","0.0-1.0-7.0-3.0-1.4","13:18:45","2","","","","","","","<div>
            <img class='stim' src=""pictures/food/1.jpg""></div><div class=""button_prompt"">
                        <b>请用数字键1-3回答</b>
                        </div>","","","","","","","","","","","","","","","","","","",""
"2138","null","sub_response","html-keyboard-response","68","478326","0.0-1.0-7.0-3.0-2.4","13:18:45","2","","","","","","","<div style='text-align: center;'>
                            <span style=""color: red; font-size: 40px""><b>错误！+0 pts</b></span></div>
                            ","","learn","1","1","1","learn","0","0","[0, 1, 2]","4","0","setsize","10S3A","food","1","0","1","0",""
"null","null","fixation","html-keyboard-response","69","478827","0.0-1.0-7.0-3.0-0.5","13:18:45","2","","","","","","","fixation","","","","","","","","","","","","","","","","","","",""
"2640","2","pic_response","html-keyboard-response","70","481469","0.0-1.0-7.0-3.0-1.5","13:18:45","2","","","","","","","<div>
            <img class='stim' src=""pictures/food/4.jpg""></div><div class=""button_prompt"">
                        <b>请用数字键1-3回答</b>
                        </div>","","","","","","","","","","","","","","","","","","",""
"2640","null","sub_response","html-keyboard-response","71","482471","0.0-1.0-7.0-3.0-2.5","13:18:45","2","","","","","","","<div style='text-align: center;'>
                            <span style=""color: green; font-size: 40px""><b>正确！+1 pts</b></span></div>
                            ","","learn","4","4","4","learn","1","1","[0, 1, 2]","5","0","setsize","10S3A","food","1","1","1","1",""
"null","null","fixation","html-keyboard-response","72","482973","0.0-1.0-7.0-3.0-0.6","13:18:45","2","","","","","","","fixation","","","","","","","","","","","","","","","","","","",""
"null","null","pic_response","html-keyboard-response","73","485976","0.0-1.0-7.0-3.0-1.6","13:18:45","2","","","","","","","<div>
            <img class='stim' src=""pictures/food/2.jpg""></div><div class=""button_prompt"">
                        <b>请用数字键1-3回答</b>
                        </div>","","","","","","","","","","","","","","","","","","",""
"null","null","sub_response","html-keyboard-response","74","486976","0.0-1.0-7.0-3.0-2.6","13:18:45","2","","","","","","","<div style='text-align: center;'>
                            <span style=""color: red; font-size: 40px""><b>错误！+0 pts</b></span></div>
                            ","","learn","2","2","2","learn","0","0","[0, 1, 2]","6","0","setsize","10S3A","food","1","0","999","0",""
"null","null","fixation","html-keyboard-response","75","487478","0.0-1.0-7.0-3.0-0.7","13:18:45","2","","","","","","","fixation","","","","","","","","","","","","","","","","","","",""
"1238","2","pic_response","html-keyboard-response","76","488717","0.0-1.0-7.0-3.0-1.7","13:18:45","2","","","","","","","<div>
            <img class='stim' src=""pictures/food/6.jpg""></div><div class=""button_prompt"">
                        <b>请用数字键1-3回答</b>
                        </div>","","","","","","","","","","","","","","","","","","",""
"1238","null","sub_response","html-keyboard-response","77","489719","0.0-1.0-7.0-3.0-2.7","13:18:45","2","","","","","","","<div style='text-align: center;'>
                            <span style=""color: red; font-size: 40px""><b>错误！+0 pts</b></span></div>
                            ","","learn","6","6","6","learn","2","2","[0, 1, 2]","7","0","setsize","10S3A","food","1","0","1","0",""
"null","null","fixation","html-keyboard-response","78","490220","0.0-1.0-7.0-3.0-0.8","13:18:45","2","","","","","","","fixation","","","","","","","","","","","","","","","","","","",""
"1824","3","pic_response","html-keyboard-response","79","492045","0.0-1.0-7.0-3.0-1.8","13:18:45","2","","","","","","","<div>
            <img class='stim' src=""pictures/food/8.jpg""></div><div class=""button_prompt"">
                        <b>请用数字键1-3回答</b>
                        </div>","","","","","","","","","","","","","","","","","","",""
"1824","null","sub_response","html-keyboard-response","80","493048","0.0-1.0-7.0-3.0-2.8","13:18:45","2","","","","","","","<div style='text-align: center;'>
                            <span style=""color: green; font-size: 40px""><b>正确！+1 pts</b></span></div>
                            ","","learn","8","8","8","learn","2","2","[0, 1, 2]","8","0","setsize","10S3A","food","1","1","2","1",""
"null","null","fixation","html-keyboard-response","81","493551","0.0-1.0-7.0-3.0-0.9","13:18:45","2","","","","","","","fixation","","","","","","","","","","","","","","","","","","",""
"2423","3","pic_response","html-keyboard-response","82","495975","0.0-1.0-7.0-3.0-1.9","13:18:45","2","","","","","","","<div>
            <img class='stim' src=""pictures/food/9.jpg""></div><div class=""button_prompt"">
                        <b>请用数字键1-3回答</b>
                        </div>","","","","","","","","","","","","","","","","","","",""
"2423","null","sub_response","html-keyboard-response","83","496977","0.0-1.0-7.0-3.0-2.9","13:18:45","2","","","","","","","<div style='text-align: center;'>
                            <span style=""color: green; font-size: 40px""><b>正确！+1 pts</b></span></div>
                            ","","learn","9","9","9","learn","2","2","[0, 1, 2]","9","0","setsize","10S3A","food","1","2","2","1",""
"null","null","fixation","html-keyboard-response","84","497479","0.0-1.0-7.0-3.0-0.10","13:18:45","2","","","","","","","fixation","","","","","","","","","","","","","","","","","","",""
"1333","2","pic_response","html-keyboard-response","85","498813","0.0-1.0-7.0-3.0-1.10","13:18:45","2","","","","","","","<div>
            <img class='stim' src=""pictures/food/4.jpg""></div><div class=""button_prompt"">
                        <b>请用数字键1-3回答</b>
                        </div>","","","","","","","","","","","","","","","","","","",""
"1333","null","sub_response","html-keyboard-response","86","499815","0.0-1.0-7.0-3.0-2.10","13:18:45","2","","","","","","","<div style='text-align: center;'>
                            <span style=""color: green; font-size: 40px""><b>正确！+1 pts</b></span></div>
                            ","","learn","4","4","4","learn","1","1","[0, 1, 2]","10","1","setsize","10S3A","food","1","3","1","1",""
"null","null","fixation","html-keyboard-response","87","500316","0.0-1.0-7.0-3.0-0.11","13:18:45","2","","","","","","","fixation","","","","","","","","","","","","","","","","","","",""
"1008","3","pic_response","html-keyboard-response","88","501325","0.0-1.0-7.0-3.0-1.11","13:18:45","2","","","","","","","<div>
            <img class='stim' src=""pictures/food/8.jpg""></div><div class=""button_prompt"">
                        <b>请用数字键1-3回答</b>
                        </div>","","","","","","","","","","","","","","","","","","",""
"1008","null","sub_response","html-keyboard-response","89","502326","0.0-1.0-7.0-3.0-2.11","13:18:45","2","","","","","","","<div style='text-align: center;'>
                            <span style=""color: green; font-size: 40px""><b>正确！+1 pts</b></span></div>
                            ","","learn","8","8","8","learn","2","2","[0, 1, 2]","11","1","setsize","10S3A","food","1","4","2","1",""
"null","null","fixation","html-keyboard-response","90","502828","0.0-1.0-7.0-3.0-0.12","13:18:45","2","","","","","","","fixation","","","","","","","","","","","","","","","","","","",""
"2039","2","pic_response","html-keyboard-response","91","504870","0.0-1.0-7.0-3.0-1.12","13:18:45","2","","","","","","","<div>
            <img class='stim' src=""pictures/food/1.jpg""></div><div class=""button_prompt"">
                        <b>请用数字键1-3回答</b>
                        </div>","","","","","","","","","","","","","","","","","","",""
"2039","null","sub_response","html-keyboard-response","92","505871","0.0-1.0-7.0-3.0-2.12","13:18:45","2","","","","","","","<div style='text-align: center;'>
                            <span style=""color: red; font-size: 40px""><b>错误！+0 pts</b></span></div>
                            ","","learn","1","1","1","learn","0","0","[0, 1, 2]","12","1","setsize","10S3A","food","1","0","1","0",""
"null","null","fixation","html-keyboard-response","93","506373","0.0-1.0-7.0-3.0-0.13","13:18:45","2","","","","","","","fixation","","","","","","","","","","","","","","","","","","",""
"1783","3","pic_response","html-keyboard-response","94","508157","0.0-1.0-7.0-3.0-1.13","13:18:45","2","","","","","","","<div>
            <img class='stim' src=""pictures/food/3.jpg""></div><div class=""button_prompt"">
                        <b>请用数字键1-3回答</b>
                        </div>","","","","","","","","","","","","","","","","","","",""
"1783","null","sub_response","html-keyboard-response","95","509158","0.0-1.0-7.0-3.0-2.13","13:18:45","2","","","","","","","<div style='text-align: center;'>
                            <span style=""color: red; font-size: 40px""><b>错误！+0 pts</b></span></div>
                            ","","learn","3","3","3","learn","1","1","[0, 1, 2]","13","1","setsize","10S3A","food","1","0","2","0",""
"null","null","fixation","html-keyboard-response","96","509659","0.0-1.0-7.0-3.0-0.14","13:18:45","2","","","","","","","fixation","","","","","","","","","","","","","","","","","","",""
"1552","3","pic_response","html-keyboard-response","97","511212","0.0-1.0-7.0-3.0-1.14","13:18:45","2","","","","","","","<div>
            <img class='stim' src=""pictures/food/2.jpg""></div><div class=""button_prompt"">
                        <b>请用数字键1-3回答</b>
                        </div>","","","","","","","","","","","","","","","","","","",""
"1552","null","sub_response","html-keyboard-response","98","512215","0.0-1.0-7.0-3.0-2.14","13:18:45","2","","","","","","","<div style='text-align: center;'>
                            <span style=""color: red; font-size: 40px""><b>错误！+0 pts</b></span></div>
                            ","","learn","2","2","2","learn","0","0","[0, 1, 2]","14","1","setsize","10S3A","food","1","0","2","0",""
"null","null","fixation","html-keyboard-response","99","512717","0.0-1.0-7.0-3.0-0.15","13:18:45","2","","","","","","","fixation","","","","","","","","","","","","","","","","","","",""
"1824","1","pic_response","html-keyboard-response","100","514542","0.0-1.0-7.0-3.0-1.15","13:18:45","2","","","","","","","<div>
            <img class='stim' src=""pictures/food/6.jpg""></div><div class=""button_prompt"">
                        <b>请用数字键1-3回答</b>
                        </div>","","","","","","","","","","","","","","","","","","",""
"1824","null","sub_response","html-keyboard-response","101","515543","0.0-1.0-7.0-3.0-2.15","13:18:45","2","","","","","","","<div style='text-align: center;'>
                            <span style=""color: red; font-size: 40px""><b>错误！+0 pts</b></span></div>
                            ","","learn","6","6","6","learn","2","2","[0, 1, 2]","15","1","setsize","10S3A","food","1","0","0","0",""
"null","null","fixation","html-keyboard-response","102","516045","0.0-1.0-7.0-3.0-0.16","13:18:45","2","","","","","","","fixation","","","","","","","","","","","","","","","","","","",""
"920","3","pic_response","html-keyboard-response","103","516965","0.0-1.0-7.0-3.0-1.16","13:18:45","2","","","","","","","<div>
            <img class='stim' src=""pictures/food/0.jpg""></div><div class=""button_prompt"">
                        <b>请用数字键1-3回答</b>
                        </div>","","","","","","","","","","","","","","","","","","",""
"920","null","sub_response","html-keyboard-response","104","517967","0.0-1.0-7.0-3.0-2.16","13:18:45","2","","","","","","","<div style='text-align: center;'>
                            <span style=""color: red; font-size: 40px""><b>错误！+0 pts</b></span></div>
                            ","","learn","0","0","0","learn","0","0","[0, 1, 2]","16","1","setsize","10S3A","food","1","0","2","0",""
"null","null","fixation","html-keyboard-response","105","518468","0.0-1.0-7.0-3.0-0.17","13:18:45","2","","","","","","","fixation","","","","","","","","","","","","","","","","","","",""
"1847","3","pic_response","html-keyboard-response","106","520317","0.0-1.0-7.0-3.0-1.17","13:18:45","2","","","","","","","<div>
            <img class='stim' src=""pictures/food/7.jpg""></div><div class=""button_prompt"">
                        <b>请用数字键1-3回答</b>
                        </div>","","","","","","","","","","","","","","","","","","",""
"1847","null","sub_response","html-keyboard-response","107","521319","0.0-1.0-7.0-3.0-2.17","13:18:45","2","","","","","","","<div style='text-align: center;'>
                            <span style=""color: green; font-size: 40px""><b>正确！+1 pts</b></span></div>
                            ","","learn","7","7","7","learn","2","2","[0, 1, 2]","17","1","setsize","10S3A","food","1","1","2","1",""
"null","null","fixation","html-keyboard-response","108","521821","0.0-1.0-7.0-3.0-0.18","13:18:45","2","","","","","","","fixation","","","","","","","","","","","","","","","","","","",""
"1910","1","pic_response","html-keyboard-response","109","523733","0.0-1.0-7.0-3.0-1.18","13:18:45","2","","","","","","","<div>
            <img class='stim' src=""pictures/food/5.jpg""></div><div class=""button_prompt"">
                        <b>请用数字键1-3回答</b>
                        </div>","","","","","","","","","","","","","","","","","","",""
"1910","null","sub_response","html-keyboard-response","110","524734","0.0-1.0-7.0-3.0-2.18","13:18:45","2","","","","","","","<div style='text-align: center;'>
                            <span style=""color: red; font-size: 40px""><b>错误！+0 pts</b></span></div>
                            ","","learn","5","5","5","learn","1","1","[0, 1, 2]","18","1","setsize","10S3A","food","1","0","0","0",""
"null","null","fixation","html-keyboard-response","111","525236","0.0-1.0-7.0-3.0-0.19","13:18:45","2","","","","","","","fixation","","","","","","","","","","","","","","","","","","",""
"1287","3","pic_response","html-keyboard-response","112","526525","0.0-1.0-7.0-3.0-1.19","13:18:45","2","","","","","","","<div>
            <img class='stim' src=""pictures/food/9.jpg""></div><div class=""button_prompt"">
                        <b>请用数字键1-3回答</b>
                        </div>","","","","","","","","","","","","","","","","","","",""
"1287","null","sub_response","html-keyboard-response","113","527527","0.0-1.0-7.0-3.0-2.19","13:18:45","2","","","","","","","<div style='text-align: center;'>
                            <span style=""color: green; font-size: 40px""><b>正确！+1 pts</b></span></div>
                            ","","learn","9","9","9","learn","2","2","[0, 1, 2]","19","1","setsize","10S3A","food","1","1","2","1",""
"null","null","fixation","html-keyboard-response","114","528028","0.0-1.0-7.0-3.0-0.20","13:18:45","2","","","","","","","fixation","","","","","","","","","","","","","","","","","","",""
"1200","3","pic_response","html-keyboard-response","115","529229","0.0-1.0-7.0-3.0-1.20","13:18:45","2","","","","","","","<div>
            <img class='stim' src=""pictures/food/6.jpg""></div><div class=""button_prompt"">
                        <b>请用数字键1-3回答</b>
                        </div>","","","","","","","","","","","","","","","","","","",""
"1200","null","sub_response","html-keyboard-response","116","530231","0.0-1.0-7.0-3.0-2.20","13:18:45","2","","","","","","","<div style='text-align: center;'>
                            <span style=""color: green; font-size: 40px""><b>正确！+1 pts</b></span></div>
                            ","","learn","6","6","6","learn","2","2","[0, 1, 2]","20","2","setsize","10S3A","food","1","2","2","1",""
"null","null","fixation","html-keyboard-response","117","530732","0.0-1.0-7.0-3.0-0.21","13:18:45","2","","","","","","","fixation","","","","","","","","","","","","","","","","","","",""
"1528","2","pic_response","html-keyboard-response","118","532261","0.0-1.0-7.0-3.0-1.21","13:18:45","2","","","","","","","<div>
            <img class='stim' src=""pictures/food/5.jpg""></div><div class=""button_prompt"">
                        <b>请用数字键1-3回答</b>
                        </div>","","","","","","","","","","","","","","","","","","",""
"1528","null","sub_response","html-keyboard-response","119","533262","0.0-1.0-7.0-3.0-2.21","13:18:45","2","","","","","","","<div style='text-align: center;'>
                            <span style=""color: green; font-size: 40px""><b>正确！+1 pts</b></span></div>
                            ","","learn","5","5","5","learn","1","1","[0, 1, 2]","21","2","setsize","10S3A","food","1","3","1","1",""
"null","null","fixation","html-keyboard-response","120","533764","0.0-1.0-7.0-3.0-0.22","13:18:45","2","","","","","","","fixation","","","","","","","","","","","","","","","","","","",""
"816","2","pic_response","html-keyboard-response","121","534581","0.0-1.0-7.0-3.0-1.22","13:18:45","2","","","","","","","<div>
            <img class='stim' src=""pictures/food/4.jpg""></div><div class=""button_prompt"">
                        <b>请用数字键1-3回答</b>
                        </div>","","","","","","","","","","","","","","","","","","",""
"816","null","sub_response","html-keyboard-response","122","535583","0.0-1.0-7.0-3.0-2.22","13:18:45","2","","","","","","","<div style='text-align: center;'>
                            <span style=""color: green; font-size: 40px""><b>正确！+1 pts</b></span></div>
                            ","","learn","4","4","4","learn","1","1","[0, 1, 2]","22","2","setsize","10S3A","food","1","4","1","1",""
"null","null","fixation","html-keyboard-response","123","536083","0.0-1.0-7.0-3.0-0.23","13:18:45","2","","","","","","","fixation","","","","","","","","","","","","","","","","","","",""
"744","3","pic_response","html-keyboard-response","124","536829","0.0-1.0-7.0-3.0-1.23","13:18:45","2","","","","","","","<div>
            <img class='stim' src=""pictures/food/8.jpg""></div><div class=""button_prompt"">
                        <b>请用数字键1-3回答</b>
                        </div>","","","","","","","","","","","","","","","","","","",""
"744","null","sub_response","html-keyboard-response","125","537831","0.0-1.0-7.0-3.0-2.23","13:18:45","2","","","","","","","<div style='text-align: center;'>
                            <span style=""color: green; font-size: 40px""><b>正确！+1 pts</b></span></div>
                            ","","learn","8","8","8","learn","2","2","[0, 1, 2]","23","2","setsize","10S3A","food","1","5","2","1",""
"null","null","fixation","html-keyboard-response","126","538334","0.0-1.0-7.0-3.0-0.24","13:18:45","2","","","","","","","fixation","","","","","","","","","","","","","","","","","","",""
"1158","2","pic_response","html-keyboard-response","127","539493","0.0-1.0-7.0-3.0-1.24","13:18:45","2","","","","","","","<div>
            <img class='stim' src=""pictures/food/1.jpg""></div><div class=""button_prompt"">
                        <b>请用数字键1-3回答</b>
                        </div>","","","","","","","","","","","","","","","","","","",""
"1158","null","sub_response","html-keyboard-response","128","540495","0.0-1.0-7.0-3.0-2.24","13:18:45","2","","","","","","","<div style='text-align: center;'>
                            <span style=""color: red; font-size: 40px""><b>错误！+0 pts</b></span></div>
                            ","","learn","1","1","1","learn","0","0","[0, 1, 2]","24","2","setsize","10S3A","food","1","0","1","0",""
"null","null","fixation","html-keyboard-response","129","540996","0.0-1.0-7.0-3.0-0.25","13:18:45","2","","","","","","","fixation","","","","","","","","","","","","","","","","","","",""
"1608","3","pic_response","html-keyboard-response","130","542605","0.0-1.0-7.0-3.0-1.25","13:18:45","2","","","","","","","<div>
            <img class='stim' src=""pictures/food/9.jpg""></div><div class=""button_prompt"">
                        <b>请用数字键1-3回答</b>
                        </div>","","","","","","","","","","","","","","","","","","",""
"1608","null","sub_response","html-keyboard-response","131","543606","0.0-1.0-7.0-3.0-2.25","13:18:45","2","","","","","","","<div style='text-align: center;'>
                            <span style=""color: green; font-size: 40px""><b>正确！+1 pts</b></span></div>
                            ","","learn","9","9","9","learn","2","2","[0, 1, 2]","25","2","setsize","10S3A","food","1","1","2","1",""
"null","null","fixation","html-keyboard-response","132","544107","0.0-1.0-7.0-3.0-0.26","13:18:45","2","","","","","","","fixation","","","","","","","","","","","","","","","","","","",""
"1691","1","pic_response","html-keyboard-response","133","545800","0.0-1.0-7.0-3.0-1.26","13:18:45","2","","","","","","","<div>
            <img class='stim' src=""pictures/food/3.jpg""></div><div class=""button_prompt"">
                        <b>请用数字键1-3回答</b>
                        </div>","","","","","","","","","","","","","","","","","","",""
"1691","null","sub_response","html-keyboard-response","134","546802","0.0-1.0-7.0-3.0-2.26","13:18:45","2","","","","","","","<div style='text-align: center;'>
                            <span style=""color: red; font-size: 40px""><b>错误！+0 pts</b></span></div>
                            ","","learn","3","3","3","learn","1","1","[0, 1, 2]","26","2","setsize","10S3A","food","1","0","0","0",""
"null","null","fixation","html-keyboard-response","135","547303","0.0-1.0-7.0-3.0-0.27","13:18:45","2","","","","","","","fixation","","","","","","","","","","","","","","","","","","",""
"639","3","pic_response","html-keyboard-response","136","547942","0.0-1.0-7.0-3.0-1.27","13:18:45","2","","","","","","","<div>
            <img class='stim' src=""pictures/food/0.jpg""></div><div class=""button_prompt"">
                        <b>请用数字键1-3回答</b>
                        </div>","","","","","","","","","","","","","","","","","","",""
"639","null","sub_response","html-keyboard-response","137","548943","0.0-1.0-7.0-3.0-2.27","13:18:45","2","","","","","","","<div style='text-align: center;'>
                            <span style=""color: red; font-size: 40px""><b>错误！+0 pts</b></span></div>
                            ","","learn","0","0","0","learn","0","0","[0, 1, 2]","27","2","setsize","10S3A","food","1","0","2","0",""
"null","null","fixation","html-keyboard-response","138","549444","0.0-1.0-7.0-3.0-0.28","13:18:45","2","","","","","","","fixation","","","","","","","","","","","","","","","","","","",""
"2327","3","pic_response","html-keyboard-response","139","551773","0.0-1.0-7.0-3.0-1.28","13:18:45","2","","","","","","","<div>
            <img class='stim' src=""pictures/food/2.jpg""></div><div class=""button_prompt"">
                        <b>请用数字键1-3回答</b>
                        </div>","","","","","","","","","","","","","","","","","","",""
"2327","null","sub_response","html-keyboard-response","140","552775","0.0-1.0-7.0-3.0-2.28","13:18:45","2","","","","","","","<div style='text-align: center;'>
                            <span style=""color: red; font-size: 40px""><b>错误！+0 pts</b></span></div>
                            ","","learn","2","2","2","learn","0","0","[0, 1, 2]","28","2","setsize","10S3A","food","1","0","2","0",""
"null","null","fixation","html-keyboard-response","141","553277","0.0-1.0-7.0-3.0-0.29","13:18:45","2","","","","","","","fixation","","","","","","","","","","","","","","","","","","",""
"742","3","pic_response","html-keyboard-response","142","554020","0.0-1.0-7.0-3.0-1.29","13:18:45","2","","","","","","","<div>
            <img class='stim' src=""pictures/food/7.jpg""></div><div class=""button_prompt"">
                        <b>请用数字键1-3回答</b>
                        </div>","","","","","","","","","","","","","","","","","","",""
"742","null","sub_response","html-keyboard-response","143","555022","0.0-1.0-7.0-3.0-2.29","13:18:45","2","","","","","","","<div style='text-align: center;'>
                            <span style=""color: green; font-size: 40px""><b>正确！+1 pts</b></span></div>
                            ","","learn","7","7","7","learn","2","2","[0, 1, 2]","29","2","setsize","10S3A","food","1","1","2","1",""
"null","null","fixation","html-keyboard-response","144","555524","0.0-1.0-7.0-3.0-0.30","13:18:45","2","","","","","","","fixation","","","","","","","","","","","","","","","","","","",""
"1361","1","pic_response","html-keyboard-response","145","556886","0.0-1.0-7.0-3.0-1.30","13:18:45","2","","","","","","","<div>
            <img class='stim' src=""pictures/food/0.jpg""></div><div class=""button_prompt"">
                        <b>请用数字键1-3回答</b>
                        </div>","","","","","","","","","","","","","","","","","","",""
"1361","null","sub_response","html-keyboard-response","146","557887","0.0-1.0-7.0-3.0-2.30","13:18:45","2","","","","","","","<div style='text-align: center;'>
                            <span style=""color: green; font-size: 40px""><b>正确！+1 pts</b></span></div>
                            ","","learn","0","0","0","learn","0","0","[0, 1, 2]","30","3","setsize","10S3A","food","1","2","0","1",""
"null","null","fixation","html-keyboard-response","147","558388","0.0-1.0-7.0-3.0-0.31","13:18:45","2","","","","","","","fixation","","","","","","","","","","","","","","","","","","",""
"1903","1","pic_response","html-keyboard-response","148","560292","0.0-1.0-7.0-3.0-1.31","13:18:45","2","","","","","","","<div>
            <img class='stim' src=""pictures/food/2.jpg""></div><div class=""button_prompt"">
                        <b>请用数字键1-3回答</b>
                        </div>","","","","","","","","","","","","","","","","","","",""
"1903","null","sub_response","html-keyboard-response","149","561293","0.0-1.0-7.0-3.0-2.31","13:18:45","2","","","","","","","<div style='text-align: center;'>
                            <span style=""color: green; font-size: 40px""><b>正确！+1 pts</b></span></div>
                            ","","learn","2","2","2","learn","0","0","[0, 1, 2]","31","3","setsize","10S3A","food","1","3","0","1",""
"null","null","fixation","html-keyboard-response","150","561794","0.0-1.0-7.0-3.0-0.32","13:18:45","2","","","","","","","fixation","","","","","","","","","","","","","","","","","","",""
"713","2","pic_response","html-keyboard-response","151","562508","0.0-1.0-7.0-3.0-1.32","13:18:45","2","","","","","","","<div>
            <img class='stim' src=""pictures/food/4.jpg""></div><div class=""button_prompt"">
                        <b>请用数字键1-3回答</b>
                        </div>","","","","","","","","","","","","","","","","","","",""
"713","null","sub_response","html-keyboard-response","152","563509","0.0-1.0-7.0-3.0-2.32","13:18:45","2","","","","","","","<div style='text-align: center;'>
                            <span style=""color: green; font-size: 40px""><b>正确！+1 pts</b></span></div>
                            ","","learn","4","4","4","learn","1","1","[0, 1, 2]","32","3","setsize","10S3A","food","1","4","1","1",""
"null","null","fixation","html-keyboard-response","153","564011","0.0-1.0-7.0-3.0-0.33","13:18:45","2","","","","","","","fixation","","","","","","","","","","","","","","","","","","",""
"1106","2","pic_response","html-keyboard-response","154","565118","0.0-1.0-7.0-3.0-1.33","13:18:45","2","","","","","","","<div>
            <img class='stim' src=""pictures/food/5.jpg""></div><div class=""button_prompt"">
                        <b>请用数字键1-3回答</b>
                        </div>","","","","","","","","","","","","","","","","","","",""
"1106","null","sub_response","html-keyboard-response","155","566120","0.0-1.0-7.0-3.0-2.33","13:18:45","2","","","","","","","<div style='text-align: center;'>
                            <span style=""color: green; font-size: 40px""><b>正确！+1 pts</b></span></div>
                            ","","learn","5","5","5","learn","1","1","[0, 1, 2]","33","3","setsize","10S3A","food","1","5","1","1",""
"null","null","fixation","html-keyboard-response","156","566622","0.0-1.0-7.0-3.0-0.34","13:18:45","2","","","","","","","fixation","","","","","","","","","","","","","","","","","","",""
"1541","2","pic_response","html-keyboard-response","157","568165","0.0-1.0-7.0-3.0-1.34","13:18:45","2","","","","","","","<div>
            <img class='stim' src=""pictures/food/3.jpg""></div><div class=""button_prompt"">
                        <b>请用数字键1-3回答</b>
                        </div>","","","","","","","","","","","","","","","","","","",""
"1541","null","sub_response","html-keyboard-response","158","569166","0.0-1.0-7.0-3.0-2.34","13:18:45","2","","","","","","","<div style='text-align: center;'>
                            <span style=""color: green; font-size: 40px""><b>正确！+1 pts</b></span></div>
                            ","","learn","3","3","3","learn","1","1","[0, 1, 2]","34","3","setsize","10S3A","food","1","6","1","1",""
"null","null","fixation","html-keyboard-response","159","569667","0.0-1.0-7.0-3.0-0.35","13:18:45","2","","","","","","","fixation","","","","","","","","","","","","","","","","","","",""
"1064","3","pic_response","html-keyboard-response","160","570733","0.0-1.0-7.0-3.0-1.35","13:18:45","2","","","","","","","<div>
            <img class='stim' src=""pictures/food/8.jpg""></div><div class=""button_prompt"">
                        <b>请用数字键1-3回答</b>
                        </div>","","","","","","","","","","","","","","","","","","",""
"1064","null","sub_response","html-keyboard-response","161","571735","0.0-1.0-7.0-3.0-2.35","13:18:45","2","","","","","","","<div style='text-align: center;'>
                            <span style=""color: green; font-size: 40px""><b>正确！+1 pts</b></span></div>
                            ","","learn","8","8","8","learn","2","2","[0, 1, 2]","35","3","setsize","10S3A","food","1","7","2","1",""
"null","null","fixation","html-keyboard-response","162","572236","0.0-1.0-7.0-3.0-0.36","13:18:45","2","","","","","","","fixation","","","","","","","","","","","","","","","","","","",""
"1776","3","pic_response","html-keyboard-response","163","574013","0.0-1.0-7.0-3.0-1.36","13:18:45","2","","","","","","","<div>
            <img class='stim' src=""pictures/food/7.jpg""></div><div class=""button_prompt"">
                        <b>请用数字键1-3回答</b>
                        </div>","","","","","","","","","","","","","","","","","","",""
"1776","null","sub_response","html-keyboard-response","164","575015","0.0-1.0-7.0-3.0-2.36","13:18:45","2","","","","","","","<div style='text-align: center;'>
                            <span style=""color: green; font-size: 40px""><b>正确！+1 pts</b></span></div>
                            ","","learn","7","7","7","learn","2","2","[0, 1, 2]","36","3","setsize","10S3A","food","1","8","2","1",""
"null","null","fixation","html-keyboard-response","165","575516","0.0-1.0-7.0-3.0-0.37","13:18:45","2","","","","","","","fixation","","","","","","","","","","","","","","","","","","",""
"1537","2","pic_response","html-keyboard-response","166","577054","0.0-1.0-7.0-3.0-1.37","13:18:45","2","","","","","","","<div>
            <img class='stim' src=""pictures/food/1.jpg""></div><div class=""button_prompt"">
                        <b>请用数字键1-3回答</b>
                        </div>","","","","","","","","","","","","","","","","","","",""
"1537","null","sub_response","html-keyboard-response","167","578056","0.0-1.0-7.0-3.0-2.37","13:18:45","2","","","","","","","<div style='text-align: center;'>
                            <span style=""color: red; font-size: 40px""><b>错误！+0 pts</b></span></div>
                            ","","learn","1","1","1","learn","0","0","[0, 1, 2]","37","3","setsize","10S3A","food","1","0","1","0",""
"null","null","fixation","html-keyboard-response","168","578558","0.0-1.0-7.0-3.0-0.38","13:18:45","2","","","","","","","fixation","","","","","","","","","","","","","","","","","","",""
"1125","3","pic_response","html-keyboard-response","169","579684","0.0-1.0-7.0-3.0-1.38","13:18:45","2","","","","","","","<div>
            <img class='stim' src=""pictures/food/9.jpg""></div><div class=""button_prompt"">
                        <b>请用数字键1-3回答</b>
                        </div>","","","","","","","","","","","","","","","","","","",""
"1125","null","sub_response","html-keyboard-response","170","580685","0.0-1.0-7.0-3.0-2.38","13:18:45","2","","","","","","","<div style='text-align: center;'>
                            <span style=""color: green; font-size: 40px""><b>正确！+1 pts</b></span></div>
                            ","","learn","9","9","9","learn","2","2","[0, 1, 2]","38","3","setsize","10S3A","food","1","1","2","1",""
"null","null","fixation","html-keyboard-response","171","581187","0.0-1.0-7.0-3.0-0.39","13:18:45","2","","","","","","","fixation","","","","","","","","","","","","","","","","","","",""
"1105","2","pic_response","html-keyboard-response","172","582293","0.0-1.0-7.0-3.0-1.39","13:18:45","2","","","","","","","<div>
            <img class='stim' src=""pictures/food/6.jpg""></div><div class=""button_prompt"">
                        <b>请用数字键1-3回答</b>
                        </div>","","","","","","","","","","","","","","","","","","",""
"1105","null","sub_response","html-keyboard-response","173","583294","0.0-1.0-7.0-3.0-2.39","13:18:45","2","","","","","","","<div style='text-align: center;'>
                            <span style=""color: red; font-size: 40px""><b>错误！+0 pts</b></span></div>
                            ","","learn","6","6","6","learn","2","2","[0, 1, 2]","39","3","setsize","10S3A","food","1","0","1","0",""
"null","null","fixation","html-keyboard-response","174","583797","0.0-1.0-7.0-3.0-0.40","13:18:45","2","","","","","","","fixation","","","","","","","","","","","","","","","","","","",""
"1071","3","pic_response","html-keyboard-response","175","584868","0.0-1.0-7.0-3.0-1.40","13:18:45","2","","","","","","","<div>
            <img class='stim' src=""pictures/food/8.jpg""></div><div class=""button_prompt"">
                        <b>请用数字键1-3回答</b>
                        </div>","","","","","","","","","","","","","","","","","","",""
"1071","null","sub_response","html-keyboard-response","176","585870","0.0-1.0-7.0-3.0-2.40","13:18:45","2","","","","","","","<div style='text-align: center;'>
                            <span style=""color: green; font-size: 40px""><b>正确！+1 pts</b></span></div>
                            ","","learn","8","8","8","learn","2","2","[0, 1, 2]","40","4","setsize","10S3A","food","1","1","2","1",""
"null","null","fixation","html-keyboard-response","177","586371","0.0-1.0-7.0-3.0-0.41","13:18:45","2","","","","","","","fixation","","","","","","","","","","","","","","","","","","",""
"809","3","pic_response","html-keyboard-response","178","587182","0.0-1.0-7.0-3.0-1.41","13:18:45","2","","","","","","","<div>
            <img class='stim' src=""pictures/food/9.jpg""></div><div class=""button_prompt"">
                        <b>请用数字键1-3回答</b>
                        </div>","","","","","","","","","","","","","","","","","","",""
"809","null","sub_response","html-keyboard-response","179","588183","0.0-1.0-7.0-3.0-2.41","13:18:45","2","","","","","","","<div style='text-align: center;'>
                            <span style=""color: green; font-size: 40px""><b>正确！+1 pts</b></span></div>
                            ","","learn","9","9","9","learn","2","2","[0, 1, 2]","41","4","setsize","10S3A","food","1","2","2","1",""
"null","null","fixation","html-keyboard-response","180","588685","0.0-1.0-7.0-3.0-0.42","13:18:45","2","","","","","","","fixation","","","","","","","","","","","","","","","","","","",""
"470","1","pic_response","html-keyboard-response","181","589156","0.0-1.0-7.0-3.0-1.42","13:18:45","2","","","","","","","<div>
            <img class='stim' src=""pictures/food/6.jpg""></div><div class=""button_prompt"">
                        <b>请用数字键1-3回答</b>
                        </div>","","","","","","","","","","","","","","","","","","",""
"470","null","sub_response","html-keyboard-response","182","590157","0.0-1.0-7.0-3.0-2.42","13:18:45","2","","","","","","","<div style='text-align: center;'>
                            <span style=""color: red; font-size: 40px""><b>错误！+0 pts</b></span></div>
                            ","","learn","6","6","6","learn","2","2","[0, 1, 2]","42","4","setsize","10S3A","food","1","0","0","0",""
"null","null","fixation","html-keyboard-response","183","590658","0.0-1.0-7.0-3.0-0.43","13:18:45","2","","","","","","","fixation","","","","","","","","","","","","","","","","","","",""
"625","3","pic_response","html-keyboard-response","184","591285","0.0-1.0-7.0-3.0-1.43","13:18:45","2","","","","","","","<div>
            <img class='stim' src=""pictures/food/7.jpg""></div><div class=""button_prompt"">
                        <b>请用数字键1-3回答</b>
                        </div>","","","","","","","","","","","","","","","","","","",""
"625","null","sub_response","html-keyboard-response","185","592286","0.0-1.0-7.0-3.0-2.43","13:18:45","2","","","","","","","<div style='text-align: center;'>
                            <span style=""color: green; font-size: 40px""><b>正确！+1 pts</b></span></div>
                            ","","learn","7","7","7","learn","2","2","[0, 1, 2]","43","4","setsize","10S3A","food","1","1","2","1",""
"null","null","fixation","html-keyboard-response","186","592787","0.0-1.0-7.0-3.0-0.44","13:18:45","2","","","","","","","fixation","","","","","","","","","","","","","","","","","","",""
"2081","1","pic_response","html-keyboard-response","187","594869","0.0-1.0-7.0-3.0-1.44","13:18:45","2","","","","","","","<div>
            <img class='stim' src=""pictures/food/2.jpg""></div><div class=""button_prompt"">
                        <b>请用数字键1-3回答</b>
                        </div>","","","","","","","","","","","","","","","","","","",""
"2081","null","sub_response","html-keyboard-response","188","595872","0.0-1.0-7.0-3.0-2.44","13:18:45","2","","","","","","","<div style='text-align: center;'>
                            <span style=""color: green; font-size: 40px""><b>正确！+1 pts</b></span></div>
                            ","","learn","2","2","2","learn","0","0","[0, 1, 2]","44","4","setsize","10S3A","food","1","2","0","1",""
"null","null","fixation","html-keyboard-response","189","596373","0.0-1.0-7.0-3.0-0.45","13:18:45","2","","","","","","","fixation","","","","","","","","","","","","","","","","","","",""
"687","2","pic_response","html-keyboard-response","190","597061","0.0-1.0-7.0-3.0-1.45","13:18:45","2","","","","","","","<div>
            <img class='stim' src=""pictures/food/4.jpg""></div><div class=""button_prompt"">
                        <b>请用数字键1-3回答</b>
                        </div>","","","","","","","","","","","","","","","","","","",""
"687","null","sub_response","html-keyboard-response","191","598063","0.0-1.0-7.0-3.0-2.45","13:18:45","2","","","","","","","<div style='text-align: center;'>
                            <span style=""color: green; font-size: 40px""><b>正确！+1 pts</b></span></div>
                            ","","learn","4","4","4","learn","1","1","[0, 1, 2]","45","4","setsize","10S3A","food","1","3","1","1",""
"null","null","fixation","html-keyboard-response","192","598564","0.0-1.0-7.0-3.0-0.46","13:18:45","2","","","","","","","fixation","","","","","","","","","","","","","","","","","","",""
"1224","2","pic_response","html-keyboard-response","193","599790","0.0-1.0-7.0-3.0-1.46","13:18:45","2","","","","","","","<div>
            <img class='stim' src=""pictures/food/3.jpg""></div><div class=""button_prompt"">
                        <b>请用数字键1-3回答</b>
                        </div>","","","","","","","","","","","","","","","","","","",""
"1224","null","sub_response","html-keyboard-response","194","600792","0.0-1.0-7.0-3.0-2.46","13:18:45","2","","","","","","","<div style='text-align: center;'>
                            <span style=""color: green; font-size: 40px""><b>正确！+1 pts</b></span></div>
                            ","","learn","3","3","3","learn","1","1","[0, 1, 2]","46","4","setsize","10S3A","food","1","4","1","1",""
"null","null","fixation","html-keyboard-response","195","601293","0.0-1.0-7.0-3.0-0.47","13:18:45","2","","","","","","","fixation","","","","","","","","","","","","","","","","","","",""
"1647","2","pic_response","html-keyboard-response","196","602941","0.0-1.0-7.0-3.0-1.47","13:18:45","2","","","","","","","<div>
            <img class='stim' src=""pictures/food/1.jpg""></div><div class=""button_prompt"">
                        <b>请用数字键1-3回答</b>
                        </div>","","","","","","","","","","","","","","","","","","",""
"1647","null","sub_response","html-keyboard-response","197","603942","0.0-1.0-7.0-3.0-2.47","13:18:45","2","","","","","","","<div style='text-align: center;'>
                            <span style=""color: red; font-size: 40px""><b>错误！+0 pts</b></span></div>
                            ","","learn","1","1","1","learn","0","0","[0, 1, 2]","47","4","setsize","10S3A","food","1","0","1","0",""
"null","null","fixation","html-keyboard-response","198","604444","0.0-1.0-7.0-3.0-0.48","13:18:45","2","","","","","","","fixation","","","","","","","","","","","","","","","","","","",""
"null","null","pic_response","html-keyboard-response","199","607447","0.0-1.0-7.0-3.0-1.48","13:18:45","2","","","","","","","<div>
            <img class='stim' src=""pictures/food/5.jpg""></div><div class=""button_prompt"">
                        <b>请用数字键1-3回答</b>
                        </div>","","","","","","","","","","","","","","","","","","",""
"null","null","sub_response","html-keyboard-response","200","608449","0.0-1.0-7.0-3.0-2.48","13:18:45","2","","","","","","","<div style='text-align: center;'>
                            <span style=""color: red; font-size: 40px""><b>错误！+0 pts</b></span></div>
                            ","","learn","5","5","5","learn","1","1","[0, 1, 2]","48","4","setsize","10S3A","food","1","0","999","0",""
"null","null","fixation","html-keyboard-response","201","608950","0.0-1.0-7.0-3.0-0.49","13:18:45","2","","","","","","","fixation","","","","","","","","","","","","","","","","","","",""
"990","1","pic_response","html-keyboard-response","202","609941","0.0-1.0-7.0-3.0-1.49","13:18:45","2","","","","","","","<div>
            <img class='stim' src=""pictures/food/0.jpg""></div><div class=""button_prompt"">
                        <b>请用数字键1-3回答</b>
                        </div>","","","","","","","","","","","","","","","","","","",""
"990","null","sub_response","html-keyboard-response","203","610943","0.0-1.0-7.0-3.0-2.49","13:18:45","2","","","","","","","<div style='text-align: center;'>
                            <span style=""color: green; font-size: 40px""><b>正确！+1 pts</b></span></div>
                            ","","learn","0","0","0","learn","0","0","[0, 1, 2]","49","4","setsize","10S3A","food","1","1","0","1",""
"null","null","fixation","html-keyboard-response","204","611444","0.0-1.0-7.0-3.0-0.50","13:18:45","2","","","","","","","fixation","","","","","","","","","","","","","","","","","","",""
"1407","1","pic_response","html-keyboard-response","205","612853","0.0-1.0-7.0-3.0-1.50","13:18:45","2","","","","","","","<div>
            <img class='stim' src=""pictures/food/2.jpg""></div><div class=""button_prompt"">
                        <b>请用数字键1-3回答</b>
                        </div>","","","","","","","","","","","","","","","","","","",""
"1407","null","sub_response","html-keyboard-response","206","613854","0.0-1.0-7.0-3.0-2.50","13:18:45","2","","","","","","","<div style='text-align: center;'>
                            <span style=""color: green; font-size: 40px""><b>正确！+1 pts</b></span></div>
                            ","","learn","2","2","2","learn","0","0","[0, 1, 2]","50","5","setsize","10S3A","food","1","2","0","1",""
"null","null","fixation","html-keyboard-response","207","614356","0.0-1.0-7.0-3.0-0.51","13:18:45","2","","","","","","","fixation","","","","","","","","","","","","","","","","","","",""
"984","2","pic_response","html-keyboard-response","208","615341","0.0-1.0-7.0-3.0-1.51","13:18:45","2","","","","","","","<div>
            <img class='stim' src=""pictures/food/5.jpg""></div><div class=""button_prompt"">
                        <b>请用数字键1-3回答</b>
                        </div>","","","","","","","","","","","","","","","","","","",""
"984","null","sub_response","html-keyboard-response","209","616342","0.0-1.0-7.0-3.0-2.51","13:18:45","2","","","","","","","<div style='text-align: center;'>
                            <span style=""color: green; font-size: 40px""><b>正确！+1 pts</b></span></div>
                            ","","learn","5","5","5","learn","1","1","[0, 1, 2]","51","5","setsize","10S3A","food","1","3","1","1",""
"null","null","fixation","html-keyboard-response","210","616844","0.0-1.0-7.0-3.0-0.52","13:18:45","2","","","","","","","fixation","","","","","","","","","","","","","","","","","","",""
"615","3","pic_response","html-keyboard-response","211","617461","0.0-1.0-7.0-3.0-1.52","13:18:45","2","","","","","","","<div>
            <img class='stim' src=""pictures/food/4.jpg""></div><div class=""button_prompt"">
                        <b>请用数字键1-3回答</b>
                        </div>","","","","","","","","","","","","","","","","","","",""
"615","null","sub_response","html-keyboard-response","212","618463","0.0-1.0-7.0-3.0-2.52","13:18:45","2","","","","","","","<div style='text-align: center;'>
                            <span style=""color: red; font-size: 40px""><b>错误！+0 pts</b></span></div>
                            ","","learn","4","4","4","learn","1","1","[0, 1, 2]","52","5","setsize","10S3A","food","1","0","2","0",""
"null","null","fixation","html-keyboard-response","213","618964","0.0-1.0-7.0-3.0-0.53","13:18:45","2","","","","","","","fixation","","","","","","","","","","","","","","","","","","",""
"607","3","pic_response","html-keyboard-response","214","619573","0.0-1.0-7.0-3.0-1.53","13:18:45","2","","","","","","","<div>
            <img class='stim' src=""pictures/food/7.jpg""></div><div class=""button_prompt"">
                        <b>请用数字键1-3回答</b>
                        </div>","","","","","","","","","","","","","","","","","","",""
"607","null","sub_response","html-keyboard-response","215","620574","0.0-1.0-7.0-3.0-2.53","13:18:45","2","","","","","","","<div style='text-align: center;'>
                            <span style=""color: green; font-size: 40px""><b>正确！+1 pts</b></span></div>
                            ","","learn","7","7","7","learn","2","2","[0, 1, 2]","53","5","setsize","10S3A","food","1","1","2","1",""
"null","null","fixation","html-keyboard-response","216","621075","0.0-1.0-7.0-3.0-0.54","13:18:45","2","","","","","","","fixation","","","","","","","","","","","","","","","","","","",""
"640","3","pic_response","html-keyboard-response","217","621716","0.0-1.0-7.0-3.0-1.54","13:18:45","2","","","","","","","<div>
            <img class='stim' src=""pictures/food/8.jpg""></div><div class=""button_prompt"">
                        <b>请用数字键1-3回答</b>
                        </div>","","","","","","","","","","","","","","","","","","",""
"640","null","sub_response","html-keyboard-response","218","622717","0.0-1.0-7.0-3.0-2.54","13:18:45","2","","","","","","","<div style='text-align: center;'>
                            <span style=""color: green; font-size: 40px""><b>正确！+1 pts</b></span></div>
                            ","","learn","8","8","8","learn","2","2","[0, 1, 2]","54","5","setsize","10S3A","food","1","2","2","1",""
"null","null","fixation","html-keyboard-response","219","623219","0.0-1.0-7.0-3.0-0.55","13:18:45","2","","","","","","","fixation","","","","","","","","","","","","","","","","","","",""
"962","1","pic_response","html-keyboard-response","220","624182","0.0-1.0-7.0-3.0-1.55","13:18:45","2","","","","","","","<div>
            <img class='stim' src=""pictures/food/0.jpg""></div><div class=""button_prompt"">
                        <b>请用数字键1-3回答</b>
                        </div>","","","","","","","","","","","","","","","","","","",""
"962","null","sub_response","html-keyboard-response","221","625184","0.0-1.0-7.0-3.0-2.55","13:18:45","2","","","","","","","<div style='text-align: center;'>
                            <span style=""color: green; font-size: 40px""><b>正确！+1 pts</b></span></div>
                            ","","learn","0","0","0","learn","0","0","[0, 1, 2]","55","5","setsize","10S3A","food","1","3","0","1",""
"null","null","fixation","html-keyboard-response","222","625686","0.0-1.0-7.0-3.0-0.56","13:18:45","2","","","","","","","fixation","","","","","","","","","","","","","","","","","","",""
"902","3","pic_response","html-keyboard-response","223","626588","0.0-1.0-7.0-3.0-1.56","13:18:45","2","","","","","","","<div>
            <img class='stim' src=""pictures/food/9.jpg""></div><div class=""button_prompt"">
                        <b>请用数字键1-3回答</b>
                        </div>","","","","","","","","","","","","","","","","","","",""
"902","null","sub_response","html-keyboard-response","224","627589","0.0-1.0-7.0-3.0-2.56","13:18:45","2","","","","","","","<div style='text-align: center;'>
                            <span style=""color: green; font-size: 40px""><b>正确！+1 pts</b></span></div>
                            ","","learn","9","9","9","learn","2","2","[0, 1, 2]","56","5","setsize","10S3A","food","1","4","2","1",""
"null","null","fixation","html-keyboard-response","225","628092","0.0-1.0-7.0-3.0-0.57","13:18:45","2","","","","","","","fixation","","","","","","","","","","","","","","","","","","",""
"1978","1","pic_response","html-keyboard-response","226","630071","0.0-1.0-7.0-3.0-1.57","13:18:45","2","","","","","","","<div>
            <img class='stim' src=""pictures/food/1.jpg""></div><div class=""button_prompt"">
                        <b>请用数字键1-3回答</b>
                        </div>","","","","","","","","","","","","","","","","","","",""
"1978","null","sub_response","html-keyboard-response","227","631072","0.0-1.0-7.0-3.0-2.57","13:18:45","2","","","","","","","<div style='text-align: center;'>
                            <span style=""color: green; font-size: 40px""><b>正确！+1 pts</b></span></div>
                            ","","learn","1","1","1","learn","0","0","[0, 1, 2]","57","5","setsize","10S3A","food","1","5","0","1",""
"null","null","fixation","html-keyboard-response","228","631574","0.0-1.0-7.0-3.0-0.58","13:18:45","2","","","","","","","fixation","","","","","","","","","","","","","","","","","","",""
"894","3","pic_response","html-keyboard-response","229","632469","0.0-1.0-7.0-3.0-1.58","13:18:45","2","","","","","","","<div>
            <img class='stim' src=""pictures/food/6.jpg""></div><div class=""button_prompt"">
                        <b>请用数字键1-3回答</b>
                        </div>","","","","","","","","","","","","","","","","","","",""
"894","null","sub_response","html-keyboard-response","230","633470","0.0-1.0-7.0-3.0-2.58","13:18:45","2","","","","","","","<div style='text-align: center;'>
                            <span style=""color: green; font-size: 40px""><b>正确！+1 pts</b></span></div>
                            ","","learn","6","6","6","learn","2","2","[0, 1, 2]","58","5","setsize","10S3A","food","1","6","2","1",""
"null","null","fixation","html-keyboard-response","231","633971","0.0-1.0-7.0-3.0-0.59","13:18:45","2","","","","","","","fixation","","","","","","","","","","","","","","","","","","",""
"1523","2","pic_response","html-keyboard-response","232","635495","0.0-1.0-7.0-3.0-1.59","13:18:45","2","","","","","","","<div>
            <img class='stim' src=""pictures/food/3.jpg""></div><div class=""button_prompt"">
                        <b>请用数字键1-3回答</b>
                        </div>","","","","","","","","","","","","","","","","","","",""
"1523","null","sub_response","html-keyboard-response","233","636496","0.0-1.0-7.0-3.0-2.59","13:18:45","2","","","","","","","<div style='text-align: center;'>
                            <span style=""color: green; font-size: 40px""><b>正确！+1 pts</b></span></div>
                            ","","learn","3","3","3","learn","1","1","[0, 1, 2]","59","5","setsize","10S3A","food","1","7","1","1",""
"null","null","fixation","html-keyboard-response","234","636996","0.0-1.0-7.0-3.0-0.60","13:18:45","2","","","","","","","fixation","","","","","","","","","","","","","","","","","","",""
"1024","2","pic_response","html-keyboard-response","235","638022","0.0-1.0-7.0-3.0-1.60","13:18:45","2","","","","","","","<div>
            <img class='stim' src=""pictures/food/5.jpg""></div><div class=""button_prompt"">
                        <b>请用数字键1-3回答</b>
                        </div>","","","","","","","","","","","","","","","","","","",""
"1024","null","sub_response","html-keyboard-response","236","639023","0.0-1.0-7.0-3.0-2.60","13:18:45","2","","","","","","","<div style='text-align: center;'>
                            <span style=""color: green; font-size: 40px""><b>正确！+1 pts</b></span></div>
                            ","","learn","5","5","5","learn","1","1","[0, 1, 2]","60","6","setsize","10S3A","food","1","8","1","1",""
"null","null","fixation","html-keyboard-response","237","639524","0.0-1.0-7.0-3.0-0.61","13:18:45","2","","","","","","","fixation","","","","","","","","","","","","","","","","","","",""
"1760","3","pic_response","html-keyboard-response","238","641285","0.0-1.0-7.0-3.0-1.61","13:18:45","2","","","","","","","<div>
            <img class='stim' src=""pictures/food/9.jpg""></div><div class=""button_prompt"">
                        <b>请用数字键1-3回答</b>
                        </div>","","","","","","","","","","","","","","","","","","",""
"1760","null","sub_response","html-keyboard-response","239","642286","0.0-1.0-7.0-3.0-2.61","13:18:45","2","","","","","","","<div style='text-align: center;'>
                            <span style=""color: green; font-size: 40px""><b>正确！+1 pts</b></span></div>
                            ","","learn","9","9","9","learn","2","2","[0, 1, 2]","61","6","setsize","10S3A","food","1","9","2","1",""
"null","null","fixation","html-keyboard-response","240","642786","0.0-1.0-7.0-3.0-0.62","13:18:45","2","","","","","","","fixation","","","","","","","","","","","","","","","","","","",""
"1202","3","pic_response","html-keyboard-response","241","643989","0.0-1.0-7.0-3.0-1.62","13:18:45","2","","","","","","","<div>
            <img class='stim' src=""pictures/food/6.jpg""></div><div class=""button_prompt"">
                        <b>请用数字键1-3回答</b>
                        </div>","","","","","","","","","","","","","","","","","","",""
"1202","null","sub_response","html-keyboard-response","242","644992","0.0-1.0-7.0-3.0-2.62","13:18:45","2","","","","","","","<div style='text-align: center;'>
                            <span style=""color: green; font-size: 40px""><b>正确！+1 pts</b></span></div>
                            ","","learn","6","6","6","learn","2","2","[0, 1, 2]","62","6","setsize","10S3A","food","1","10","2","1",""
"null","null","fixation","html-keyboard-response","243","645498","0.0-1.0-7.0-3.0-0.63","13:18:45","2","","","","","","","fixation","","","","","","","","","","","","","","","","","","",""
"641","2","pic_response","html-keyboard-response","244","646141","0.0-1.0-7.0-3.0-1.63","13:18:45","2","","","","","","","<div>
            <img class='stim' src=""pictures/food/4.jpg""></div><div class=""button_prompt"">
                        <b>请用数字键1-3回答</b>
                        </div>","","","","","","","","","","","","","","","","","","",""
"641","null","sub_response","html-keyboard-response","245","647142","0.0-1.0-7.0-3.0-2.63","13:18:45","2","","","","","","","<div style='text-align: center;'>
                            <span style=""color: green; font-size: 40px""><b>正确！+1 pts</b></span></div>
                            ","","learn","4","4","4","learn","1","1","[0, 1, 2]","63","6","setsize","10S3A","food","1","11","1","1",""
"null","null","fixation","html-keyboard-response","246","647643","0.0-1.0-7.0-3.0-0.64","13:18:45","2","","","","","","","fixation","","","","","","","","","","","","","","","","","","",""
"1992","1","pic_response","html-keyboard-response","247","649637","0.0-1.0-7.0-3.0-1.64","13:18:45","2","","","","","","","<div>
            <img class='stim' src=""pictures/food/1.jpg""></div><div class=""button_prompt"">
                        <b>请用数字键1-3回答</b>
                        </div>","","","","","","","","","","","","","","","","","","",""
"1992","null","sub_response","html-keyboard-response","248","650639","0.0-1.0-7.0-3.0-2.64","13:18:45","2","","","","","","","<div style='text-align: center;'>
                            <span style=""color: green; font-size: 40px""><b>正确！+1 pts</b></span></div>
                            ","","learn","1","1","1","learn","0","0","[0, 1, 2]","64","6","setsize","10S3A","food","1","12","0","1",""
"null","null","fixation","html-keyboard-response","249","651142","0.0-1.0-7.0-3.0-0.65","13:18:45","2","","","","","","","fixation","","","","","","","","","","","","","","","","","","",""
"725","3","pic_response","html-keyboard-response","250","651869","0.0-1.0-7.0-3.0-1.65","13:18:45","2","","","","","","","<div>
            <img class='stim' src=""pictures/food/7.jpg""></div><div class=""button_prompt"">
                        <b>请用数字键1-3回答</b>
                        </div>","","","","","","","","","","","","","","","","","","",""
"725","null","sub_response","html-keyboard-response","251","652871","0.0-1.0-7.0-3.0-2.65","13:18:45","2","","","","","","","<div style='text-align: center;'>
                            <span style=""color: green; font-size: 40px""><b>正确！+1 pts</b></span></div>
                            ","","learn","7","7","7","learn","2","2","[0, 1, 2]","65","6","setsize","10S3A","food","1","13","2","1",""
"null","null","fixation","html-keyboard-response","252","653372","0.0-1.0-7.0-3.0-0.66","13:18:45","2","","","","","","","fixation","","","","","","","","","","","","","","","","","","",""
"1281","1","pic_response","html-keyboard-response","253","654654","0.0-1.0-7.0-3.0-1.66","13:18:45","2","","","","","","","<div>
            <img class='stim' src=""pictures/food/3.jpg""></div><div class=""button_prompt"">
                        <b>请用数字键1-3回答</b>
                        </div>","","","","","","","","","","","","","","","","","","",""
"1281","null","sub_response","html-keyboard-response","254","655655","0.0-1.0-7.0-3.0-2.66","13:18:45","2","","","","","","","<div style='text-align: center;'>
                            <span style=""color: red; font-size: 40px""><b>错误！+0 pts</b></span></div>
                            ","","learn","3","3","3","learn","1","1","[0, 1, 2]","66","6","setsize","10S3A","food","1","0","0","0",""
"null","null","fixation","html-keyboard-response","255","656156","0.0-1.0-7.0-3.0-0.67","13:18:45","2","","","","","","","fixation","","","","","","","","","","","","","","","","","","",""
"1687","1","pic_response","html-keyboard-response","256","657845","0.0-1.0-7.0-3.0-1.67","13:18:45","2","","","","","","","<div>
            <img class='stim' src=""pictures/food/2.jpg""></div><div class=""button_prompt"">
                        <b>请用数字键1-3回答</b>
                        </div>","","","","","","","","","","","","","","","","","","",""
"1687","null","sub_response","html-keyboard-response","257","658847","0.0-1.0-7.0-3.0-2.67","13:18:45","2","","","","","","","<div style='text-align: center;'>
                            <span style=""color: green; font-size: 40px""><b>正确！+1 pts</b></span></div>
                            ","","learn","2","2","2","learn","0","0","[0, 1, 2]","67","6","setsize","10S3A","food","1","1","0","1",""
"null","null","fixation","html-keyboard-response","258","659349","0.0-1.0-7.0-3.0-0.68","13:18:45","2","","","","","","","fixation","","","","","","","","","","","","","","","","","","",""
"662","3","pic_response","html-keyboard-response","259","660013","0.0-1.0-7.0-3.0-1.68","13:18:45","2","","","","","","","<div>
            <img class='stim' src=""pictures/food/8.jpg""></div><div class=""button_prompt"">
                        <b>请用数字键1-3回答</b>
                        </div>","","","","","","","","","","","","","","","","","","",""
"662","null","sub_response","html-keyboard-response","260","661014","0.0-1.0-7.0-3.0-2.68","13:18:45","2","","","","","","","<div style='text-align: center;'>
                            <span style=""color: green; font-size: 40px""><b>正确！+1 pts</b></span></div>
                            ","","learn","8","8","8","learn","2","2","[0, 1, 2]","68","6","setsize","10S3A","food","1","2","2","1",""
"null","null","fixation","html-keyboard-response","261","661516","0.0-1.0-7.0-3.0-0.69","13:18:45","2","","","","","","","fixation","","","","","","","","","","","","","","","","","","",""
"1560","1","pic_response","html-keyboard-response","262","663077","0.0-1.0-7.0-3.0-1.69","13:18:45","2","","","","","","","<div>
            <img class='stim' src=""pictures/food/0.jpg""></div><div class=""button_prompt"">
                        <b>请用数字键1-3回答</b>
                        </div>","","","","","","","","","","","","","","","","","","",""
"1560","null","sub_response","html-keyboard-response","263","664079","0.0-1.0-7.0-3.0-2.69","13:18:45","2","","","","","","","<div style='text-align: center;'>
                            <span style=""color: green; font-size: 40px""><b>正确！+1 pts</b></span></div>
                            ","","learn","0","0","0","learn","0","0","[0, 1, 2]","69","6","setsize","10S3A","food","1","3","0","1",""
"null","null","fixation","html-keyboard-response","264","664581","0.0-1.0-7.0-3.0-0.70","13:18:45","2","","","","","","","fixation","","","","","","","","","","","","","","","","","","",""
"656","3","pic_response","html-keyboard-response","265","665237","0.0-1.0-7.0-3.0-1.70","13:18:45","2","","","","","","","<div>
            <img class='stim' src=""pictures/food/7.jpg""></div><div class=""button_prompt"">
                        <b>请用数字键1-3回答</b>
                        </div>","","","","","","","","","","","","","","","","","","",""
"656","null","sub_response","html-keyboard-response","266","666238","0.0-1.0-7.0-3.0-2.70","13:18:45","2","","","","","","","<div style='text-align: center;'>
                            <span style=""color: green; font-size: 40px""><b>正确！+1 pts</b></span></div>
                            ","","learn","7","7","7","learn","2","2","[0, 1, 2]","70","7","setsize","10S3A","food","1","4","2","1",""
"null","null","fixation","html-keyboard-response","267","666740","0.0-1.0-7.0-3.0-0.71","13:18:45","2","","","","","","","fixation","","","","","","","","","","","","","","","","","","",""
"1279","1","pic_response","html-keyboard-response","268","668021","0.0-1.0-7.0-3.0-1.71","13:18:45","2","","","","","","","<div>
            <img class='stim' src=""pictures/food/0.jpg""></div><div class=""button_prompt"">
                        <b>请用数字键1-3回答</b>
                        </div>","","","","","","","","","","","","","","","","","","",""
"1279","null","sub_response","html-keyboard-response","269","669023","0.0-1.0-7.0-3.0-2.71","13:18:45","2","","","","","","","<div style='text-align: center;'>
                            <span style=""color: green; font-size: 40px""><b>正确！+1 pts</b></span></div>
                            ","","learn","0","0","0","learn","0","0","[0, 1, 2]","71","7","setsize","10S3A","food","1","5","0","1",""
"null","null","fixation","html-keyboard-response","270","669524","0.0-1.0-7.0-3.0-0.72","13:18:45","2","","","","","","","fixation","","","","","","","","","","","","","","","","","","",""
"631","3","pic_response","html-keyboard-response","271","670156","0.0-1.0-7.0-3.0-1.72","13:18:45","2","","","","","","","<div>
            <img class='stim' src=""pictures/food/8.jpg""></div><div class=""button_prompt"">
                        <b>请用数字键1-3回答</b>
                        </div>","","","","","","","","","","","","","","","","","","",""
"631","null","sub_response","html-keyboard-response","272","671157","0.0-1.0-7.0-3.0-2.72","13:18:45","2","","","","","","","<div style='text-align: center;'>
                            <span style=""color: green; font-size: 40px""><b>正确！+1 pts</b></span></div>
                            ","","learn","8","8","8","learn","2","2","[0, 1, 2]","72","7","setsize","10S3A","food","1","6","2","1",""
"null","null","fixation","html-keyboard-response","273","671658","0.0-1.0-7.0-3.0-0.73","13:18:45","2","","","","","","","fixation","","","","","","","","","","","","","","","","","","",""
"819","2","pic_response","html-keyboard-response","274","672478","0.0-1.0-7.0-3.0-1.73","13:18:45","2","","","","","","","<div>
            <img class='stim' src=""pictures/food/5.jpg""></div><div class=""button_prompt"">
                        <b>请用数字键1-3回答</b>
                        </div>","","","","","","","","","","","","","","","","","","",""
"819","null","sub_response","html-keyboard-response","275","673481","0.0-1.0-7.0-3.0-2.73","13:18:45","2","","","","","","","<div style='text-align: center;'>
                            <span style=""color: green; font-size: 40px""><b>正确！+1 pts</b></span></div>
                            ","","learn","5","5","5","learn","1","1","[0, 1, 2]","73","7","setsize","10S3A","food","1","7","1","1",""
"null","null","fixation","html-keyboard-response","276","673982","0.0-1.0-7.0-3.0-0.74","13:18:45","2","","","","","","","fixation","","","","","","","","","","","","","","","","","","",""
"941","3","pic_response","html-keyboard-response","277","674924","0.0-1.0-7.0-3.0-1.74","13:18:45","2","","","","","","","<div>
            <img class='stim' src=""pictures/food/9.jpg""></div><div class=""button_prompt"">
                        <b>请用数字键1-3回答</b>
                        </div>","","","","","","","","","","","","","","","","","","",""
"941","null","sub_response","html-keyboard-response","278","675925","0.0-1.0-7.0-3.0-2.74","13:18:45","2","","","","","","","<div style='text-align: center;'>
                            <span style=""color: green; font-size: 40px""><b>正确！+1 pts</b></span></div>
                            ","","learn","9","9","9","learn","2","2","[0, 1, 2]","74","7","setsize","10S3A","food","1","8","2","1",""
"null","null","fixation","html-keyboard-response","279","676427","0.0-1.0-7.0-3.0-0.75","13:18:45","2","","","","","","","fixation","","","","","","","","","","","","","","","","","","",""
"979","2","pic_response","html-keyboard-response","280","677407","0.0-1.0-7.0-3.0-1.75","13:18:45","2","","","","","","","<div>
            <img class='stim' src=""pictures/food/4.jpg""></div><div class=""button_prompt"">
                        <b>请用数字键1-3回答</b>
                        </div>","","","","","","","","","","","","","","","","","","",""
"979","null","sub_response","html-keyboard-response","281","678408","0.0-1.0-7.0-3.0-2.75","13:18:45","2","","","","","","","<div style='text-align: center;'>
                            <span style=""color: green; font-size: 40px""><b>正确！+1 pts</b></span></div>
                            ","","learn","4","4","4","learn","1","1","[0, 1, 2]","75","7","setsize","10S3A","food","1","9","1","1",""
"null","null","fixation","html-keyboard-response","282","678909","0.0-1.0-7.0-3.0-0.76","13:18:45","2","","","","","","","fixation","","","","","","","","","","","","","","","","","","",""
"1598","3","pic_response","html-keyboard-response","283","680508","0.0-1.0-7.0-3.0-1.76","13:18:45","2","","","","","","","<div>
            <img class='stim' src=""pictures/food/6.jpg""></div><div class=""button_prompt"">
                        <b>请用数字键1-3回答</b>
                        </div>","","","","","","","","","","","","","","","","","","",""
"1598","null","sub_response","html-keyboard-response","284","681510","0.0-1.0-7.0-3.0-2.76","13:18:45","2","","","","","","","<div style='text-align: center;'>
                            <span style=""color: green; font-size: 40px""><b>正确！+1 pts</b></span></div>
                            ","","learn","6","6","6","learn","2","2","[0, 1, 2]","76","7","setsize","10S3A","food","1","10","2","1",""
"null","null","fixation","html-keyboard-response","285","682012","0.0-1.0-7.0-3.0-0.77","13:18:45","2","","","","","","","fixation","","","","","","","","","","","","","","","","","","",""
"1240","1","pic_response","html-keyboard-response","286","683252","0.0-1.0-7.0-3.0-1.77","13:18:45","2","","","","","","","<div>
            <img class='stim' src=""pictures/food/3.jpg""></div><div class=""button_prompt"">
                        <b>请用数字键1-3回答</b>
                        </div>","","","","","","","","","","","","","","","","","","",""
"1240","null","sub_response","html-keyboard-response","287","684253","0.0-1.0-7.0-3.0-2.77","13:18:45","2","","","","","","","<div style='text-align: center;'>
                            <span style=""color: red; font-size: 40px""><b>错误！+0 pts</b></span></div>
                            ","","learn","3","3","3","learn","1","1","[0, 1, 2]","77","7","setsize","10S3A","food","1","0","0","0",""
"null","null","fixation","html-keyboard-response","288","684754","0.0-1.0-7.0-3.0-0.78","13:18:45","2","","","","","","","fixation","","","","","","","","","","","","","","","","","","",""
"931","1","pic_response","html-keyboard-response","289","685686","0.0-1.0-7.0-3.0-1.78","13:18:45","2","","","","","","","<div>
            <img class='stim' src=""pictures/food/1.jpg""></div><div class=""button_prompt"">
                        <b>请用数字键1-3回答</b>
                        </div>","","","","","","","","","","","","","","","","","","",""
"931","null","sub_response","html-keyboard-response","290","686687","0.0-1.0-7.0-3.0-2.78","13:18:45","2","","","","","","","<div style='text-align: center;'>
                            <span style=""color: green; font-size: 40px""><b>正确！+1 pts</b></span></div>
                            ","","learn","1","1","1","learn","0","0","[0, 1, 2]","78","7","setsize","10S3A","food","1","1","0","1",""
"null","null","fixation","html-keyboard-response","291","687188","0.0-1.0-7.0-3.0-0.79","13:18:45","2","","","","","","","fixation","","","","","","","","","","","","","","","","","","",""
"1088","1","pic_response","html-keyboard-response","292","688277","0.0-1.0-7.0-3.0-1.79","13:18:45","2","","","","","","","<div>
            <img class='stim' src=""pictures/food/2.jpg""></div><div class=""button_prompt"">
                        <b>请用数字键1-3回答</b>
                        </div>","","","","","","","","","","","","","","","","","","",""
"1088","null","sub_response","html-keyboard-response","293","689279","0.0-1.0-7.0-3.0-2.79","13:18:45","2","","","","","","","<div style='text-align: center;'>
                            <span style=""color: green; font-size: 40px""><b>正确！+1 pts</b></span></div>
                            ","","learn","2","2","2","learn","0","0","[0, 1, 2]","79","7","setsize","10S3A","food","1","2","0","1",""
"null","null","fixation","html-keyboard-response","294","689781","0.0-1.0-7.0-3.0-0.80","13:18:45","2","","","","","","","fixation","","","","","","","","","","","","","","","","","","",""
"1011","1","pic_response","html-keyboard-response","295","690793","0.0-1.0-7.0-3.0-1.80","13:18:45","2","","","","","","","<div>
            <img class='stim' src=""pictures/food/2.jpg""></div><div class=""button_prompt"">
                        <b>请用数字键1-3回答</b>
                        </div>","","","","","","","","","","","","","","","","","","",""
"1011","null","sub_response","html-keyboard-response","296","691795","0.0-1.0-7.0-3.0-2.80","13:18:45","2","","","","","","","<div style='text-align: center;'>
                            <span style=""color: green; font-size: 40px""><b>正确！+1 pts</b></span></div>
                            ","","learn","2","2","2","learn","0","0","[0, 1, 2]","80","8","setsize","10S3A","food","1","3","0","1",""
"null","null","fixation","html-keyboard-response","297","692297","0.0-1.0-7.0-3.0-0.81","13:18:45","2","","","","","","","fixation","","","","","","","","","","","","","","","","","","",""
"747","3","pic_response","html-keyboard-response","298","693044","0.0-1.0-7.0-3.0-1.81","13:18:45","2","","","","","","","<div>
            <img class='stim' src=""pictures/food/6.jpg""></div><div class=""button_prompt"">
                        <b>请用数字键1-3回答</b>
                        </div>","","","","","","","","","","","","","","","","","","",""
"747","null","sub_response","html-keyboard-response","299","694045","0.0-1.0-7.0-3.0-2.81","13:18:45","2","","","","","","","<div style='text-align: center;'>
                            <span style=""color: green; font-size: 40px""><b>正确！+1 pts</b></span></div>
                            ","","learn","6","6","6","learn","2","2","[0, 1, 2]","81","8","setsize","10S3A","food","1","4","2","1",""
"null","null","fixation","html-keyboard-response","300","694546","0.0-1.0-7.0-3.0-0.82","13:18:45","2","","","","","","","fixation","","","","","","","","","","","","","","","","","","",""
"706","1","pic_response","html-keyboard-response","301","695253","0.0-1.0-7.0-3.0-1.82","13:18:45","2","","","","","","","<div>
            <img class='stim' src=""pictures/food/0.jpg""></div><div class=""button_prompt"">
                        <b>请用数字键1-3回答</b>
                        </div>","","","","","","","","","","","","","","","","","","",""
"706","null","sub_response","html-keyboard-response","302","696254","0.0-1.0-7.0-3.0-2.82","13:18:45","2","","","","","","","<div style='text-align: center;'>
                            <span style=""color: green; font-size: 40px""><b>正确！+1 pts</b></span></div>
                            ","","learn","0","0","0","learn","0","0","[0, 1, 2]","82","8","setsize","10S3A","food","1","5","0","1",""
"null","null","fixation","html-keyboard-response","303","696755","0.0-1.0-7.0-3.0-0.83","13:18:45","2","","","","","","","fixation","","","","","","","","","","","","","","","","","","",""
"2544","3","pic_response","html-keyboard-response","304","699300","0.0-1.0-7.0-3.0-1.83","13:18:45","2","","","","","","","<div>
            <img class='stim' src=""pictures/food/7.jpg""></div><div class=""button_prompt"">
                        <b>请用数字键1-3回答</b>
                        </div>","","","","","","","","","","","","","","","","","","",""
"2544","null","sub_response","html-keyboard-response","305","700301","0.0-1.0-7.0-3.0-2.83","13:18:45","2","","","","","","","<div style='text-align: center;'>
                            <span style=""color: green; font-size: 40px""><b>正确！+1 pts</b></span></div>
                            ","","learn","7","7","7","learn","2","2","[0, 1, 2]","83","8","setsize","10S3A","food","1","6","2","1",""
"null","null","fixation","html-keyboard-response","306","700802","0.0-1.0-7.0-3.0-0.84","13:18:45","2","","","","","","","fixation","","","","","","","","","","","","","","","","","","",""
"636","2","pic_response","html-keyboard-response","307","701439","0.0-1.0-7.0-3.0-1.84","13:18:45","2","","","","","","","<div>
            <img class='stim' src=""pictures/food/5.jpg""></div><div class=""button_prompt"">
                        <b>请用数字键1-3回答</b>
                        </div>","","","","","","","","","","","","","","","","","","",""
"636","null","sub_response","html-keyboard-response","308","702440","0.0-1.0-7.0-3.0-2.84","13:18:45","2","","","","","","","<div style='text-align: center;'>
                            <span style=""color: green; font-size: 40px""><b>正确！+1 pts</b></span></div>
                            ","","learn","5","5","5","learn","1","1","[0, 1, 2]","84","8","setsize","10S3A","food","1","7","1","1",""
"null","null","fixation","html-keyboard-response","309","702942","0.0-1.0-7.0-3.0-0.85","13:18:45","2","","","","","","","fixation","","","","","","","","","","","","","","","","","","",""
"637","3","pic_response","html-keyboard-response","310","703581","0.0-1.0-7.0-3.0-1.85","13:18:45","2","","","","","","","<div>
            <img class='stim' src=""pictures/food/9.jpg""></div><div class=""button_prompt"">
                        <b>请用数字键1-3回答</b>
                        </div>","","","","","","","","","","","","","","","","","","",""
"637","null","sub_response","html-keyboard-response","311","704583","0.0-1.0-7.0-3.0-2.85","13:18:45","2","","","","","","","<div style='text-align: center;'>
                            <span style=""color: green; font-size: 40px""><b>正确！+1 pts</b></span></div>
                            ","","learn","9","9","9","learn","2","2","[0, 1, 2]","85","8","setsize","10S3A","food","1","8","2","1",""
"null","null","fixation","html-keyboard-response","312","705084","0.0-1.0-7.0-3.0-0.86","13:18:45","2","","","","","","","fixation","","","","","","","","","","","","","","","","","","",""
"848","1","pic_response","html-keyboard-response","313","705932","0.0-1.0-7.0-3.0-1.86","13:18:45","2","","","","","","","<div>
            <img class='stim' src=""pictures/food/3.jpg""></div><div class=""button_prompt"">
                        <b>请用数字键1-3回答</b>
                        </div>","","","","","","","","","","","","","","","","","","",""
"848","null","sub_response","html-keyboard-response","314","706933","0.0-1.0-7.0-3.0-2.86","13:18:45","2","","","","","","","<div style='text-align: center;'>
                            <span style=""color: red; font-size: 40px""><b>错误！+0 pts</b></span></div>
                            ","","learn","3","3","3","learn","1","1","[0, 1, 2]","86","8","setsize","10S3A","food","1","0","0","0",""
"null","null","fixation","html-keyboard-response","315","707434","0.0-1.0-7.0-3.0-0.87","13:18:45","2","","","","","","","fixation","","","","","","","","","","","","","","","","","","",""
"531","3","pic_response","html-keyboard-response","316","707965","0.0-1.0-7.0-3.0-1.87","13:18:45","2","","","","","","","<div>
            <img class='stim' src=""pictures/food/8.jpg""></div><div class=""button_prompt"">
                        <b>请用数字键1-3回答</b>
                        </div>","","","","","","","","","","","","","","","","","","",""
"531","null","sub_response","html-keyboard-response","317","708967","0.0-1.0-7.0-3.0-2.87","13:18:45","2","","","","","","","<div style='text-align: center;'>
                            <span style=""color: green; font-size: 40px""><b>正确！+1 pts</b></span></div>
                            ","","learn","8","8","8","learn","2","2","[0, 1, 2]","87","8","setsize","10S3A","food","1","1","2","1",""
"null","null","fixation","html-keyboard-response","318","709468","0.0-1.0-7.0-3.0-0.88","13:18:45","2","","","","","","","fixation","","","","","","","","","","","","","","","","","","",""
"567","2","pic_response","html-keyboard-response","319","710036","0.0-1.0-7.0-3.0-1.88","13:18:45","2","","","","","","","<div>
            <img class='stim' src=""pictures/food/4.jpg""></div><div class=""button_prompt"">
                        <b>请用数字键1-3回答</b>
                        </div>","","","","","","","","","","","","","","","","","","",""
"567","null","sub_response","html-keyboard-response","320","711037","0.0-1.0-7.0-3.0-2.88","13:18:45","2","","","","","","","<div style='text-align: center;'>
                            <span style=""color: green; font-size: 40px""><b>正确！+1 pts</b></span></div>
                            ","","learn","4","4","4","learn","1","1","[0, 1, 2]","88","8","setsize","10S3A","food","1","2","1","1",""
