"rt","response","screen_id","trial_type","trial_index","time_elapsed","internal_node_id","start_time","n_Prac","success","timeout","failed_images","failed_audio","failed_video","view_history","stimulus","question_order","stage","s","word","word_id","phase","a_cor","a_real","a_ava","trial","tps","task_type","block_typ","pic_typ","block_id","cum_r","a","r","plugin_name"
"206762","{""sub_id"":""331"",""task_type"":""task1"",""name"":""jiejie"",""gender"":""M""}","basic_info","survey-html-form","0","206765","0.0-0.0","00:58:58","1","","","","","","","","","","","","","","","","","","","","","","","","","",""
"","","","preload","1","206828","0.0-1.0-0.0","00:58:58","1","true","false","[]","[]","[]","","","","","","","","","","","","","","","","","","","","",""
"","","","preload","2","206842","0.0-1.0-1.0","00:58:58","1","true","false","[]","[]","[]","","","","","","","","","","","","","","","","","","","","",""
"","","","fullscreen","3","209245","0.0-1.0-2.0","00:58:58","1","true","","","","","","","","","","","","","","","","","","","","","","","","",""
"44231","","instruct","instructions","4","253491","0.0-1.0-3.0-0.0","00:58:58","1","","","","","","[{""page_index"":0,""viewing_time"":23486},{""page_index"":1,""viewing_time"":17408},{""page_index"":2,""viewing_time"":3336}]","","","","","","","","","","","","","","","","","","","",""
"6390","{""Q0"":"""",""task1"":""<span style='font-size: 24px'>学习图片和数字的对应关系</span>"",""task2"":""<span style='font-size: 24px'> 图片下方标注为可用的数字键（数字键1-3或0-9） </span>"",""task3"":""<span style='font-size: 24px'> 看到图片选出正确对应的数字 </span>""}","question","survey-multi-choice","5","259884","0.0-1.0-3.0-1.0","00:58:58","1","","","","","","","","[0,1,2,3]","","","","","","","","","","","","","","","","","",""
"1236"," ","inst_q","html-keyboard-response","6","261124","0.0-1.0-3.0-2.0","00:58:58","1","","","","","","","inst","","1","","","","","","","","","","","","","","","","",""
"","","","preload","7","261153","0.0-1.0-4.0-0.0","00:58:58","1","true","false","[]","[]","[]","","","","","","","","","","","","","","","","","","","","",""
"2099"," ","","html-keyboard-response","8","263254","0.0-1.0-4.0-1.0","00:58:58","1","","","","","","","<div style='font-size: 32px; text-align: center;'
                    <p>请学习图片和数字之间的对应关系</p>
                    <p>我们将<span style='color: blue'><b> 告诉 </b></span>您选择的对错。请根据反馈学习。</p>
                    <p>请按""空格""继续实验。</p></div>","","","","","","","","","","","","","","","","","","",""
"7371"," ","inst","html-keyboard-response","9","270668","0.0-1.0-4.0-2.0","00:58:58","1","","","","","","","<img class='instruct_stim' src=""instruction/prac3.PNG""></div>","","","","","","","","","","","","","","","","","","",""
"null","null","fixation","html-keyboard-response","10","271231","0.0-1.0-4.0-3.0-0.0","00:58:58","1","","","","","","","fixation","","","","","","","","","","","","","","","","","","",""
"1399","1","pic_response","html-keyboard-response","11","272635","0.0-1.0-4.0-3.0-1.0","00:58:58","1","","","","","","","<div>
            <img class='stim' src=""pictures/prac/0.jpg""></div><div class=""button_prompt"">
                        <b>请用数字键1-3回答</b>
                        </div>","","","","","","","","","","","","","","","","","","",""
"1399","null","sub_response","html-keyboard-response","12","273639","0.0-1.0-4.0-3.0-2.0","00:58:58","1","","","","","","","<div style='text-align: center;'>
                            <span style=""color: green; font-size: 40px""><b>正确！+1 pts</b></span></div>
                            ","","learn","0","0","0","learn","0","0","[0, 1, 2]","0","0","setsize","99","prac","0","1","0","1",""
"null","null","fixation","html-keyboard-response","13","274143","0.0-1.0-4.0-3.0-0.1","00:58:58","1","","","","","","","fixation","","","","","","","","","","","","","","","","","","",""
"843","3","pic_response","html-keyboard-response","14","274988","0.0-1.0-4.0-3.0-1.1","00:58:58","1","","","","","","","<div>
            <img class='stim' src=""pictures/prac/1.jpg""></div><div class=""button_prompt"">
                        <b>请用数字键1-3回答</b>
                        </div>","","","","","","","","","","","","","","","","","","",""
"843","null","sub_response","html-keyboard-response","15","275990","0.0-1.0-4.0-3.0-2.1","00:58:58","1","","","","","","","<div style='text-align: center;'>
                            <span style=""color: red; font-size: 40px""><b>错误！+0 pts</b></span></div>
                            ","","learn","1","1","1","learn","0","0","[0, 1, 2]","1","0","setsize","99","prac","0","0","2","0",""
"null","null","fixation","html-keyboard-response","16","276492","0.0-1.0-4.0-3.0-0.2","00:58:58","1","","","","","","","fixation","","","","","","","","","","","","","","","","","","",""
"276","3","pic_response","html-keyboard-response","17","276770","0.0-1.0-4.0-3.0-1.2","00:58:58","1","","","","","","","<div>
            <img class='stim' src=""pictures/prac/2.jpg""></div><div class=""button_prompt"">
                        <b>请用数字键1-3回答</b>
                        </div>","","","","","","","","","","","","","","","","","","",""
"276","null","sub_response","html-keyboard-response","18","277771","0.0-1.0-4.0-3.0-2.2","00:58:58","1","","","","","","","<div style='text-align: center;'>
                            <span style=""color: green; font-size: 40px""><b>正确！+1 pts</b></span></div>
                            ","","learn","2","2","2","learn","2","2","[0, 1, 2]","2","0","setsize","99","prac","0","1","2","1",""
"null","null","fixation","html-keyboard-response","19","278274","0.0-1.0-4.0-3.0-0.3","00:58:58","1","","","","","","","fixation","","","","","","","","","","","","","","","","","","",""
"1240","3","pic_response","html-keyboard-response","20","279516","0.0-1.0-4.0-3.0-1.3","00:58:58","1","","","","","","","<div>
            <img class='stim' src=""pictures/prac/2.jpg""></div><div class=""button_prompt"">
                        <b>请用数字键1-3回答</b>
                        </div>","","","","","","","","","","","","","","","","","","",""
"1240","null","sub_response","html-keyboard-response","21","280519","0.0-1.0-4.0-3.0-2.3","00:58:58","1","","","","","","","<div style='text-align: center;'>
                            <span style=""color: green; font-size: 40px""><b>正确！+1 pts</b></span></div>
                            ","","learn","2","2","2","learn","2","2","[0, 1, 2]","3","1","setsize","99","prac","0","2","2","1",""
"null","null","fixation","html-keyboard-response","22","281020","0.0-1.0-4.0-3.0-0.4","00:58:58","1","","","","","","","fixation","","","","","","","","","","","","","","","","","","",""
"1313","1","pic_response","html-keyboard-response","23","282335","0.0-1.0-4.0-3.0-1.4","00:58:58","1","","","","","","","<div>
            <img class='stim' src=""pictures/prac/0.jpg""></div><div class=""button_prompt"">
                        <b>请用数字键1-3回答</b>
                        </div>","","","","","","","","","","","","","","","","","","",""
"1313","null","sub_response","html-keyboard-response","24","283337","0.0-1.0-4.0-3.0-2.4","00:58:58","1","","","","","","","<div style='text-align: center;'>
                            <span style=""color: green; font-size: 40px""><b>正确！+1 pts</b></span></div>
                            ","","learn","0","0","0","learn","0","0","[0, 1, 2]","4","1","setsize","99","prac","0","3","0","1",""
"null","null","fixation","html-keyboard-response","25","283839","0.0-1.0-4.0-3.0-0.5","00:58:58","1","","","","","","","fixation","","","","","","","","","","","","","","","","","","",""
"675","1","pic_response","html-keyboard-response","26","284517","0.0-1.0-4.0-3.0-1.5","00:58:58","1","","","","","","","<div>
            <img class='stim' src=""pictures/prac/1.jpg""></div><div class=""button_prompt"">
                        <b>请用数字键1-3回答</b>
                        </div>","","","","","","","","","","","","","","","","","","",""
"675","null","sub_response","html-keyboard-response","27","285520","0.0-1.0-4.0-3.0-2.5","00:58:58","1","","","","","","","<div style='text-align: center;'>
                            <span style=""color: green; font-size: 40px""><b>正确！+1 pts</b></span></div>
                            ","","learn","1","1","1","learn","0","0","[0, 1, 2]","5","1","setsize","99","prac","0","4","0","1",""
"18916"," ","","html-keyboard-response","28","304443","0.0-1.0-5.0","00:58:58","1","","","","","","","<div style=""font-size: 25px""><p>距下一个实验开始还有</p><div style=""font-size: 50px; color: blue""><p><span id=""clock"">1:00</span></div></p><p>按""空格""跳过休息</p></div>","","","","","","","","","","","","","","","","","","",""
"1542"," ","","html-keyboard-response","29","305986","0.0-1.0-6.0","00:58:58","1","","","","","","","<div style='font-size: 32px; text-align: center;'
                    <p>请按""空格""继续正式实验。</p></div>","","","","","","","","","","","","","","","","","","",""
"","","","preload","30","306022","0.0-1.0-7.0-0.0","00:58:58","1","true","false","[]","[]","[]","","","","","","","","","","","","","","","","","","","","",""
"3781"," ","","html-keyboard-response","31","309804","0.0-1.0-7.0-1.0","00:58:58","1","","","","","","","<div style='font-size: 32px; text-align: center;'
                    <p>请学习图片和数字之间的对应关系</p>
                    <p>我们将<span style='color: blue'><b> 告诉 </b></span>您选择的对错。请根据反馈学习。</p>
                    <p>请按""空格""继续实验。</p></div>","","","","","","","","","","","","","","","","","","",""
"29342"," ","inst","html-keyboard-response","32","339148","0.0-1.0-7.0-2.0","00:58:58","1","","","","","","","<img class='instruct_stim' src=""instruction/food3.PNG""></div>","","","","","","","","","","","","","","","","","","",""
"null","null","fixation","html-keyboard-response","33","339650","0.0-1.0-7.0-3.0-0.0","00:58:58","1","","","","","","","fixation","","","","","","","","","","","","","","","","","","",""
"2342","3","pic_response","html-keyboard-response","34","341995","0.0-1.0-7.0-3.0-1.0","00:58:58","1","","","","","","","<div>
            <img class='stim' src=""pictures/food/1.jpg""></div><div class=""button_prompt"">
                    <b>请用数字键0-9回答</b>
                    </div>","","","","","","","","","","","","","","","","","","",""
"2342","null","sub_response","html-keyboard-response","35","342997","0.0-1.0-7.0-3.0-2.0","00:58:58","1","","","","","","","<div style='text-align: center;'>
                            <span style=""color: red; font-size: 40px""><b>错误！+0 pts</b></span></div>
                            ","","learn","1","1","1","learn","6","6","[0, 1, 2, 3, 4, 5, 6, 7, 8, 9]","0","0","setsize","3S10A","food","1","0","2","0",""
"null","null","fixation","html-keyboard-response","36","343500","0.0-1.0-7.0-3.0-0.1","00:58:58","1","","","","","","","fixation","","","","","","","","","","","","","","","","","","",""
"605","1","pic_response","html-keyboard-response","37","344107","0.0-1.0-7.0-3.0-1.1","00:58:58","1","","","","","","","<div>
            <img class='stim' src=""pictures/food/2.jpg""></div><div class=""button_prompt"">
                    <b>请用数字键0-9回答</b>
                    </div>","","","","","","","","","","","","","","","","","","",""
"605","null","sub_response","html-keyboard-response","38","345110","0.0-1.0-7.0-3.0-2.1","00:58:58","1","","","","","","","<div style='text-align: center;'>
                            <span style=""color: red; font-size: 40px""><b>错误！+0 pts</b></span></div>
                            ","","learn","2","2","2","learn","9","9","[0, 1, 2, 3, 4, 5, 6, 7, 8, 9]","1","0","setsize","3S10A","food","1","0","0","0",""
"null","null","fixation","html-keyboard-response","39","345612","0.0-1.0-7.0-3.0-0.2","00:58:58","1","","","","","","","fixation","","","","","","","","","","","","","","","","","","",""
"942","1","pic_response","html-keyboard-response","40","346556","0.0-1.0-7.0-3.0-1.2","00:58:58","1","","","","","","","<div>
            <img class='stim' src=""pictures/food/0.jpg""></div><div class=""button_prompt"">
                    <b>请用数字键0-9回答</b>
                    </div>","","","","","","","","","","","","","","","","","","",""
"942","null","sub_response","html-keyboard-response","41","347558","0.0-1.0-7.0-3.0-2.2","00:58:58","1","","","","","","","<div style='text-align: center;'>
                            <span style=""color: red; font-size: 40px""><b>错误！+0 pts</b></span></div>
                            ","","learn","0","0","0","learn","2","2","[0, 1, 2, 3, 4, 5, 6, 7, 8, 9]","2","0","setsize","3S10A","food","1","0","0","0",""
"null","null","fixation","html-keyboard-response","42","348060","0.0-1.0-7.0-3.0-0.3","00:58:58","1","","","","","","","fixation","","","","","","","","","","","","","","","","","","",""
"1606","0","pic_response","html-keyboard-response","43","349668","0.0-1.0-7.0-3.0-1.3","00:58:58","1","","","","","","","<div>
            <img class='stim' src=""pictures/food/0.jpg""></div><div class=""button_prompt"">
                    <b>请用数字键0-9回答</b>
                    </div>","","","","","","","","","","","","","","","","","","",""
"1606","null","sub_response","html-keyboard-response","44","350670","0.0-1.0-7.0-3.0-2.3","00:58:58","1","","","","","","","<div style='text-align: center;'>
                            <span style=""color: red; font-size: 40px""><b>错误！+0 pts</b></span></div>
                            ","","learn","0","0","0","learn","2","2","[0, 1, 2, 3, 4, 5, 6, 7, 8, 9]","3","1","setsize","3S10A","food","1","0","9","0",""
"null","null","fixation","html-keyboard-response","45","351173","0.0-1.0-7.0-3.0-0.4","00:58:58","1","","","","","","","fixation","","","","","","","","","","","","","","","","","","",""
"502","2","pic_response","html-keyboard-response","46","351677","0.0-1.0-7.0-3.0-1.4","00:58:58","1","","","","","","","<div>
            <img class='stim' src=""pictures/food/1.jpg""></div><div class=""button_prompt"">
                    <b>请用数字键0-9回答</b>
                    </div>","","","","","","","","","","","","","","","","","","",""
"502","null","sub_response","html-keyboard-response","47","352679","0.0-1.0-7.0-3.0-2.4","00:58:58","1","","","","","","","<div style='text-align: center;'>
                            <span style=""color: red; font-size: 40px""><b>错误！+0 pts</b></span></div>
                            ","","learn","1","1","1","learn","6","6","[0, 1, 2, 3, 4, 5, 6, 7, 8, 9]","4","1","setsize","3S10A","food","1","0","1","0",""
"null","null","fixation","html-keyboard-response","48","353181","0.0-1.0-7.0-3.0-0.5","00:58:58","1","","","","","","","fixation","","","","","","","","","","","","","","","","","","",""
"1387","2","pic_response","html-keyboard-response","49","354570","0.0-1.0-7.0-3.0-1.5","00:58:58","1","","","","","","","<div>
            <img class='stim' src=""pictures/food/2.jpg""></div><div class=""button_prompt"">
                    <b>请用数字键0-9回答</b>
                    </div>","","","","","","","","","","","","","","","","","","",""
"1387","null","sub_response","html-keyboard-response","50","355571","0.0-1.0-7.0-3.0-2.5","00:58:58","1","","","","","","","<div style='text-align: center;'>
                            <span style=""color: red; font-size: 40px""><b>错误！+0 pts</b></span></div>
                            ","","learn","2","2","2","learn","9","9","[0, 1, 2, 3, 4, 5, 6, 7, 8, 9]","5","1","setsize","3S10A","food","1","0","1","0",""
"null","null","fixation","html-keyboard-response","51","356073","0.0-1.0-7.0-3.0-0.6","00:58:58","1","","","","","","","fixation","","","","","","","","","","","","","","","","","","",""
"984","2","pic_response","html-keyboard-response","52","357059","0.0-1.0-7.0-3.0-1.6","00:58:58","1","","","","","","","<div>
            <img class='stim' src=""pictures/food/2.jpg""></div><div class=""button_prompt"">
                    <b>请用数字键0-9回答</b>
                    </div>","","","","","","","","","","","","","","","","","","",""
"984","null","sub_response","html-keyboard-response","53","358061","0.0-1.0-7.0-3.0-2.6","00:58:58","1","","","","","","","<div style='text-align: center;'>
                            <span style=""color: red; font-size: 40px""><b>错误！+0 pts</b></span></div>
                            ","","learn","2","2","2","learn","9","9","[0, 1, 2, 3, 4, 5, 6, 7, 8, 9]","6","2","setsize","3S10A","food","1","0","1","0",""
"null","null","fixation","html-keyboard-response","54","358563","0.0-1.0-7.0-3.0-0.7","00:58:58","1","","","","","","","fixation","","","","","","","","","","","","","","","","","","",""
"1398","2","pic_response","html-keyboard-response","55","359963","0.0-1.0-7.0-3.0-1.7","00:58:58","1","","","","","","","<div>
            <img class='stim' src=""pictures/food/0.jpg""></div><div class=""button_prompt"">
                    <b>请用数字键0-9回答</b>
                    </div>","","","","","","","","","","","","","","","","","","",""
"1398","null","sub_response","html-keyboard-response","56","360965","0.0-1.0-7.0-3.0-2.7","00:58:58","1","","","","","","","<div style='text-align: center;'>
                            <span style=""color: red; font-size: 40px""><b>错误！+0 pts</b></span></div>
                            ","","learn","0","0","0","learn","2","2","[0, 1, 2, 3, 4, 5, 6, 7, 8, 9]","7","2","setsize","3S10A","food","1","0","1","0",""
"null","null","fixation","html-keyboard-response","57","361467","0.0-1.0-7.0-3.0-0.8","00:58:58","1","","","","","","","fixation","","","","","","","","","","","","","","","","","","",""
"591","3","pic_response","html-keyboard-response","58","362059","0.0-1.0-7.0-3.0-1.8","00:58:58","1","","","","","","","<div>
            <img class='stim' src=""pictures/food/1.jpg""></div><div class=""button_prompt"">
                    <b>请用数字键0-9回答</b>
                    </div>","","","","","","","","","","","","","","","","","","",""
"591","null","sub_response","html-keyboard-response","59","363061","0.0-1.0-7.0-3.0-2.8","00:58:58","1","","","","","","","<div style='text-align: center;'>
                            <span style=""color: red; font-size: 40px""><b>错误！+0 pts</b></span></div>
                            ","","learn","1","1","1","learn","6","6","[0, 1, 2, 3, 4, 5, 6, 7, 8, 9]","8","2","setsize","3S10A","food","1","0","2","0",""
"null","null","fixation","html-keyboard-response","60","363563","0.0-1.0-7.0-3.0-0.9","00:58:58","1","","","","","","","fixation","","","","","","","","","","","","","","","","","","",""
"527","3","pic_response","html-keyboard-response","61","364090","0.0-1.0-7.0-3.0-1.9","00:58:58","1","","","","","","","<div>
            <img class='stim' src=""pictures/food/0.jpg""></div><div class=""button_prompt"">
                    <b>请用数字键0-9回答</b>
                    </div>","","","","","","","","","","","","","","","","","","",""
"527","null","sub_response","html-keyboard-response","62","365092","0.0-1.0-7.0-3.0-2.9","00:58:58","1","","","","","","","<div style='text-align: center;'>
                            <span style=""color: green; font-size: 40px""><b>正确！+1 pts</b></span></div>
                            ","","learn","0","0","0","learn","2","2","[0, 1, 2, 3, 4, 5, 6, 7, 8, 9]","9","3","setsize","3S10A","food","1","1","2","1",""
"null","null","fixation","html-keyboard-response","63","365593","0.0-1.0-7.0-3.0-0.10","00:58:58","1","","","","","","","fixation","","","","","","","","","","","","","","","","","","",""
"1258","1","pic_response","html-keyboard-response","64","366853","0.0-1.0-7.0-3.0-1.10","00:58:58","1","","","","","","","<div>
            <img class='stim' src=""pictures/food/1.jpg""></div><div class=""button_prompt"">
                    <b>请用数字键0-9回答</b>
                    </div>","","","","","","","","","","","","","","","","","","",""
"1258","null","sub_response","html-keyboard-response","65","367856","0.0-1.0-7.0-3.0-2.10","00:58:58","1","","","","","","","<div style='text-align: center;'>
                            <span style=""color: red; font-size: 40px""><b>错误！+0 pts</b></span></div>
                            ","","learn","1","1","1","learn","6","6","[0, 1, 2, 3, 4, 5, 6, 7, 8, 9]","10","3","setsize","3S10A","food","1","0","0","0",""
"null","null","fixation","html-keyboard-response","66","368359","0.0-1.0-7.0-3.0-0.11","00:58:58","1","","","","","","","fixation","","","","","","","","","","","","","","","","","","",""
"381","1","pic_response","html-keyboard-response","67","368741","0.0-1.0-7.0-3.0-1.11","00:58:58","1","","","","","","","<div>
            <img class='stim' src=""pictures/food/2.jpg""></div><div class=""button_prompt"">
                    <b>请用数字键0-9回答</b>
                    </div>","","","","","","","","","","","","","","","","","","",""
"381","null","sub_response","html-keyboard-response","68","369743","0.0-1.0-7.0-3.0-2.11","00:58:58","1","","","","","","","<div style='text-align: center;'>
                            <span style=""color: red; font-size: 40px""><b>错误！+0 pts</b></span></div>
                            ","","learn","2","2","2","learn","9","9","[0, 1, 2, 3, 4, 5, 6, 7, 8, 9]","11","3","setsize","3S10A","food","1","0","0","0",""
"null","null","fixation","html-keyboard-response","69","370245","0.0-1.0-7.0-3.0-0.12","00:58:58","1","","","","","","","fixation","","","","","","","","","","","","","","","","","","",""
"221","0","pic_response","html-keyboard-response","70","370467","0.0-1.0-7.0-3.0-1.12","00:58:58","1","","","","","","","<div>
            <img class='stim' src=""pictures/food/2.jpg""></div><div class=""button_prompt"">
                    <b>请用数字键0-9回答</b>
                    </div>","","","","","","","","","","","","","","","","","","",""
"221","null","sub_response","html-keyboard-response","71","371469","0.0-1.0-7.0-3.0-2.12","00:58:58","1","","","","","","","<div style='text-align: center;'>
                            <span style=""color: green; font-size: 40px""><b>正确！+1 pts</b></span></div>
                            ","","learn","2","2","2","learn","9","9","[0, 1, 2, 3, 4, 5, 6, 7, 8, 9]","12","4","setsize","3S10A","food","1","1","9","1",""
"null","null","fixation","html-keyboard-response","72","371972","0.0-1.0-7.0-3.0-0.13","00:58:58","1","","","","","","","fixation","","","","","","","","","","","","","","","","","","",""
"933","0","pic_response","html-keyboard-response","73","372908","0.0-1.0-7.0-3.0-1.13","00:58:58","1","","","","","","","<div>
            <img class='stim' src=""pictures/food/0.jpg""></div><div class=""button_prompt"">
                    <b>请用数字键0-9回答</b>
                    </div>","","","","","","","","","","","","","","","","","","",""
"933","null","sub_response","html-keyboard-response","74","373910","0.0-1.0-7.0-3.0-2.13","00:58:58","1","","","","","","","<div style='text-align: center;'>
                            <span style=""color: red; font-size: 40px""><b>错误！+0 pts</b></span></div>
                            ","","learn","0","0","0","learn","2","2","[0, 1, 2, 3, 4, 5, 6, 7, 8, 9]","13","4","setsize","3S10A","food","1","0","9","0",""
"null","null","fixation","html-keyboard-response","75","374411","0.0-1.0-7.0-3.0-0.14","00:58:58","1","","","","","","","fixation","","","","","","","","","","","","","","","","","","",""
"742","3","pic_response","html-keyboard-response","76","375155","0.0-1.0-7.0-3.0-1.14","00:58:58","1","","","","","","","<div>
            <img class='stim' src=""pictures/food/1.jpg""></div><div class=""button_prompt"">
                    <b>请用数字键0-9回答</b>
                    </div>","","","","","","","","","","","","","","","","","","",""
"742","null","sub_response","html-keyboard-response","77","376157","0.0-1.0-7.0-3.0-2.14","00:58:58","1","","","","","","","<div style='text-align: center;'>
                            <span style=""color: red; font-size: 40px""><b>错误！+0 pts</b></span></div>
                            ","","learn","1","1","1","learn","6","6","[0, 1, 2, 3, 4, 5, 6, 7, 8, 9]","14","4","setsize","3S10A","food","1","0","2","0",""
"null","null","fixation","html-keyboard-response","78","376660","0.0-1.0-7.0-3.0-0.15","00:58:58","1","","","","","","","fixation","","","","","","","","","","","","","","","","","","",""
"1079","0","pic_response","html-keyboard-response","79","377741","0.0-1.0-7.0-3.0-1.15","00:58:58","1","","","","","","","<div>
            <img class='stim' src=""pictures/food/1.jpg""></div><div class=""button_prompt"">
                    <b>请用数字键0-9回答</b>
                    </div>","","","","","","","","","","","","","","","","","","",""
"1079","null","sub_response","html-keyboard-response","80","378744","0.0-1.0-7.0-3.0-2.15","00:58:58","1","","","","","","","<div style='text-align: center;'>
                            <span style=""color: red; font-size: 40px""><b>错误！+0 pts</b></span></div>
                            ","","learn","1","1","1","learn","6","6","[0, 1, 2, 3, 4, 5, 6, 7, 8, 9]","15","5","setsize","3S10A","food","1","0","9","0",""
"null","null","fixation","html-keyboard-response","81","379246","0.0-1.0-7.0-3.0-0.16","00:58:58","1","","","","","","","fixation","","","","","","","","","","","","","","","","","","",""
"2773","3","pic_response","html-keyboard-response","82","382021","0.0-1.0-7.0-3.0-1.16","00:58:58","1","","","","","","","<div>
            <img class='stim' src=""pictures/food/0.jpg""></div><div class=""button_prompt"">
                    <b>请用数字键0-9回答</b>
                    </div>","","","","","","","","","","","","","","","","","","",""
"2773","null","sub_response","html-keyboard-response","83","383024","0.0-1.0-7.0-3.0-2.16","00:58:58","1","","","","","","","<div style='text-align: center;'>
                            <span style=""color: green; font-size: 40px""><b>正确！+1 pts</b></span></div>
                            ","","learn","0","0","0","learn","2","2","[0, 1, 2, 3, 4, 5, 6, 7, 8, 9]","16","5","setsize","3S10A","food","1","1","2","1",""
"null","null","fixation","html-keyboard-response","84","383526","0.0-1.0-7.0-3.0-0.17","00:58:58","1","","","","","","","fixation","","","","","","","","","","","","","","","","","","",""
"1405","0","pic_response","html-keyboard-response","85","384932","0.0-1.0-7.0-3.0-1.17","00:58:58","1","","","","","","","<div>
            <img class='stim' src=""pictures/food/2.jpg""></div><div class=""button_prompt"">
                    <b>请用数字键0-9回答</b>
                    </div>","","","","","","","","","","","","","","","","","","",""
"1405","null","sub_response","html-keyboard-response","86","385934","0.0-1.0-7.0-3.0-2.17","00:58:58","1","","","","","","","<div style='text-align: center;'>
                            <span style=""color: green; font-size: 40px""><b>正确！+1 pts</b></span></div>
                            ","","learn","2","2","2","learn","9","9","[0, 1, 2, 3, 4, 5, 6, 7, 8, 9]","17","5","setsize","3S10A","food","1","2","9","1",""
"null","null","fixation","html-keyboard-response","87","386437","0.0-1.0-7.0-3.0-0.18","00:58:58","1","","","","","","","fixation","","","","","","","","","","","","","","","","","","",""
"1141","3","pic_response","html-keyboard-response","88","387579","0.0-1.0-7.0-3.0-1.18","00:58:58","1","","","","","","","<div>
            <img class='stim' src=""pictures/food/0.jpg""></div><div class=""button_prompt"">
                    <b>请用数字键0-9回答</b>
                    </div>","","","","","","","","","","","","","","","","","","",""
"1141","null","sub_response","html-keyboard-response","89","388583","0.0-1.0-7.0-3.0-2.18","00:58:58","1","","","","","","","<div style='text-align: center;'>
                            <span style=""color: green; font-size: 40px""><b>正确！+1 pts</b></span></div>
                            ","","learn","0","0","0","learn","2","2","[0, 1, 2, 3, 4, 5, 6, 7, 8, 9]","18","6","setsize","3S10A","food","1","3","2","1",""
"null","null","fixation","html-keyboard-response","90","389084","0.0-1.0-7.0-3.0-0.19","00:58:58","1","","","","","","","fixation","","","","","","","","","","","","","","","","","","",""
"797","7","pic_response","html-keyboard-response","91","389882","0.0-1.0-7.0-3.0-1.19","00:58:58","1","","","","","","","<div>
            <img class='stim' src=""pictures/food/1.jpg""></div><div class=""button_prompt"">
                    <b>请用数字键0-9回答</b>
                    </div>","","","","","","","","","","","","","","","","","","",""
"797","null","sub_response","html-keyboard-response","92","390884","0.0-1.0-7.0-3.0-2.19","00:58:58","1","","","","","","","<div style='text-align: center;'>
                            <span style=""color: green; font-size: 40px""><b>正确！+1 pts</b></span></div>
                            ","","learn","1","1","1","learn","6","6","[0, 1, 2, 3, 4, 5, 6, 7, 8, 9]","19","6","setsize","3S10A","food","1","4","6","1",""
"null","null","fixation","html-keyboard-response","93","391386","0.0-1.0-7.0-3.0-0.20","00:58:58","1","","","","","","","fixation","","","","","","","","","","","","","","","","","","",""
"2171","0","pic_response","html-keyboard-response","94","393557","0.0-1.0-7.0-3.0-1.20","00:58:58","1","","","","","","","<div>
            <img class='stim' src=""pictures/food/2.jpg""></div><div class=""button_prompt"">
                    <b>请用数字键0-9回答</b>
                    </div>","","","","","","","","","","","","","","","","","","",""
"2171","null","sub_response","html-keyboard-response","95","394559","0.0-1.0-7.0-3.0-2.20","00:58:58","1","","","","","","","<div style='text-align: center;'>
                            <span style=""color: green; font-size: 40px""><b>正确！+1 pts</b></span></div>
                            ","","learn","2","2","2","learn","9","9","[0, 1, 2, 3, 4, 5, 6, 7, 8, 9]","20","6","setsize","3S10A","food","1","5","9","1",""
"null","null","fixation","html-keyboard-response","96","395061","0.0-1.0-7.0-3.0-0.21","00:58:58","1","","","","","","","fixation","","","","","","","","","","","","","","","","","","",""
"2732","3","pic_response","html-keyboard-response","97","397795","0.0-1.0-7.0-3.0-1.21","00:58:58","1","","","","","","","<div>
            <img class='stim' src=""pictures/food/1.jpg""></div><div class=""button_prompt"">
                    <b>请用数字键0-9回答</b>
                    </div>","","","","","","","","","","","","","","","","","","",""
"2732","null","sub_response","html-keyboard-response","98","398797","0.0-1.0-7.0-3.0-2.21","00:58:58","1","","","","","","","<div style='text-align: center;'>
                            <span style=""color: red; font-size: 40px""><b>错误！+0 pts</b></span></div>
                            ","","learn","1","1","1","learn","6","6","[0, 1, 2, 3, 4, 5, 6, 7, 8, 9]","21","7","setsize","3S10A","food","1","0","2","0",""
"null","null","fixation","html-keyboard-response","99","399299","0.0-1.0-7.0-3.0-0.22","00:58:58","1","","","","","","","fixation","","","","","","","","","","","","","","","","","","",""
"1079","3","pic_response","html-keyboard-response","100","400381","0.0-1.0-7.0-3.0-1.22","00:58:58","1","","","","","","","<div>
            <img class='stim' src=""pictures/food/0.jpg""></div><div class=""button_prompt"">
                    <b>请用数字键0-9回答</b>
                    </div>","","","","","","","","","","","","","","","","","","",""
"1079","null","sub_response","html-keyboard-response","101","401383","0.0-1.0-7.0-3.0-2.22","00:58:58","1","","","","","","","<div style='text-align: center;'>
                            <span style=""color: green; font-size: 40px""><b>正确！+1 pts</b></span></div>
                            ","","learn","0","0","0","learn","2","2","[0, 1, 2, 3, 4, 5, 6, 7, 8, 9]","22","7","setsize","3S10A","food","1","1","2","1",""
"null","null","fixation","html-keyboard-response","102","401885","0.0-1.0-7.0-3.0-0.23","00:58:58","1","","","","","","","fixation","","","","","","","","","","","","","","","","","","",""
"2143","0","pic_response","html-keyboard-response","103","404030","0.0-1.0-7.0-3.0-1.23","00:58:58","1","","","","","","","<div>
            <img class='stim' src=""pictures/food/2.jpg""></div><div class=""button_prompt"">
                    <b>请用数字键0-9回答</b>
                    </div>","","","","","","","","","","","","","","","","","","",""
"2143","null","sub_response","html-keyboard-response","104","405031","0.0-1.0-7.0-3.0-2.23","00:58:58","1","","","","","","","<div style='text-align: center;'>
                            <span style=""color: green; font-size: 40px""><b>正确！+1 pts</b></span></div>
                            ","","learn","2","2","2","learn","9","9","[0, 1, 2, 3, 4, 5, 6, 7, 8, 9]","23","7","setsize","3S10A","food","1","2","9","1",""
"null","null","fixation","html-keyboard-response","105","405533","0.0-1.0-7.0-3.0-0.24","00:58:58","1","","","","","","","fixation","","","","","","","","","","","","","","","","","","",""
"2237","0","pic_response","html-keyboard-response","106","407771","0.0-1.0-7.0-3.0-1.24","00:58:58","1","","","","","","","<div>
            <img class='stim' src=""pictures/food/2.jpg""></div><div class=""button_prompt"">
                    <b>请用数字键0-9回答</b>
                    </div>","","","","","","","","","","","","","","","","","","",""
"2237","null","sub_response","html-keyboard-response","107","408773","0.0-1.0-7.0-3.0-2.24","00:58:58","1","","","","","","","<div style='text-align: center;'>
                            <span style=""color: green; font-size: 40px""><b>正确！+1 pts</b></span></div>
                            ","","learn","2","2","2","learn","9","9","[0, 1, 2, 3, 4, 5, 6, 7, 8, 9]","24","8","setsize","3S10A","food","1","3","9","1",""
"null","null","fixation","html-keyboard-response","108","409275","0.0-1.0-7.0-3.0-0.25","00:58:58","1","","","","","","","fixation","","","","","","","","","","","","","","","","","","",""
"1334","3","pic_response","html-keyboard-response","109","410611","0.0-1.0-7.0-3.0-1.25","00:58:58","1","","","","","","","<div>
            <img class='stim' src=""pictures/food/0.jpg""></div><div class=""button_prompt"">
                    <b>请用数字键0-9回答</b>
                    </div>","","","","","","","","","","","","","","","","","","",""
"1334","null","sub_response","html-keyboard-response","110","411613","0.0-1.0-7.0-3.0-2.25","00:58:58","1","","","","","","","<div style='text-align: center;'>
                            <span style=""color: green; font-size: 40px""><b>正确！+1 pts</b></span></div>
                            ","","learn","0","0","0","learn","2","2","[0, 1, 2, 3, 4, 5, 6, 7, 8, 9]","25","8","setsize","3S10A","food","1","4","2","1",""
"null","null","fixation","html-keyboard-response","111","412114","0.0-1.0-7.0-3.0-0.26","00:58:58","1","","","","","","","fixation","","","","","","","","","","","","","","","","","","",""
"1383","7","pic_response","html-keyboard-response","112","413500","0.0-1.0-7.0-3.0-1.26","00:58:58","1","","","","","","","<div>
            <img class='stim' src=""pictures/food/1.jpg""></div><div class=""button_prompt"">
                    <b>请用数字键0-9回答</b>
                    </div>","","","","","","","","","","","","","","","","","","",""
"1383","null","sub_response","html-keyboard-response","113","414502","0.0-1.0-7.0-3.0-2.26","00:58:58","1","","","","","","","<div style='text-align: center;'>
                            <span style=""color: green; font-size: 40px""><b>正确！+1 pts</b></span></div>
                            ","","learn","1","1","1","learn","6","6","[0, 1, 2, 3, 4, 5, 6, 7, 8, 9]","26","8","setsize","3S10A","food","1","5","6","1",""
"null","null","fixation","html-keyboard-response","114","415005","0.0-1.0-7.0-3.0-0.27","00:58:58","1","","","","","","","fixation","","","","","","","","","","","","","","","","","","",""
"1805","0","pic_response","html-keyboard-response","115","416813","0.0-1.0-7.0-3.0-1.27","00:58:58","1","","","","","","","<div>
            <img class='stim' src=""pictures/food/2.jpg""></div><div class=""button_prompt"">
                    <b>请用数字键0-9回答</b>
                    </div>","","","","","","","","","","","","","","","","","","",""
"1805","null","sub_response","html-keyboard-response","116","417814","0.0-1.0-7.0-3.0-2.27","00:58:58","1","","","","","","","<div style='text-align: center;'>
                            <span style=""color: green; font-size: 40px""><b>正确！+1 pts</b></span></div>
                            ","","learn","2","2","2","learn","9","9","[0, 1, 2, 3, 4, 5, 6, 7, 8, 9]","27","9","setsize","3S10A","food","1","6","9","1",""
"null","null","fixation","html-keyboard-response","117","418316","0.0-1.0-7.0-3.0-0.28","00:58:58","1","","","","","","","fixation","","","","","","","","","","","","","","","","","","",""
"1382","3","pic_response","html-keyboard-response","118","419699","0.0-1.0-7.0-3.0-1.28","00:58:58","1","","","","","","","<div>
            <img class='stim' src=""pictures/food/0.jpg""></div><div class=""button_prompt"">
                    <b>请用数字键0-9回答</b>
                    </div>","","","","","","","","","","","","","","","","","","",""
"1382","null","sub_response","html-keyboard-response","119","420700","0.0-1.0-7.0-3.0-2.28","00:58:58","1","","","","","","","<div style='text-align: center;'>
                            <span style=""color: green; font-size: 40px""><b>正确！+1 pts</b></span></div>
                            ","","learn","0","0","0","learn","2","2","[0, 1, 2, 3, 4, 5, 6, 7, 8, 9]","28","9","setsize","3S10A","food","1","7","2","1",""
"null","null","fixation","html-keyboard-response","120","421202","0.0-1.0-7.0-3.0-0.29","00:58:58","1","","","","","","","fixation","","","","","","","","","","","","","","","","","","",""
"839","7","pic_response","html-keyboard-response","121","422043","0.0-1.0-7.0-3.0-1.29","00:58:58","1","","","","","","","<div>
            <img class='stim' src=""pictures/food/1.jpg""></div><div class=""button_prompt"">
                    <b>请用数字键0-9回答</b>
                    </div>","","","","","","","","","","","","","","","","","","",""
"839","null","sub_response","html-keyboard-response","122","423045","0.0-1.0-7.0-3.0-2.29","00:58:58","1","","","","","","","<div style='text-align: center;'>
                            <span style=""color: green; font-size: 40px""><b>正确！+1 pts</b></span></div>
                            ","","learn","1","1","1","learn","6","6","[0, 1, 2, 3, 4, 5, 6, 7, 8, 9]","29","9","setsize","3S10A","food","1","8","6","1",""
"null","null","fixation","html-keyboard-response","123","423548","0.0-1.0-7.0-3.0-0.30","00:58:58","1","","","","","","","fixation","","","","","","","","","","","","","","","","","","",""
"1620","0","pic_response","html-keyboard-response","124","425171","0.0-1.0-7.0-3.0-1.30","00:58:58","1","","","","","","","<div>
            <img class='stim' src=""pictures/food/2.jpg""></div><div class=""button_prompt"">
                    <b>请用数字键0-9回答</b>
                    </div>","","","","","","","","","","","","","","","","","","",""
"1620","null","sub_response","html-keyboard-response","125","426173","0.0-1.0-7.0-3.0-2.30","00:58:58","1","","","","","","","<div style='text-align: center;'>
                            <span style=""color: green; font-size: 40px""><b>正确！+1 pts</b></span></div>
                            ","","learn","2","2","2","learn","9","9","[0, 1, 2, 3, 4, 5, 6, 7, 8, 9]","30","10","setsize","3S10A","food","1","9","9","1",""
"null","null","fixation","html-keyboard-response","126","426676","0.0-1.0-7.0-3.0-0.31","00:58:58","1","","","","","","","fixation","","","","","","","","","","","","","","","","","","",""
"1647","3","pic_response","html-keyboard-response","127","428325","0.0-1.0-7.0-3.0-1.31","00:58:58","1","","","","","","","<div>
            <img class='stim' src=""pictures/food/0.jpg""></div><div class=""button_prompt"">
                    <b>请用数字键0-9回答</b>
                    </div>","","","","","","","","","","","","","","","","","","",""
"1647","null","sub_response","html-keyboard-response","128","429326","0.0-1.0-7.0-3.0-2.31","00:58:58","1","","","","","","","<div style='text-align: center;'>
                            <span style=""color: green; font-size: 40px""><b>正确！+1 pts</b></span></div>
                            ","","learn","0","0","0","learn","2","2","[0, 1, 2, 3, 4, 5, 6, 7, 8, 9]","31","10","setsize","3S10A","food","1","10","2","1",""
"null","null","fixation","html-keyboard-response","129","429828","0.0-1.0-7.0-3.0-0.32","00:58:58","1","","","","","","","fixation","","","","","","","","","","","","","","","","","","",""
"1630","7","pic_response","html-keyboard-response","130","431460","0.0-1.0-7.0-3.0-1.32","00:58:58","1","","","","","","","<div>
            <img class='stim' src=""pictures/food/1.jpg""></div><div class=""button_prompt"">
                    <b>请用数字键0-9回答</b>
                    </div>","","","","","","","","","","","","","","","","","","",""
"1630","null","sub_response","html-keyboard-response","131","432461","0.0-1.0-7.0-3.0-2.32","00:58:58","1","","","","","","","<div style='text-align: center;'>
                            <span style=""color: green; font-size: 40px""><b>正确！+1 pts</b></span></div>
                            ","","learn","1","1","1","learn","6","6","[0, 1, 2, 3, 4, 5, 6, 7, 8, 9]","32","10","setsize","3S10A","food","1","11","6","1",""
"null","null","fixation","html-keyboard-response","132","432963","0.0-1.0-7.0-3.0-0.33","00:58:58","1","","","","","","","fixation","","","","","","","","","","","","","","","","","","",""
"1702","3","pic_response","html-keyboard-response","133","434668","0.0-1.0-7.0-3.0-1.33","00:58:58","1","","","","","","","<div>
            <img class='stim' src=""pictures/food/0.jpg""></div><div class=""button_prompt"">
                    <b>请用数字键0-9回答</b>
                    </div>","","","","","","","","","","","","","","","","","","",""
"1702","null","sub_response","html-keyboard-response","134","435669","0.0-1.0-7.0-3.0-2.33","00:58:58","1","","","","","","","<div style='text-align: center;'>
                            <span style=""color: green; font-size: 40px""><b>正确！+1 pts</b></span></div>
                            ","","learn","0","0","0","learn","2","2","[0, 1, 2, 3, 4, 5, 6, 7, 8, 9]","33","11","setsize","3S10A","food","1","12","2","1",""
"null","null","fixation","html-keyboard-response","135","436171","0.0-1.0-7.0-3.0-0.34","00:58:58","1","","","","","","","fixation","","","","","","","","","","","","","","","","","","",""
"2239","7","pic_response","html-keyboard-response","136","438412","0.0-1.0-7.0-3.0-1.34","00:58:58","1","","","","","","","<div>
            <img class='stim' src=""pictures/food/1.jpg""></div><div class=""button_prompt"">
                    <b>请用数字键0-9回答</b>
                    </div>","","","","","","","","","","","","","","","","","","",""
"2239","null","sub_response","html-keyboard-response","137","439414","0.0-1.0-7.0-3.0-2.34","00:58:58","1","","","","","","","<div style='text-align: center;'>
                            <span style=""color: green; font-size: 40px""><b>正确！+1 pts</b></span></div>
                            ","","learn","1","1","1","learn","6","6","[0, 1, 2, 3, 4, 5, 6, 7, 8, 9]","34","11","setsize","3S10A","food","1","13","6","1",""
"null","null","fixation","html-keyboard-response","138","439916","0.0-1.0-7.0-3.0-0.35","00:58:58","1","","","","","","","fixation","","","","","","","","","","","","","","","","","","",""
"1823","0","pic_response","html-keyboard-response","139","441742","0.0-1.0-7.0-3.0-1.35","00:58:58","1","","","","","","","<div>
            <img class='stim' src=""pictures/food/2.jpg""></div><div class=""button_prompt"">
                    <b>请用数字键0-9回答</b>
                    </div>","","","","","","","","","","","","","","","","","","",""
"1823","null","sub_response","html-keyboard-response","140","442745","0.0-1.0-7.0-3.0-2.35","00:58:58","1","","","","","","","<div style='text-align: center;'>
                            <span style=""color: green; font-size: 40px""><b>正确！+1 pts</b></span></div>
                            ","","learn","2","2","2","learn","9","9","[0, 1, 2, 3, 4, 5, 6, 7, 8, 9]","35","11","setsize","3S10A","food","1","14","9","1",""
"null","null","fixation","html-keyboard-response","141","443246","0.0-1.0-7.0-3.0-0.36","00:58:58","1","","","","","","","fixation","","","","","","","","","","","","","","","","","","",""
"939","7","pic_response","html-keyboard-response","142","444187","0.0-1.0-7.0-3.0-1.36","00:58:58","1","","","","","","","<div>
            <img class='stim' src=""pictures/food/1.jpg""></div><div class=""button_prompt"">
                    <b>请用数字键0-9回答</b>
                    </div>","","","","","","","","","","","","","","","","","","",""
"939","null","sub_response","html-keyboard-response","143","445190","0.0-1.0-7.0-3.0-2.36","00:58:58","1","","","","","","","<div style='text-align: center;'>
                            <span style=""color: green; font-size: 40px""><b>正确！+1 pts</b></span></div>
                            ","","learn","1","1","1","learn","6","6","[0, 1, 2, 3, 4, 5, 6, 7, 8, 9]","36","12","setsize","3S10A","food","1","15","6","1",""
"null","null","fixation","html-keyboard-response","144","445693","0.0-1.0-7.0-3.0-0.37","00:58:58","1","","","","","","","fixation","","","","","","","","","","","","","","","","","","",""
"1556","3","pic_response","html-keyboard-response","145","447251","0.0-1.0-7.0-3.0-1.37","00:58:58","1","","","","","","","<div>
            <img class='stim' src=""pictures/food/0.jpg""></div><div class=""button_prompt"">
                    <b>请用数字键0-9回答</b>
                    </div>","","","","","","","","","","","","","","","","","","",""
"1556","null","sub_response","html-keyboard-response","146","448252","0.0-1.0-7.0-3.0-2.37","00:58:58","1","","","","","","","<div style='text-align: center;'>
                            <span style=""color: green; font-size: 40px""><b>正确！+1 pts</b></span></div>
                            ","","learn","0","0","0","learn","2","2","[0, 1, 2, 3, 4, 5, 6, 7, 8, 9]","37","12","setsize","3S10A","food","1","16","2","1",""
"null","null","fixation","html-keyboard-response","147","448754","0.0-1.0-7.0-3.0-0.38","00:58:58","1","","","","","","","fixation","","","","","","","","","","","","","","","","","","",""
"769","0","pic_response","html-keyboard-response","148","449525","0.0-1.0-7.0-3.0-1.38","00:58:58","1","","","","","","","<div>
            <img class='stim' src=""pictures/food/2.jpg""></div><div class=""button_prompt"">
                    <b>请用数字键0-9回答</b>
                    </div>","","","","","","","","","","","","","","","","","","",""
"769","null","sub_response","html-keyboard-response","149","450528","0.0-1.0-7.0-3.0-2.38","00:58:58","1","","","","","","","<div style='text-align: center;'>
                            <span style=""color: green; font-size: 40px""><b>正确！+1 pts</b></span></div>
                            ","","learn","2","2","2","learn","9","9","[0, 1, 2, 3, 4, 5, 6, 7, 8, 9]","38","12","setsize","3S10A","food","1","17","9","1",""
"null","null","fixation","html-keyboard-response","150","451030","0.0-1.0-7.0-3.0-0.39","00:58:58","1","","","","","","","fixation","","","","","","","","","","","","","","","","","","",""
"979","7","pic_response","html-keyboard-response","151","452012","0.0-1.0-7.0-3.0-1.39","00:58:58","1","","","","","","","<div>
            <img class='stim' src=""pictures/food/1.jpg""></div><div class=""button_prompt"">
                    <b>请用数字键0-9回答</b>
                    </div>","","","","","","","","","","","","","","","","","","",""
"979","null","sub_response","html-keyboard-response","152","453013","0.0-1.0-7.0-3.0-2.39","00:58:58","1","","","","","","","<div style='text-align: center;'>
                            <span style=""color: green; font-size: 40px""><b>正确！+1 pts</b></span></div>
                            ","","learn","1","1","1","learn","6","6","[0, 1, 2, 3, 4, 5, 6, 7, 8, 9]","39","13","setsize","3S10A","food","1","18","6","1",""
"null","null","fixation","html-keyboard-response","153","453514","0.0-1.0-7.0-3.0-0.40","00:58:58","1","","","","","","","fixation","","","","","","","","","","","","","","","","","","",""
"904","0","pic_response","html-keyboard-response","154","454420","0.0-1.0-7.0-3.0-1.40","00:58:58","1","","","","","","","<div>
            <img class='stim' src=""pictures/food/2.jpg""></div><div class=""button_prompt"">
                    <b>请用数字键0-9回答</b>
                    </div>","","","","","","","","","","","","","","","","","","",""
"904","null","sub_response","html-keyboard-response","155","455424","0.0-1.0-7.0-3.0-2.40","00:58:58","1","","","","","","","<div style='text-align: center;'>
                            <span style=""color: green; font-size: 40px""><b>正确！+1 pts</b></span></div>
                            ","","learn","2","2","2","learn","9","9","[0, 1, 2, 3, 4, 5, 6, 7, 8, 9]","40","13","setsize","3S10A","food","1","19","9","1",""
"null","null","fixation","html-keyboard-response","156","455926","0.0-1.0-7.0-3.0-0.41","00:58:58","1","","","","","","","fixation","","","","","","","","","","","","","","","","","","",""
"1315","3","pic_response","html-keyboard-response","157","457242","0.0-1.0-7.0-3.0-1.41","00:58:58","1","","","","","","","<div>
            <img class='stim' src=""pictures/food/0.jpg""></div><div class=""button_prompt"">
                    <b>请用数字键0-9回答</b>
                    </div>","","","","","","","","","","","","","","","","","","",""
"1315","null","sub_response","html-keyboard-response","158","458244","0.0-1.0-7.0-3.0-2.41","00:58:58","1","","","","","","","<div style='text-align: center;'>
                            <span style=""color: green; font-size: 40px""><b>正确！+1 pts</b></span></div>
                            ","","learn","0","0","0","learn","2","2","[0, 1, 2, 3, 4, 5, 6, 7, 8, 9]","41","13","setsize","3S10A","food","1","20","2","1",""
"null","null","fixation","html-keyboard-response","159","458746","0.0-1.0-7.0-3.0-0.42","00:58:58","1","","","","","","","fixation","","","","","","","","","","","","","","","","","","",""
"718","3","pic_response","html-keyboard-response","160","459467","0.0-1.0-7.0-3.0-1.42","00:58:58","1","","","","","","","<div>
            <img class='stim' src=""pictures/food/0.jpg""></div><div class=""button_prompt"">
                    <b>请用数字键0-9回答</b>
                    </div>","","","","","","","","","","","","","","","","","","",""
"718","null","sub_response","html-keyboard-response","161","460468","0.0-1.0-7.0-3.0-2.42","00:58:58","1","","","","","","","<div style='text-align: center;'>
                            <span style=""color: green; font-size: 40px""><b>正确！+1 pts</b></span></div>
                            ","","learn","0","0","0","learn","2","2","[0, 1, 2, 3, 4, 5, 6, 7, 8, 9]","42","14","setsize","3S10A","food","1","21","2","1",""
"null","null","fixation","html-keyboard-response","162","460970","0.0-1.0-7.0-3.0-0.43","00:58:58","1","","","","","","","fixation","","","","","","","","","","","","","","","","","","",""
"1978","7","pic_response","html-keyboard-response","163","462949","0.0-1.0-7.0-3.0-1.43","00:58:58","1","","","","","","","<div>
            <img class='stim' src=""pictures/food/1.jpg""></div><div class=""button_prompt"">
                    <b>请用数字键0-9回答</b>
                    </div>","","","","","","","","","","","","","","","","","","",""
"1978","null","sub_response","html-keyboard-response","164","463951","0.0-1.0-7.0-3.0-2.43","00:58:58","1","","","","","","","<div style='text-align: center;'>
                            <span style=""color: green; font-size: 40px""><b>正确！+1 pts</b></span></div>
                            ","","learn","1","1","1","learn","6","6","[0, 1, 2, 3, 4, 5, 6, 7, 8, 9]","43","14","setsize","3S10A","food","1","22","6","1",""
"null","null","fixation","html-keyboard-response","165","464454","0.0-1.0-7.0-3.0-0.44","00:58:58","1","","","","","","","fixation","","","","","","","","","","","","","","","","","","",""
"1355","0","pic_response","html-keyboard-response","166","465812","0.0-1.0-7.0-3.0-1.44","00:58:58","1","","","","","","","<div>
            <img class='stim' src=""pictures/food/2.jpg""></div><div class=""button_prompt"">
                    <b>请用数字键0-9回答</b>
                    </div>","","","","","","","","","","","","","","","","","","",""
"1355","null","sub_response","html-keyboard-response","167","466815","0.0-1.0-7.0-3.0-2.44","00:58:58","1","","","","","","","<div style='text-align: center;'>
                            <span style=""color: green; font-size: 40px""><b>正确！+1 pts</b></span></div>
                            ","","learn","2","2","2","learn","9","9","[0, 1, 2, 3, 4, 5, 6, 7, 8, 9]","44","14","setsize","3S10A","food","1","23","9","1",""
"null","null","fixation","html-keyboard-response","168","467317","0.0-1.0-7.0-3.0-0.45","00:58:58","1","","","","","","","fixation","","","","","","","","","","","","","","","","","","",""
"1046","7","pic_response","html-keyboard-response","169","468365","0.0-1.0-7.0-3.0-1.45","00:58:58","1","","","","","","","<div>
            <img class='stim' src=""pictures/food/1.jpg""></div><div class=""button_prompt"">
                    <b>请用数字键0-9回答</b>
                    </div>","","","","","","","","","","","","","","","","","","",""
"1046","null","sub_response","html-keyboard-response","170","469366","0.0-1.0-7.0-3.0-2.45","00:58:58","1","","","","","","","<div style='text-align: center;'>
                            <span style=""color: green; font-size: 40px""><b>正确！+1 pts</b></span></div>
                            ","","learn","1","1","1","learn","6","6","[0, 1, 2, 3, 4, 5, 6, 7, 8, 9]","45","15","setsize","3S10A","food","1","24","6","1",""
"58920"," ","","html-keyboard-response","171","528291","0.0-1.0-8.0","00:58:58","1","","","","","","","<div style=""font-size: 25px""><p>距下一个实验开始还有</p><div style=""font-size: 50px; color: blue""><p><span id=""clock"">1:00</span></div></p><p>按""空格""跳过休息</p></div>","","","","","","","","","","","","","","","","","","",""
"","","","preload","172","528357","0.0-1.0-9.0-0.0","00:58:58","1","true","false","[]","[]","[]","","","","","","","","","","","","","","","","","","","","",""
"1696"," ","","html-keyboard-response","173","530054","0.0-1.0-9.0-1.0","00:58:58","1","","","","","","","<div style='font-size: 32px; text-align: center;'
                    <p>请学习图片和数字之间的对应关系</p>
                    <p>我们将<span style='color: blue'><b> 告诉 </b></span>您选择的对错。请根据反馈学习。</p>
                    <p>请按""空格""继续实验。</p></div>","","","","","","","","","","","","","","","","","","",""
"159267"," ","inst","html-keyboard-response","174","689323","0.0-1.0-9.0-2.0","00:58:58","1","","","","","","","<img class='instruct_stim' src=""instruction/animals10.PNG""></div>","","","","","","","","","","","","","","","","","","",""
"null","null","fixation","html-keyboard-response","175","689824","0.0-1.0-9.0-3.0-0.0","00:58:58","1","","","","","","","fixation","","","","","","","","","","","","","","","","","","",""
"2019","0","pic_response","html-keyboard-response","176","691843","0.0-1.0-9.0-3.0-1.0","00:58:58","1","","","","","","","<div>
            <img class='stim' src=""pictures/animals/7.jpg""></div><div class=""button_prompt"">
                    <b>请用数字键0-9回答</b>
                    </div>","","","","","","","","","","","","","","","","","","",""
"2019","null","sub_response","html-keyboard-response","177","692846","0.0-1.0-9.0-3.0-2.0","00:58:58","1","","","","","","","<div style='text-align: center;'>
                            <span style=""color: red; font-size: 40px""><b>错误！+0 pts</b></span></div>
                            ","","learn","7","7","7","learn","7","7","[0, 1, 2, 3, 4, 5, 6, 7, 8, 9]","0","0","setsize","10S10A","animals","2","0","9","0",""
"null","null","fixation","html-keyboard-response","178","693348","0.0-1.0-9.0-3.0-0.1","00:58:58","1","","","","","","","fixation","","","","","","","","","","","","","","","","","","",""
"942","0","pic_response","html-keyboard-response","179","694292","0.0-1.0-9.0-3.0-1.1","00:58:58","1","","","","","","","<div>
            <img class='stim' src=""pictures/animals/5.jpg""></div><div class=""button_prompt"">
                    <b>请用数字键0-9回答</b>
                    </div>","","","","","","","","","","","","","","","","","","",""
"942","null","sub_response","html-keyboard-response","180","695294","0.0-1.0-9.0-3.0-2.1","00:58:58","1","","","","","","","<div style='text-align: center;'>
                            <span style=""color: red; font-size: 40px""><b>错误！+0 pts</b></span></div>
                            ","","learn","5","5","5","learn","5","5","[0, 1, 2, 3, 4, 5, 6, 7, 8, 9]","1","0","setsize","10S10A","animals","2","0","9","0",""
"null","null","fixation","html-keyboard-response","181","695796","0.0-1.0-9.0-3.0-0.2","00:58:58","1","","","","","","","fixation","","","","","","","","","","","","","","","","","","",""
"799","0","pic_response","html-keyboard-response","182","696598","0.0-1.0-9.0-3.0-1.2","00:58:58","1","","","","","","","<div>
            <img class='stim' src=""pictures/animals/8.jpg""></div><div class=""button_prompt"">
                    <b>请用数字键0-9回答</b>
                    </div>","","","","","","","","","","","","","","","","","","",""
"799","null","sub_response","html-keyboard-response","183","697602","0.0-1.0-9.0-3.0-2.2","00:58:58","1","","","","","","","<div style='text-align: center;'>
                            <span style=""color: red; font-size: 40px""><b>错误！+0 pts</b></span></div>
                            ","","learn","8","8","8","learn","8","8","[0, 1, 2, 3, 4, 5, 6, 7, 8, 9]","2","0","setsize","10S10A","animals","2","0","9","0",""
"null","null","fixation","html-keyboard-response","184","698104","0.0-1.0-9.0-3.0-0.3","00:58:58","1","","","","","","","fixation","","","","","","","","","","","","","","","","","","",""
"1049","0","pic_response","html-keyboard-response","185","699155","0.0-1.0-9.0-3.0-1.3","00:58:58","1","","","","","","","<div>
            <img class='stim' src=""pictures/animals/4.jpg""></div><div class=""button_prompt"">
                    <b>请用数字键0-9回答</b>
                    </div>","","","","","","","","","","","","","","","","","","",""
"1049","null","sub_response","html-keyboard-response","186","700158","0.0-1.0-9.0-3.0-2.3","00:58:58","1","","","","","","","<div style='text-align: center;'>
                            <span style=""color: red; font-size: 40px""><b>错误！+0 pts</b></span></div>
                            ","","learn","4","4","4","learn","4","4","[0, 1, 2, 3, 4, 5, 6, 7, 8, 9]","3","0","setsize","10S10A","animals","2","0","9","0",""
"null","null","fixation","html-keyboard-response","187","700660","0.0-1.0-9.0-3.0-0.4","00:58:58","1","","","","","","","fixation","","","","","","","","","","","","","","","","","","",""
"1174","0","pic_response","html-keyboard-response","188","701836","0.0-1.0-9.0-3.0-1.4","00:58:58","1","","","","","","","<div>
            <img class='stim' src=""pictures/animals/6.jpg""></div><div class=""button_prompt"">
                    <b>请用数字键0-9回答</b>
                    </div>","","","","","","","","","","","","","","","","","","",""
"1174","null","sub_response","html-keyboard-response","189","702838","0.0-1.0-9.0-3.0-2.4","00:58:58","1","","","","","","","<div style='text-align: center;'>
                            <span style=""color: red; font-size: 40px""><b>错误！+0 pts</b></span></div>
                            ","","learn","6","6","6","learn","6","6","[0, 1, 2, 3, 4, 5, 6, 7, 8, 9]","4","0","setsize","10S10A","animals","2","0","9","0",""
"null","null","fixation","html-keyboard-response","190","703340","0.0-1.0-9.0-3.0-0.5","00:58:58","1","","","","","","","fixation","","","","","","","","","","","","","","","","","","",""
"930","0","pic_response","html-keyboard-response","191","704271","0.0-1.0-9.0-3.0-1.5","00:58:58","1","","","","","","","<div>
            <img class='stim' src=""pictures/animals/3.jpg""></div><div class=""button_prompt"">
                    <b>请用数字键0-9回答</b>
                    </div>","","","","","","","","","","","","","","","","","","",""
"930","null","sub_response","html-keyboard-response","192","705273","0.0-1.0-9.0-3.0-2.5","00:58:58","1","","","","","","","<div style='text-align: center;'>
                            <span style=""color: red; font-size: 40px""><b>错误！+0 pts</b></span></div>
                            ","","learn","3","3","3","learn","3","3","[0, 1, 2, 3, 4, 5, 6, 7, 8, 9]","5","0","setsize","10S10A","animals","2","0","9","0",""
"null","null","fixation","html-keyboard-response","193","705775","0.0-1.0-9.0-3.0-0.6","00:58:58","1","","","","","","","fixation","","","","","","","","","","","","","","","","","","",""
"771","0","pic_response","html-keyboard-response","194","706548","0.0-1.0-9.0-3.0-1.6","00:58:58","1","","","","","","","<div>
            <img class='stim' src=""pictures/animals/2.jpg""></div><div class=""button_prompt"">
                    <b>请用数字键0-9回答</b>
                    </div>","","","","","","","","","","","","","","","","","","",""
"771","null","sub_response","html-keyboard-response","195","707550","0.0-1.0-9.0-3.0-2.6","00:58:58","1","","","","","","","<div style='text-align: center;'>
                            <span style=""color: red; font-size: 40px""><b>错误！+0 pts</b></span></div>
                            ","","learn","2","2","2","learn","2","2","[0, 1, 2, 3, 4, 5, 6, 7, 8, 9]","6","0","setsize","10S10A","animals","2","0","9","0",""
"null","null","fixation","html-keyboard-response","196","708052","0.0-1.0-9.0-3.0-0.7","00:58:58","1","","","","","","","fixation","","","","","","","","","","","","","","","","","","",""
"726","0","pic_response","html-keyboard-response","197","708779","0.0-1.0-9.0-3.0-1.7","00:58:58","1","","","","","","","<div>
            <img class='stim' src=""pictures/animals/1.jpg""></div><div class=""button_prompt"">
                    <b>请用数字键0-9回答</b>
                    </div>","","","","","","","","","","","","","","","","","","",""
"726","null","sub_response","html-keyboard-response","198","709782","0.0-1.0-9.0-3.0-2.7","00:58:58","1","","","","","","","<div style='text-align: center;'>
                            <span style=""color: red; font-size: 40px""><b>错误！+0 pts</b></span></div>
                            ","","learn","1","1","1","learn","1","1","[0, 1, 2, 3, 4, 5, 6, 7, 8, 9]","7","0","setsize","10S10A","animals","2","0","9","0",""
"null","null","fixation","html-keyboard-response","199","710285","0.0-1.0-9.0-3.0-0.8","00:58:58","1","","","","","","","fixation","","","","","","","","","","","","","","","","","","",""
"700","0","pic_response","html-keyboard-response","200","710986","0.0-1.0-9.0-3.0-1.8","00:58:58","1","","","","","","","<div>
            <img class='stim' src=""pictures/animals/0.jpg""></div><div class=""button_prompt"">
                    <b>请用数字键0-9回答</b>
                    </div>","","","","","","","","","","","","","","","","","","",""
"700","null","sub_response","html-keyboard-response","201","711988","0.0-1.0-9.0-3.0-2.8","00:58:58","1","","","","","","","<div style='text-align: center;'>
                            <span style=""color: red; font-size: 40px""><b>错误！+0 pts</b></span></div>
                            ","","learn","0","0","0","learn","0","0","[0, 1, 2, 3, 4, 5, 6, 7, 8, 9]","8","0","setsize","10S10A","animals","2","0","9","0",""
"null","null","fixation","html-keyboard-response","202","712490","0.0-1.0-9.0-3.0-0.9","00:58:58","1","","","","","","","fixation","","","","","","","","","","","","","","","","","","",""
"729","0","pic_response","html-keyboard-response","203","713222","0.0-1.0-9.0-3.0-1.9","00:58:58","1","","","","","","","<div>
            <img class='stim' src=""pictures/animals/9.jpg""></div><div class=""button_prompt"">
                    <b>请用数字键0-9回答</b>
                    </div>","","","","","","","","","","","","","","","","","","",""
"729","null","sub_response","html-keyboard-response","204","714224","0.0-1.0-9.0-3.0-2.9","00:58:58","1","","","","","","","<div style='text-align: center;'>
                            <span style=""color: green; font-size: 40px""><b>正确！+1 pts</b></span></div>
                            ","","learn","9","9","9","learn","9","9","[0, 1, 2, 3, 4, 5, 6, 7, 8, 9]","9","0","setsize","10S10A","animals","2","1","9","1",""
"null","null","fixation","html-keyboard-response","205","714726","0.0-1.0-9.0-3.0-0.10","00:58:58","1","","","","","","","fixation","","","","","","","","","","","","","","","","","","",""
"1107","1","pic_response","html-keyboard-response","206","715835","0.0-1.0-9.0-3.0-1.10","00:58:58","1","","","","","","","<div>
            <img class='stim' src=""pictures/animals/7.jpg""></div><div class=""button_prompt"">
                    <b>请用数字键0-9回答</b>
                    </div>","","","","","","","","","","","","","","","","","","",""
"1107","null","sub_response","html-keyboard-response","207","716837","0.0-1.0-9.0-3.0-2.10","00:58:58","1","","","","","","","<div style='text-align: center;'>
                            <span style=""color: red; font-size: 40px""><b>错误！+0 pts</b></span></div>
                            ","","learn","7","7","7","learn","7","7","[0, 1, 2, 3, 4, 5, 6, 7, 8, 9]","10","1","setsize","10S10A","animals","2","0","0","0",""
"null","null","fixation","html-keyboard-response","208","717339","0.0-1.0-9.0-3.0-0.11","00:58:58","1","","","","","","","fixation","","","","","","","","","","","","","","","","","","",""
"839","0","pic_response","html-keyboard-response","209","718180","0.0-1.0-9.0-3.0-1.11","00:58:58","1","","","","","","","<div>
            <img class='stim' src=""pictures/animals/9.jpg""></div><div class=""button_prompt"">
                    <b>请用数字键0-9回答</b>
                    </div>","","","","","","","","","","","","","","","","","","",""
"839","null","sub_response","html-keyboard-response","210","719182","0.0-1.0-9.0-3.0-2.11","00:58:58","1","","","","","","","<div style='text-align: center;'>
                            <span style=""color: green; font-size: 40px""><b>正确！+1 pts</b></span></div>
                            ","","learn","9","9","9","learn","9","9","[0, 1, 2, 3, 4, 5, 6, 7, 8, 9]","11","1","setsize","10S10A","animals","2","1","9","1",""
"null","null","fixation","html-keyboard-response","211","719684","0.0-1.0-9.0-3.0-0.12","00:58:58","1","","","","","","","fixation","","","","","","","","","","","","","","","","","","",""
"742","1","pic_response","html-keyboard-response","212","720428","0.0-1.0-9.0-3.0-1.12","00:58:58","1","","","","","","","<div>
            <img class='stim' src=""pictures/animals/3.jpg""></div><div class=""button_prompt"">
                    <b>请用数字键0-9回答</b>
                    </div>","","","","","","","","","","","","","","","","","","",""
"742","null","sub_response","html-keyboard-response","213","721430","0.0-1.0-9.0-3.0-2.12","00:58:58","1","","","","","","","<div style='text-align: center;'>
                            <span style=""color: red; font-size: 40px""><b>错误！+0 pts</b></span></div>
                            ","","learn","3","3","3","learn","3","3","[0, 1, 2, 3, 4, 5, 6, 7, 8, 9]","12","1","setsize","10S10A","animals","2","0","0","0",""
"null","null","fixation","html-keyboard-response","214","721932","0.0-1.0-9.0-3.0-0.13","00:58:58","1","","","","","","","fixation","","","","","","","","","","","","","","","","","","",""
"782","1","pic_response","html-keyboard-response","215","722716","0.0-1.0-9.0-3.0-1.13","00:58:58","1","","","","","","","<div>
            <img class='stim' src=""pictures/animals/8.jpg""></div><div class=""button_prompt"">
                    <b>请用数字键0-9回答</b>
                    </div>","","","","","","","","","","","","","","","","","","",""
"782","null","sub_response","html-keyboard-response","216","723718","0.0-1.0-9.0-3.0-2.13","00:58:58","1","","","","","","","<div style='text-align: center;'>
                            <span style=""color: red; font-size: 40px""><b>错误！+0 pts</b></span></div>
                            ","","learn","8","8","8","learn","8","8","[0, 1, 2, 3, 4, 5, 6, 7, 8, 9]","13","1","setsize","10S10A","animals","2","0","0","0",""
"null","null","fixation","html-keyboard-response","217","724220","0.0-1.0-9.0-3.0-0.14","00:58:58","1","","","","","","","fixation","","","","","","","","","","","","","","","","","","",""
"1087","1","pic_response","html-keyboard-response","218","725309","0.0-1.0-9.0-3.0-1.14","00:58:58","1","","","","","","","<div>
            <img class='stim' src=""pictures/animals/4.jpg""></div><div class=""button_prompt"">
                    <b>请用数字键0-9回答</b>
                    </div>","","","","","","","","","","","","","","","","","","",""
"1087","null","sub_response","html-keyboard-response","219","726311","0.0-1.0-9.0-3.0-2.14","00:58:58","1","","","","","","","<div style='text-align: center;'>
                            <span style=""color: red; font-size: 40px""><b>错误！+0 pts</b></span></div>
                            ","","learn","4","4","4","learn","4","4","[0, 1, 2, 3, 4, 5, 6, 7, 8, 9]","14","1","setsize","10S10A","animals","2","0","0","0",""
"null","null","fixation","html-keyboard-response","220","726814","0.0-1.0-9.0-3.0-0.15","00:58:58","1","","","","","","","fixation","","","","","","","","","","","","","","","","","","",""
"1052","1","pic_response","html-keyboard-response","221","727868","0.0-1.0-9.0-3.0-1.15","00:58:58","1","","","","","","","<div>
            <img class='stim' src=""pictures/animals/5.jpg""></div><div class=""button_prompt"">
                    <b>请用数字键0-9回答</b>
                    </div>","","","","","","","","","","","","","","","","","","",""
"1052","null","sub_response","html-keyboard-response","222","728870","0.0-1.0-9.0-3.0-2.15","00:58:58","1","","","","","","","<div style='text-align: center;'>
                            <span style=""color: red; font-size: 40px""><b>错误！+0 pts</b></span></div>
                            ","","learn","5","5","5","learn","5","5","[0, 1, 2, 3, 4, 5, 6, 7, 8, 9]","15","1","setsize","10S10A","animals","2","0","0","0",""
"null","null","fixation","html-keyboard-response","223","729372","0.0-1.0-9.0-3.0-0.16","00:58:58","1","","","","","","","fixation","","","","","","","","","","","","","","","","","","",""
"1256","1","pic_response","html-keyboard-response","224","730629","0.0-1.0-9.0-3.0-1.16","00:58:58","1","","","","","","","<div>
            <img class='stim' src=""pictures/animals/2.jpg""></div><div class=""button_prompt"">
                    <b>请用数字键0-9回答</b>
                    </div>","","","","","","","","","","","","","","","","","","",""
"1256","null","sub_response","html-keyboard-response","225","731632","0.0-1.0-9.0-3.0-2.16","00:58:58","1","","","","","","","<div style='text-align: center;'>
                            <span style=""color: red; font-size: 40px""><b>错误！+0 pts</b></span></div>
                            ","","learn","2","2","2","learn","2","2","[0, 1, 2, 3, 4, 5, 6, 7, 8, 9]","16","1","setsize","10S10A","animals","2","0","0","0",""
"null","null","fixation","html-keyboard-response","226","732134","0.0-1.0-9.0-3.0-0.17","00:58:58","1","","","","","","","fixation","","","","","","","","","","","","","","","","","","",""
"1205","1","pic_response","html-keyboard-response","227","733340","0.0-1.0-9.0-3.0-1.17","00:58:58","1","","","","","","","<div>
            <img class='stim' src=""pictures/animals/0.jpg""></div><div class=""button_prompt"">
                    <b>请用数字键0-9回答</b>
                    </div>","","","","","","","","","","","","","","","","","","",""
"1205","null","sub_response","html-keyboard-response","228","734343","0.0-1.0-9.0-3.0-2.17","00:58:58","1","","","","","","","<div style='text-align: center;'>
                            <span style=""color: green; font-size: 40px""><b>正确！+1 pts</b></span></div>
                            ","","learn","0","0","0","learn","0","0","[0, 1, 2, 3, 4, 5, 6, 7, 8, 9]","17","1","setsize","10S10A","animals","2","1","0","1",""
"null","null","fixation","html-keyboard-response","229","734846","0.0-1.0-9.0-3.0-0.18","00:58:58","1","","","","","","","fixation","","","","","","","","","","","","","","","","","","",""
"786","2","pic_response","html-keyboard-response","230","735635","0.0-1.0-9.0-3.0-1.18","00:58:58","1","","","","","","","<div>
            <img class='stim' src=""pictures/animals/1.jpg""></div><div class=""button_prompt"">
                    <b>请用数字键0-9回答</b>
                    </div>","","","","","","","","","","","","","","","","","","",""
"786","null","sub_response","html-keyboard-response","231","736636","0.0-1.0-9.0-3.0-2.18","00:58:58","1","","","","","","","<div style='text-align: center;'>
                            <span style=""color: green; font-size: 40px""><b>正确！+1 pts</b></span></div>
                            ","","learn","1","1","1","learn","1","1","[0, 1, 2, 3, 4, 5, 6, 7, 8, 9]","18","1","setsize","10S10A","animals","2","2","1","1",""
"null","null","fixation","html-keyboard-response","232","737139","0.0-1.0-9.0-3.0-0.19","00:58:58","1","","","","","","","fixation","","","","","","","","","","","","","","","","","","",""
"1367","3","pic_response","html-keyboard-response","233","738507","0.0-1.0-9.0-3.0-1.19","00:58:58","1","","","","","","","<div>
            <img class='stim' src=""pictures/animals/6.jpg""></div><div class=""button_prompt"">
                    <b>请用数字键0-9回答</b>
                    </div>","","","","","","","","","","","","","","","","","","",""
"1367","null","sub_response","html-keyboard-response","234","739509","0.0-1.0-9.0-3.0-2.19","00:58:58","1","","","","","","","<div style='text-align: center;'>
                            <span style=""color: red; font-size: 40px""><b>错误！+0 pts</b></span></div>
                            ","","learn","6","6","6","learn","6","6","[0, 1, 2, 3, 4, 5, 6, 7, 8, 9]","19","1","setsize","10S10A","animals","2","0","2","0",""
"null","null","fixation","html-keyboard-response","235","740011","0.0-1.0-9.0-3.0-0.20","00:58:58","1","","","","","","","fixation","","","","","","","","","","","","","","","","","","",""
"830","3","pic_response","html-keyboard-response","236","740842","0.0-1.0-9.0-3.0-1.20","00:58:58","1","","","","","","","<div>
            <img class='stim' src=""pictures/animals/6.jpg""></div><div class=""button_prompt"">
                    <b>请用数字键0-9回答</b>
                    </div>","","","","","","","","","","","","","","","","","","",""
"830","null","sub_response","html-keyboard-response","237","741844","0.0-1.0-9.0-3.0-2.20","00:58:58","1","","","","","","","<div style='text-align: center;'>
                            <span style=""color: red; font-size: 40px""><b>错误！+0 pts</b></span></div>
                            ","","learn","6","6","6","learn","6","6","[0, 1, 2, 3, 4, 5, 6, 7, 8, 9]","20","2","setsize","10S10A","animals","2","0","2","0",""
"null","null","fixation","html-keyboard-response","238","742346","0.0-1.0-9.0-3.0-0.21","00:58:58","1","","","","","","","fixation","","","","","","","","","","","","","","","","","","",""
"1248","0","pic_response","html-keyboard-response","239","743595","0.0-1.0-9.0-3.0-1.21","00:58:58","1","","","","","","","<div>
            <img class='stim' src=""pictures/animals/9.jpg""></div><div class=""button_prompt"">
                    <b>请用数字键0-9回答</b>
                    </div>","","","","","","","","","","","","","","","","","","",""
"1248","null","sub_response","html-keyboard-response","240","744596","0.0-1.0-9.0-3.0-2.21","00:58:58","1","","","","","","","<div style='text-align: center;'>
                            <span style=""color: green; font-size: 40px""><b>正确！+1 pts</b></span></div>
                            ","","learn","9","9","9","learn","9","9","[0, 1, 2, 3, 4, 5, 6, 7, 8, 9]","21","2","setsize","10S10A","animals","2","1","9","1",""
"null","null","fixation","html-keyboard-response","241","745099","0.0-1.0-9.0-3.0-0.22","00:58:58","1","","","","","","","fixation","","","","","","","","","","","","","","","","","","",""
"1007","3","pic_response","html-keyboard-response","242","746107","0.0-1.0-9.0-3.0-1.22","00:58:58","1","","","","","","","<div>
            <img class='stim' src=""pictures/animals/7.jpg""></div><div class=""button_prompt"">
                    <b>请用数字键0-9回答</b>
                    </div>","","","","","","","","","","","","","","","","","","",""
"1007","null","sub_response","html-keyboard-response","243","747109","0.0-1.0-9.0-3.0-2.22","00:58:58","1","","","","","","","<div style='text-align: center;'>
                            <span style=""color: red; font-size: 40px""><b>错误！+0 pts</b></span></div>
                            ","","learn","7","7","7","learn","7","7","[0, 1, 2, 3, 4, 5, 6, 7, 8, 9]","22","2","setsize","10S10A","animals","2","0","2","0",""
"null","null","fixation","html-keyboard-response","244","747611","0.0-1.0-9.0-3.0-0.23","00:58:58","1","","","","","","","fixation","","","","","","","","","","","","","","","","","","",""
"1629","3","pic_response","html-keyboard-response","245","749244","0.0-1.0-9.0-3.0-1.23","00:58:58","1","","","","","","","<div>
            <img class='stim' src=""pictures/animals/4.jpg""></div><div class=""button_prompt"">
                    <b>请用数字键0-9回答</b>
                    </div>","","","","","","","","","","","","","","","","","","",""
"1629","null","sub_response","html-keyboard-response","246","750246","0.0-1.0-9.0-3.0-2.23","00:58:58","1","","","","","","","<div style='text-align: center;'>
                            <span style=""color: red; font-size: 40px""><b>错误！+0 pts</b></span></div>
                            ","","learn","4","4","4","learn","4","4","[0, 1, 2, 3, 4, 5, 6, 7, 8, 9]","23","2","setsize","10S10A","animals","2","0","2","0",""
"null","null","fixation","html-keyboard-response","247","750748","0.0-1.0-9.0-3.0-0.24","00:58:58","1","","","","","","","fixation","","","","","","","","","","","","","","","","","","",""
"2335","3","pic_response","html-keyboard-response","248","753083","0.0-1.0-9.0-3.0-1.24","00:58:58","1","","","","","","","<div>
            <img class='stim' src=""pictures/animals/5.jpg""></div><div class=""button_prompt"">
                    <b>请用数字键0-9回答</b>
                    </div>","","","","","","","","","","","","","","","","","","",""
"2335","null","sub_response","html-keyboard-response","249","754086","0.0-1.0-9.0-3.0-2.24","00:58:58","1","","","","","","","<div style='text-align: center;'>
                            <span style=""color: red; font-size: 40px""><b>错误！+0 pts</b></span></div>
                            ","","learn","5","5","5","learn","5","5","[0, 1, 2, 3, 4, 5, 6, 7, 8, 9]","24","2","setsize","10S10A","animals","2","0","2","0",""
"null","null","fixation","html-keyboard-response","250","754588","0.0-1.0-9.0-3.0-0.25","00:58:58","1","","","","","","","fixation","","","","","","","","","","","","","","","","","","",""
"1040","3","pic_response","html-keyboard-response","251","755630","0.0-1.0-9.0-3.0-1.25","00:58:58","1","","","","","","","<div>
            <img class='stim' src=""pictures/animals/3.jpg""></div><div class=""button_prompt"">
                    <b>请用数字键0-9回答</b>
                    </div>","","","","","","","","","","","","","","","","","","",""
"1040","null","sub_response","html-keyboard-response","252","756633","0.0-1.0-9.0-3.0-2.25","00:58:58","1","","","","","","","<div style='text-align: center;'>
                            <span style=""color: red; font-size: 40px""><b>错误！+0 pts</b></span></div>
                            ","","learn","3","3","3","learn","3","3","[0, 1, 2, 3, 4, 5, 6, 7, 8, 9]","25","2","setsize","10S10A","animals","2","0","2","0",""
"null","null","fixation","html-keyboard-response","253","757134","0.0-1.0-9.0-3.0-0.26","00:58:58","1","","","","","","","fixation","","","","","","","","","","","","","","","","","","",""
"1396","2","pic_response","html-keyboard-response","254","758533","0.0-1.0-9.0-3.0-1.26","00:58:58","1","","","","","","","<div>
            <img class='stim' src=""pictures/animals/1.jpg""></div><div class=""button_prompt"">
                    <b>请用数字键0-9回答</b>
                    </div>","","","","","","","","","","","","","","","","","","",""
"1396","null","sub_response","html-keyboard-response","255","759534","0.0-1.0-9.0-3.0-2.26","00:58:58","1","","","","","","","<div style='text-align: center;'>
                            <span style=""color: green; font-size: 40px""><b>正确！+1 pts</b></span></div>
                            ","","learn","1","1","1","learn","1","1","[0, 1, 2, 3, 4, 5, 6, 7, 8, 9]","26","2","setsize","10S10A","animals","2","1","1","1",""
"null","null","fixation","html-keyboard-response","256","760036","0.0-1.0-9.0-3.0-0.27","00:58:58","1","","","","","","","fixation","","","","","","","","","","","","","","","","","","",""
"646","3","pic_response","html-keyboard-response","257","760683","0.0-1.0-9.0-3.0-1.27","00:58:58","1","","","","","","","<div>
            <img class='stim' src=""pictures/animals/8.jpg""></div><div class=""button_prompt"">
                    <b>请用数字键0-9回答</b>
                    </div>","","","","","","","","","","","","","","","","","","",""
"646","null","sub_response","html-keyboard-response","258","761684","0.0-1.0-9.0-3.0-2.27","00:58:58","1","","","","","","","<div style='text-align: center;'>
                            <span style=""color: red; font-size: 40px""><b>错误！+0 pts</b></span></div>
                            ","","learn","8","8","8","learn","8","8","[0, 1, 2, 3, 4, 5, 6, 7, 8, 9]","27","2","setsize","10S10A","animals","2","0","2","0",""
"null","null","fixation","html-keyboard-response","259","762189","0.0-1.0-9.0-3.0-0.28","00:58:58","1","","","","","","","fixation","","","","","","","","","","","","","","","","","","",""
"1508","1","pic_response","html-keyboard-response","260","763698","0.0-1.0-9.0-3.0-1.28","00:58:58","1","","","","","","","<div>
            <img class='stim' src=""pictures/animals/0.jpg""></div><div class=""button_prompt"">
                    <b>请用数字键0-9回答</b>
                    </div>","","","","","","","","","","","","","","","","","","",""
"1508","null","sub_response","html-keyboard-response","261","764699","0.0-1.0-9.0-3.0-2.28","00:58:58","1","","","","","","","<div style='text-align: center;'>
                            <span style=""color: green; font-size: 40px""><b>正确！+1 pts</b></span></div>
                            ","","learn","0","0","0","learn","0","0","[0, 1, 2, 3, 4, 5, 6, 7, 8, 9]","28","2","setsize","10S10A","animals","2","1","0","1",""
"null","null","fixation","html-keyboard-response","262","765201","0.0-1.0-9.0-3.0-0.29","00:58:58","1","","","","","","","fixation","","","","","","","","","","","","","","","","","","",""
"648","3","pic_response","html-keyboard-response","263","765851","0.0-1.0-9.0-3.0-1.29","00:58:58","1","","","","","","","<div>
            <img class='stim' src=""pictures/animals/2.jpg""></div><div class=""button_prompt"">
                    <b>请用数字键0-9回答</b>
                    </div>","","","","","","","","","","","","","","","","","","",""
"648","null","sub_response","html-keyboard-response","264","766852","0.0-1.0-9.0-3.0-2.29","00:58:58","1","","","","","","","<div style='text-align: center;'>
                            <span style=""color: green; font-size: 40px""><b>正确！+1 pts</b></span></div>
                            ","","learn","2","2","2","learn","2","2","[0, 1, 2, 3, 4, 5, 6, 7, 8, 9]","29","2","setsize","10S10A","animals","2","2","2","1",""
"null","null","fixation","html-keyboard-response","265","767355","0.0-1.0-9.0-3.0-0.30","00:58:58","1","","","","","","","fixation","","","","","","","","","","","","","","","","","","",""
"814","3","pic_response","html-keyboard-response","266","768170","0.0-1.0-9.0-3.0-1.30","00:58:58","1","","","","","","","<div>
            <img class='stim' src=""pictures/animals/2.jpg""></div><div class=""button_prompt"">
                    <b>请用数字键0-9回答</b>
                    </div>","","","","","","","","","","","","","","","","","","",""
"814","null","sub_response","html-keyboard-response","267","769172","0.0-1.0-9.0-3.0-2.30","00:58:58","1","","","","","","","<div style='text-align: center;'>
                            <span style=""color: green; font-size: 40px""><b>正确！+1 pts</b></span></div>
                            ","","learn","2","2","2","learn","2","2","[0, 1, 2, 3, 4, 5, 6, 7, 8, 9]","30","3","setsize","10S10A","animals","2","3","2","1",""
"null","null","fixation","html-keyboard-response","268","769674","0.0-1.0-9.0-3.0-0.31","00:58:58","1","","","","","","","fixation","","","","","","","","","","","","","","","","","","",""
"1233","4","pic_response","html-keyboard-response","269","770908","0.0-1.0-9.0-3.0-1.31","00:58:58","1","","","","","","","<div>
            <img class='stim' src=""pictures/animals/4.jpg""></div><div class=""button_prompt"">
                    <b>请用数字键0-9回答</b>
                    </div>","","","","","","","","","","","","","","","","","","",""
"1233","null","sub_response","html-keyboard-response","270","771911","0.0-1.0-9.0-3.0-2.31","00:58:58","1","","","","","","","<div style='text-align: center;'>
                            <span style=""color: red; font-size: 40px""><b>错误！+0 pts</b></span></div>
                            ","","learn","4","4","4","learn","4","4","[0, 1, 2, 3, 4, 5, 6, 7, 8, 9]","31","3","setsize","10S10A","animals","2","0","3","0",""
"null","null","fixation","html-keyboard-response","271","772413","0.0-1.0-9.0-3.0-0.32","00:58:58","1","","","","","","","fixation","","","","","","","","","","","","","","","","","","",""
"1022","4","pic_response","html-keyboard-response","272","773436","0.0-1.0-9.0-3.0-1.32","00:58:58","1","","","","","","","<div>
            <img class='stim' src=""pictures/animals/5.jpg""></div><div class=""button_prompt"">
                    <b>请用数字键0-9回答</b>
                    </div>","","","","","","","","","","","","","","","","","","",""
"1022","null","sub_response","html-keyboard-response","273","774439","0.0-1.0-9.0-3.0-2.32","00:58:58","1","","","","","","","<div style='text-align: center;'>
                            <span style=""color: red; font-size: 40px""><b>错误！+0 pts</b></span></div>
                            ","","learn","5","5","5","learn","5","5","[0, 1, 2, 3, 4, 5, 6, 7, 8, 9]","32","3","setsize","10S10A","animals","2","0","3","0",""
"null","null","fixation","html-keyboard-response","274","774943","0.0-1.0-9.0-3.0-0.33","00:58:58","1","","","","","","","fixation","","","","","","","","","","","","","","","","","","",""
"970","4","pic_response","html-keyboard-response","275","775915","0.0-1.0-9.0-3.0-1.33","00:58:58","1","","","","","","","<div>
            <img class='stim' src=""pictures/animals/7.jpg""></div><div class=""button_prompt"">
                    <b>请用数字键0-9回答</b>
                    </div>","","","","","","","","","","","","","","","","","","",""
"970","null","sub_response","html-keyboard-response","276","776917","0.0-1.0-9.0-3.0-2.33","00:58:58","1","","","","","","","<div style='text-align: center;'>
                            <span style=""color: red; font-size: 40px""><b>错误！+0 pts</b></span></div>
                            ","","learn","7","7","7","learn","7","7","[0, 1, 2, 3, 4, 5, 6, 7, 8, 9]","33","3","setsize","10S10A","animals","2","0","3","0",""
"null","null","fixation","html-keyboard-response","277","777418","0.0-1.0-9.0-3.0-0.34","00:58:58","1","","","","","","","fixation","","","","","","","","","","","","","","","","","","",""
"767","4","pic_response","html-keyboard-response","278","778187","0.0-1.0-9.0-3.0-1.34","00:58:58","1","","","","","","","<div>
            <img class='stim' src=""pictures/animals/3.jpg""></div><div class=""button_prompt"">
                    <b>请用数字键0-9回答</b>
                    </div>","","","","","","","","","","","","","","","","","","",""
"767","null","sub_response","html-keyboard-response","279","779190","0.0-1.0-9.0-3.0-2.34","00:58:58","1","","","","","","","<div style='text-align: center;'>
                            <span style=""color: green; font-size: 40px""><b>正确！+1 pts</b></span></div>
                            ","","learn","3","3","3","learn","3","3","[0, 1, 2, 3, 4, 5, 6, 7, 8, 9]","34","3","setsize","10S10A","animals","2","1","3","1",""
"null","null","fixation","html-keyboard-response","280","779693","0.0-1.0-9.0-3.0-0.35","00:58:58","1","","","","","","","fixation","","","","","","","","","","","","","","","","","","",""
"888","5","pic_response","html-keyboard-response","281","780582","0.0-1.0-9.0-3.0-1.35","00:58:58","1","","","","","","","<div>
            <img class='stim' src=""pictures/animals/8.jpg""></div><div class=""button_prompt"">
                    <b>请用数字键0-9回答</b>
                    </div>","","","","","","","","","","","","","","","","","","",""
"888","null","sub_response","html-keyboard-response","282","781585","0.0-1.0-9.0-3.0-2.35","00:58:58","1","","","","","","","<div style='text-align: center;'>
                            <span style=""color: red; font-size: 40px""><b>错误！+0 pts</b></span></div>
                            ","","learn","8","8","8","learn","8","8","[0, 1, 2, 3, 4, 5, 6, 7, 8, 9]","35","3","setsize","10S10A","animals","2","0","4","0",""
"null","null","fixation","html-keyboard-response","283","782087","0.0-1.0-9.0-3.0-0.36","00:58:58","1","","","","","","","fixation","","","","","","","","","","","","","","","","","","",""
"934","1","pic_response","html-keyboard-response","284","783023","0.0-1.0-9.0-3.0-1.36","00:58:58","1","","","","","","","<div>
            <img class='stim' src=""pictures/animals/0.jpg""></div><div class=""button_prompt"">
                    <b>请用数字键0-9回答</b>
                    </div>","","","","","","","","","","","","","","","","","","",""
"934","null","sub_response","html-keyboard-response","285","784025","0.0-1.0-9.0-3.0-2.36","00:58:58","1","","","","","","","<div style='text-align: center;'>
                            <span style=""color: green; font-size: 40px""><b>正确！+1 pts</b></span></div>
                            ","","learn","0","0","0","learn","0","0","[0, 1, 2, 3, 4, 5, 6, 7, 8, 9]","36","3","setsize","10S10A","animals","2","1","0","1",""
"null","null","fixation","html-keyboard-response","286","784527","0.0-1.0-9.0-3.0-0.37","00:58:58","1","","","","","","","fixation","","","","","","","","","","","","","","","","","","",""
"1806","5","pic_response","html-keyboard-response","287","786335","0.0-1.0-9.0-3.0-1.37","00:58:58","1","","","","","","","<div>
            <img class='stim' src=""pictures/animals/6.jpg""></div><div class=""button_prompt"">
                    <b>请用数字键0-9回答</b>
                    </div>","","","","","","","","","","","","","","","","","","",""
"1806","null","sub_response","html-keyboard-response","288","787337","0.0-1.0-9.0-3.0-2.37","00:58:58","1","","","","","","","<div style='text-align: center;'>
                            <span style=""color: red; font-size: 40px""><b>错误！+0 pts</b></span></div>
                            ","","learn","6","6","6","learn","6","6","[0, 1, 2, 3, 4, 5, 6, 7, 8, 9]","37","3","setsize","10S10A","animals","2","0","4","0",""
"null","null","fixation","html-keyboard-response","289","787840","0.0-1.0-9.0-3.0-0.38","00:58:58","1","","","","","","","fixation","","","","","","","","","","","","","","","","","","",""
"1938","2","pic_response","html-keyboard-response","290","789780","0.0-1.0-9.0-3.0-1.38","00:58:58","1","","","","","","","<div>
            <img class='stim' src=""pictures/animals/1.jpg""></div><div class=""button_prompt"">
                    <b>请用数字键0-9回答</b>
                    </div>","","","","","","","","","","","","","","","","","","",""
"1938","null","sub_response","html-keyboard-response","291","790782","0.0-1.0-9.0-3.0-2.38","00:58:58","1","","","","","","","<div style='text-align: center;'>
                            <span style=""color: green; font-size: 40px""><b>正确！+1 pts</b></span></div>
                            ","","learn","1","1","1","learn","1","1","[0, 1, 2, 3, 4, 5, 6, 7, 8, 9]","38","3","setsize","10S10A","animals","2","1","1","1",""
"null","null","fixation","html-keyboard-response","292","791284","0.0-1.0-9.0-3.0-0.39","00:58:58","1","","","","","","","fixation","","","","","","","","","","","","","","","","","","",""
"1590","0","pic_response","html-keyboard-response","293","792875","0.0-1.0-9.0-3.0-1.39","00:58:58","1","","","","","","","<div>
            <img class='stim' src=""pictures/animals/9.jpg""></div><div class=""button_prompt"">
                    <b>请用数字键0-9回答</b>
                    </div>","","","","","","","","","","","","","","","","","","",""
"1590","null","sub_response","html-keyboard-response","294","793877","0.0-1.0-9.0-3.0-2.39","00:58:58","1","","","","","","","<div style='text-align: center;'>
                            <span style=""color: green; font-size: 40px""><b>正确！+1 pts</b></span></div>
                            ","","learn","9","9","9","learn","9","9","[0, 1, 2, 3, 4, 5, 6, 7, 8, 9]","39","3","setsize","10S10A","animals","2","2","9","1",""
"null","null","fixation","html-keyboard-response","295","794379","0.0-1.0-9.0-3.0-0.40","00:58:58","1","","","","","","","fixation","","","","","","","","","","","","","","","","","","",""
"809","2","pic_response","html-keyboard-response","296","795189","0.0-1.0-9.0-3.0-1.40","00:58:58","1","","","","","","","<div>
            <img class='stim' src=""pictures/animals/1.jpg""></div><div class=""button_prompt"">
                    <b>请用数字键0-9回答</b>
                    </div>","","","","","","","","","","","","","","","","","","",""
"809","null","sub_response","html-keyboard-response","297","796191","0.0-1.0-9.0-3.0-2.40","00:58:58","1","","","","","","","<div style='text-align: center;'>
                            <span style=""color: green; font-size: 40px""><b>正确！+1 pts</b></span></div>
                            ","","learn","1","1","1","learn","1","1","[0, 1, 2, 3, 4, 5, 6, 7, 8, 9]","40","4","setsize","10S10A","animals","2","3","1","1",""
"null","null","fixation","html-keyboard-response","298","796694","0.0-1.0-9.0-3.0-0.41","00:58:58","1","","","","","","","fixation","","","","","","","","","","","","","","","","","","",""
"919","4","pic_response","html-keyboard-response","299","797615","0.0-1.0-9.0-3.0-1.41","00:58:58","1","","","","","","","<div>
            <img class='stim' src=""pictures/animals/3.jpg""></div><div class=""button_prompt"">
                    <b>请用数字键0-9回答</b>
                    </div>","","","","","","","","","","","","","","","","","","",""
"919","null","sub_response","html-keyboard-response","300","798617","0.0-1.0-9.0-3.0-2.41","00:58:58","1","","","","","","","<div style='text-align: center;'>
                            <span style=""color: green; font-size: 40px""><b>正确！+1 pts</b></span></div>
                            ","","learn","3","3","3","learn","3","3","[0, 1, 2, 3, 4, 5, 6, 7, 8, 9]","41","4","setsize","10S10A","animals","2","4","3","1",""
"null","null","fixation","html-keyboard-response","301","799119","0.0-1.0-9.0-3.0-0.42","00:58:58","1","","","","","","","fixation","","","","","","","","","","","","","","","","","","",""
"873","5","pic_response","html-keyboard-response","302","799994","0.0-1.0-9.0-3.0-1.42","00:58:58","1","","","","","","","<div>
            <img class='stim' src=""pictures/animals/4.jpg""></div><div class=""button_prompt"">
                    <b>请用数字键0-9回答</b>
                    </div>","","","","","","","","","","","","","","","","","","",""
"873","null","sub_response","html-keyboard-response","303","800996","0.0-1.0-9.0-3.0-2.42","00:58:58","1","","","","","","","<div style='text-align: center;'>
                            <span style=""color: green; font-size: 40px""><b>正确！+1 pts</b></span></div>
                            ","","learn","4","4","4","learn","4","4","[0, 1, 2, 3, 4, 5, 6, 7, 8, 9]","42","4","setsize","10S10A","animals","2","5","4","1",""
"null","null","fixation","html-keyboard-response","304","801498","0.0-1.0-9.0-3.0-0.43","00:58:58","1","","","","","","","fixation","","","","","","","","","","","","","","","","","","",""
"1041","1","pic_response","html-keyboard-response","305","802541","0.0-1.0-9.0-3.0-1.43","00:58:58","1","","","","","","","<div>
            <img class='stim' src=""pictures/animals/0.jpg""></div><div class=""button_prompt"">
                    <b>请用数字键0-9回答</b>
                    </div>","","","","","","","","","","","","","","","","","","",""
"1041","null","sub_response","html-keyboard-response","306","803543","0.0-1.0-9.0-3.0-2.43","00:58:58","1","","","","","","","<div style='text-align: center;'>
                            <span style=""color: green; font-size: 40px""><b>正确！+1 pts</b></span></div>
                            ","","learn","0","0","0","learn","0","0","[0, 1, 2, 3, 4, 5, 6, 7, 8, 9]","43","4","setsize","10S10A","animals","2","6","0","1",""
"null","null","fixation","html-keyboard-response","307","804045","0.0-1.0-9.0-3.0-0.44","00:58:58","1","","","","","","","fixation","","","","","","","","","","","","","","","","","","",""
"1055","6","pic_response","html-keyboard-response","308","805101","0.0-1.0-9.0-3.0-1.44","00:58:58","1","","","","","","","<div>
            <img class='stim' src=""pictures/animals/8.jpg""></div><div class=""button_prompt"">
                    <b>请用数字键0-9回答</b>
                    </div>","","","","","","","","","","","","","","","","","","",""
"1055","null","sub_response","html-keyboard-response","309","806103","0.0-1.0-9.0-3.0-2.44","00:58:58","1","","","","","","","<div style='text-align: center;'>
                            <span style=""color: red; font-size: 40px""><b>错误！+0 pts</b></span></div>
                            ","","learn","8","8","8","learn","8","8","[0, 1, 2, 3, 4, 5, 6, 7, 8, 9]","44","4","setsize","10S10A","animals","2","0","5","0",""
"null","null","fixation","html-keyboard-response","310","806604","0.0-1.0-9.0-3.0-0.45","00:58:58","1","","","","","","","fixation","","","","","","","","","","","","","","","","","","",""
"1214","6","pic_response","html-keyboard-response","311","807819","0.0-1.0-9.0-3.0-1.45","00:58:58","1","","","","","","","<div>
            <img class='stim' src=""pictures/animals/5.jpg""></div><div class=""button_prompt"">
                    <b>请用数字键0-9回答</b>
                    </div>","","","","","","","","","","","","","","","","","","",""
"1214","null","sub_response","html-keyboard-response","312","808821","0.0-1.0-9.0-3.0-2.45","00:58:58","1","","","","","","","<div style='text-align: center;'>
                            <span style=""color: green; font-size: 40px""><b>正确！+1 pts</b></span></div>
                            ","","learn","5","5","5","learn","5","5","[0, 1, 2, 3, 4, 5, 6, 7, 8, 9]","45","4","setsize","10S10A","animals","2","1","5","1",""
"null","null","fixation","html-keyboard-response","313","809324","0.0-1.0-9.0-3.0-0.46","00:58:58","1","","","","","","","fixation","","","","","","","","","","","","","","","","","","",""
"1054","7","pic_response","html-keyboard-response","314","810380","0.0-1.0-9.0-3.0-1.46","00:58:58","1","","","","","","","<div>
            <img class='stim' src=""pictures/animals/7.jpg""></div><div class=""button_prompt"">
                    <b>请用数字键0-9回答</b>
                    </div>","","","","","","","","","","","","","","","","","","",""
"1054","null","sub_response","html-keyboard-response","315","811382","0.0-1.0-9.0-3.0-2.46","00:58:58","1","","","","","","","<div style='text-align: center;'>
                            <span style=""color: red; font-size: 40px""><b>错误！+0 pts</b></span></div>
                            ","","learn","7","7","7","learn","7","7","[0, 1, 2, 3, 4, 5, 6, 7, 8, 9]","46","4","setsize","10S10A","animals","2","0","6","0",""
